acc,accuracy,average_response_time,avg_rt,background,bidi,browser_codename,browser_name,browser_version,canvas_backend,clock_backend,color_backend,compensation,coordinates,count_end,count_experiment,count_osweb,count_prestudy,count_prestudy_isi,count_prestudy_sequence,count_prestudy_stimpres,count_start,count_study,count_study_coroutines,count_study_isi,count_study_logger,count_study_response,count_study_sequence,count_study_start,count_study_stimpres,count_test,count_test_coroutines,count_test_isi,count_test_logger,count_test_response,count_test_sequence,count_test_start,count_test_stimpres,date_startdate,date_startdateUTC,date_starttime,datetime,description,disable_garbage_collection,experiment_debug,experiment_parameters,experiment_path,experiment_pilot,experiment_taskname,experiment_taskversion,fampict,font_bold,font_family,font_italic,font_size,font_underline,foreground,form_clicks,fullscreen,height,jatosStudyResultId,jatosVersion,keyboard_backend,mouse_backend,opensesame_codename,opensesame_version,repeat_cycle,response,response_start,response_study_start,response_test_start,response_time,response_time_start,response_time_study_start,response_time_test_start,round_decimals,sampler_backend,screen_availableHeight,screen_availableWidth,screen_colorDepth,screen_height,screen_pixelDepth,screen_screenX,screen_screenY,screen_width,sessionid,sound_buf_size,sound_channels,sound_freq,sound_sample_size,start,stim,subject_nr,subject_parity,system_os,time_prestudy,time_prestudy_isi,time_prestudy_stimpres,time_start,time_study,time_study_isi,time_study_logger,time_study_response,time_study_start,time_study_stimpres,time_test,time_test_isi,time_test_logger,time_test_response,time_test_start,time_test_stimpres,title,total_correct,total_response_time,total_responses,uniform_coordinates,width
undefined,undefined,undefined,undefined,white,no,Mozilla,Netscape,"5.0 (Windows NT 10.0; Win64; x64) AppleWebKit/537.36 (KHTML, like Gecko) Chrome/98.0.4758.102 Safari/537.36",xpyriment,legacy,legacy,0,uniform,0,0,0,0,24,24,24,0,0,0,0,0,0,0,0,0,0,,,,,,0,,23-01-22,23-01-22,19:54:55,Wed Feb 23 2022 19:54:55 GMT+0100 (közép-európai téli idő),The main experiment item,yes,0,0,C:/Users/rrics/Documents/!!ResearchBMECOGSCI/gnet,0,0,0,prototype4.png,no,mono,no,18,no,black,no,no,768,1125,3.5.6,legacy,xpyriment,osweb,1.3.13,0,space,space,space,,70370,9153,70370,,2,legacy,728,1366,24,768,24,0,0,1366,1645642573629,1024,2,48000,-16,experiment,p6sarr1.png,1,odd,Win32,100,121171,118157,99,100,198115,199632,193116,122692,193116,100,,,,,,visual_patterns,0,0,0,yes,1366
undefined,undefined,undefined,undefined,white,no,Mozilla,Netscape,"5.0 (Windows NT 10.0; Win64; x64) AppleWebKit/537.36 (KHTML, like Gecko) Chrome/98.0.4758.102 Safari/537.36",xpyriment,legacy,legacy,0,uniform,0,0,0,0,24,24,24,0,0,1,1,1,1,1,0,1,0,,,,,,0,,23-01-22,23-01-22,19:54:55,Wed Feb 23 2022 19:54:55 GMT+0100 (közép-európai téli idő),The main experiment item,yes,0,0,C:/Users/rrics/Documents/!!ResearchBMECOGSCI/gnet,0,0,0,prototype4.png,no,mono,no,18,no,black,no,no,768,1125,3.5.6,legacy,xpyriment,osweb,1.3.13,0,space,space,space,,70370,9153,70370,,2,legacy,728,1366,24,768,24,0,0,1366,1645642573629,1024,2,48000,-16,experiment,prototype3.png,1,odd,Win32,100,121171,118157,99,100,204659,206164,199655,122692,199655,100,,,,,,visual_patterns,0,0,0,yes,1366
undefined,undefined,undefined,undefined,white,no,Mozilla,Netscape,"5.0 (Windows NT 10.0; Win64; x64) AppleWebKit/537.36 (KHTML, like Gecko) Chrome/98.0.4758.102 Safari/537.36",xpyriment,legacy,legacy,0,uniform,0,0,0,0,24,24,24,0,0,2,2,2,2,2,0,2,0,,,,,,0,,23-01-22,23-01-22,19:54:55,Wed Feb 23 2022 19:54:55 GMT+0100 (közép-európai téli idő),The main experiment item,yes,0,0,C:/Users/rrics/Documents/!!ResearchBMECOGSCI/gnet,0,0,0,prototype4.png,no,mono,no,18,no,black,no,no,768,1125,3.5.6,legacy,xpyriment,osweb,1.3.13,0,space,space,space,,70370,9153,70370,,2,legacy,728,1366,24,768,24,0,0,1366,1645642573629,1024,2,48000,-16,experiment,p3sarr1.png,1,odd,Win32,100,121171,118157,99,100,211185,212700,206191,122692,206191,100,,,,,,visual_patterns,0,0,0,yes,1366
undefined,undefined,undefined,undefined,white,no,Mozilla,Netscape,"5.0 (Windows NT 10.0; Win64; x64) AppleWebKit/537.36 (KHTML, like Gecko) Chrome/98.0.4758.102 Safari/537.36",xpyriment,legacy,legacy,0,uniform,0,0,0,0,24,24,24,0,0,3,3,3,3,3,0,3,0,,,,,,0,,23-01-22,23-01-22,19:54:55,Wed Feb 23 2022 19:54:55 GMT+0100 (közép-európai téli idő),The main experiment item,yes,0,0,C:/Users/rrics/Documents/!!ResearchBMECOGSCI/gnet,0,0,0,prototype4.png,no,mono,no,18,no,black,no,no,768,1125,3.5.6,legacy,xpyriment,osweb,1.3.13,0,space,space,space,,70370,9153,70370,,2,legacy,728,1366,24,768,24,0,0,1366,1645642573629,1024,2,48000,-16,experiment,p9sarr2.png,1,odd,Win32,100,121171,118157,99,100,217720,219235,212725,122692,212724,100,,,,,,visual_patterns,0,0,0,yes,1366
undefined,undefined,undefined,undefined,white,no,Mozilla,Netscape,"5.0 (Windows NT 10.0; Win64; x64) AppleWebKit/537.36 (KHTML, like Gecko) Chrome/98.0.4758.102 Safari/537.36",xpyriment,legacy,legacy,0,uniform,0,0,0,0,24,24,24,0,0,4,4,4,4,4,0,4,0,,,,,,0,,23-01-22,23-01-22,19:54:55,Wed Feb 23 2022 19:54:55 GMT+0100 (közép-európai téli idő),The main experiment item,yes,0,0,C:/Users/rrics/Documents/!!ResearchBMECOGSCI/gnet,0,0,0,prototype4.png,no,mono,no,18,no,black,no,no,768,1125,3.5.6,legacy,xpyriment,osweb,1.3.13,0,space,space,space,,70370,9153,70370,,2,legacy,728,1366,24,768,24,0,0,1366,1645642573629,1024,2,48000,-16,experiment,p4sarr2.png,1,odd,Win32,100,121171,118157,99,100,224259,225771,219269,122692,219269,100,,,,,,visual_patterns,0,0,0,yes,1366
undefined,undefined,undefined,undefined,white,no,Mozilla,Netscape,"5.0 (Windows NT 10.0; Win64; x64) AppleWebKit/537.36 (KHTML, like Gecko) Chrome/98.0.4758.102 Safari/537.36",xpyriment,legacy,legacy,0,uniform,0,0,0,0,24,24,24,0,0,5,5,5,5,5,0,5,0,,,,,,0,,23-01-22,23-01-22,19:54:55,Wed Feb 23 2022 19:54:55 GMT+0100 (közép-európai téli idő),The main experiment item,yes,0,0,C:/Users/rrics/Documents/!!ResearchBMECOGSCI/gnet,0,0,0,prototype4.png,no,mono,no,18,no,black,no,no,768,1125,3.5.6,legacy,xpyriment,osweb,1.3.13,0,space,space,space,,70370,9153,70370,,2,legacy,728,1366,24,768,24,0,0,1366,1645642573629,1024,2,48000,-16,experiment,p4sarrshacol2.png,1,odd,Win32,100,121171,118157,99,100,230792,232307,225798,122692,225798,100,,,,,,visual_patterns,0,0,0,yes,1366
undefined,undefined,undefined,undefined,white,no,Mozilla,Netscape,"5.0 (Windows NT 10.0; Win64; x64) AppleWebKit/537.36 (KHTML, like Gecko) Chrome/98.0.4758.102 Safari/537.36",xpyriment,legacy,legacy,0,uniform,0,0,0,0,24,24,24,0,0,6,6,6,6,6,0,6,0,,,,,,0,,23-01-22,23-01-22,19:54:55,Wed Feb 23 2022 19:54:55 GMT+0100 (közép-európai téli idő),The main experiment item,yes,0,0,C:/Users/rrics/Documents/!!ResearchBMECOGSCI/gnet,0,0,0,prototype4.png,no,mono,no,18,no,black,no,no,768,1125,3.5.6,legacy,xpyriment,osweb,1.3.13,0,space,space,space,,70370,9153,70370,,2,legacy,728,1366,24,768,24,0,0,1366,1645642573629,1024,2,48000,-16,experiment,p5sarrsha2.png,1,odd,Win32,100,121171,118157,99,100,237327,238842,232334,122692,232333,100,,,,,,visual_patterns,0,0,0,yes,1366
undefined,undefined,undefined,undefined,white,no,Mozilla,Netscape,"5.0 (Windows NT 10.0; Win64; x64) AppleWebKit/537.36 (KHTML, like Gecko) Chrome/98.0.4758.102 Safari/537.36",xpyriment,legacy,legacy,0,uniform,0,0,0,0,24,24,24,0,0,7,7,7,7,7,0,7,0,,,,,,0,,23-01-22,23-01-22,19:54:55,Wed Feb 23 2022 19:54:55 GMT+0100 (közép-európai téli idő),The main experiment item,yes,0,0,C:/Users/rrics/Documents/!!ResearchBMECOGSCI/gnet,0,0,0,prototype4.png,no,mono,no,18,no,black,no,no,768,1125,3.5.6,legacy,xpyriment,osweb,1.3.13,0,space,space,space,,70370,9153,70370,,2,legacy,728,1366,24,768,24,0,0,1366,1645642573629,1024,2,48000,-16,experiment,p2sarr1.png,1,odd,Win32,100,121171,118157,99,100,243863,245377,238869,122692,238869,100,,,,,,visual_patterns,0,0,0,yes,1366
undefined,undefined,undefined,undefined,white,no,Mozilla,Netscape,"5.0 (Windows NT 10.0; Win64; x64) AppleWebKit/537.36 (KHTML, like Gecko) Chrome/98.0.4758.102 Safari/537.36",xpyriment,legacy,legacy,0,uniform,0,0,0,0,24,24,24,0,0,8,8,8,8,8,0,8,0,,,,,,0,,23-01-22,23-01-22,19:54:55,Wed Feb 23 2022 19:54:55 GMT+0100 (közép-európai téli idő),The main experiment item,yes,0,0,C:/Users/rrics/Documents/!!ResearchBMECOGSCI/gnet,0,0,0,prototype4.png,no,mono,no,18,no,black,no,no,768,1125,3.5.6,legacy,xpyriment,osweb,1.3.13,0,space,space,space,,70370,9153,70370,,2,legacy,728,1366,24,768,24,0,0,1366,1645642573629,1024,2,48000,-16,experiment,prototype4.png,1,odd,Win32,100,121171,118157,99,100,250397,251913,245397,122692,245397,100,,,,,,visual_patterns,0,0,0,yes,1366
undefined,undefined,undefined,undefined,white,no,Mozilla,Netscape,"5.0 (Windows NT 10.0; Win64; x64) AppleWebKit/537.36 (KHTML, like Gecko) Chrome/98.0.4758.102 Safari/537.36",xpyriment,legacy,legacy,0,uniform,0,0,0,0,24,24,24,0,0,9,9,9,9,9,0,9,0,,,,,,0,,23-01-22,23-01-22,19:54:55,Wed Feb 23 2022 19:54:55 GMT+0100 (közép-európai téli idő),The main experiment item,yes,0,0,C:/Users/rrics/Documents/!!ResearchBMECOGSCI/gnet,0,0,0,prototype4.png,no,mono,no,18,no,black,no,no,768,1125,3.5.6,legacy,xpyriment,osweb,1.3.13,0,space,space,space,,70370,9153,70370,,2,legacy,728,1366,24,768,24,0,0,1366,1645642573629,1024,2,48000,-16,experiment,p5sarrsha1.png,1,odd,Win32,100,121171,118157,99,100,256936,258449,251942,122692,251942,100,,,,,,visual_patterns,0,0,0,yes,1366
undefined,undefined,undefined,undefined,white,no,Mozilla,Netscape,"5.0 (Windows NT 10.0; Win64; x64) AppleWebKit/537.36 (KHTML, like Gecko) Chrome/98.0.4758.102 Safari/537.36",xpyriment,legacy,legacy,0,uniform,0,0,0,0,24,24,24,0,0,10,10,10,10,10,0,10,0,,,,,,0,,23-01-22,23-01-22,19:54:55,Wed Feb 23 2022 19:54:55 GMT+0100 (közép-európai téli idő),The main experiment item,yes,0,0,C:/Users/rrics/Documents/!!ResearchBMECOGSCI/gnet,0,0,0,prototype4.png,no,mono,no,18,no,black,no,no,768,1125,3.5.6,legacy,xpyriment,osweb,1.3.13,0,space,space,space,,70370,9153,70370,,2,legacy,728,1366,24,768,24,0,0,1366,1645642573629,1024,2,48000,-16,experiment,p5sarrcol1.png,1,odd,Win32,100,121171,118157,99,100,263468,264984,258471,122692,258471,100,,,,,,visual_patterns,0,0,0,yes,1366
undefined,undefined,undefined,undefined,white,no,Mozilla,Netscape,"5.0 (Windows NT 10.0; Win64; x64) AppleWebKit/537.36 (KHTML, like Gecko) Chrome/98.0.4758.102 Safari/537.36",xpyriment,legacy,legacy,0,uniform,0,0,0,0,24,24,24,0,0,11,11,11,11,11,0,11,0,,,,,,0,,23-01-22,23-01-22,19:54:55,Wed Feb 23 2022 19:54:55 GMT+0100 (közép-európai téli idő),The main experiment item,yes,0,0,C:/Users/rrics/Documents/!!ResearchBMECOGSCI/gnet,0,0,0,prototype4.png,no,mono,no,18,no,black,no,no,768,1125,3.5.6,legacy,xpyriment,osweb,1.3.13,0,space,space,space,,70370,9153,70370,,2,legacy,728,1366,24,768,24,0,0,1366,1645642573629,1024,2,48000,-16,experiment,p8sarr2.png,1,odd,Win32,100,121171,118157,99,100,270008,271520,265008,122692,265008,100,,,,,,visual_patterns,0,0,0,yes,1366
undefined,undefined,undefined,undefined,white,no,Mozilla,Netscape,"5.0 (Windows NT 10.0; Win64; x64) AppleWebKit/537.36 (KHTML, like Gecko) Chrome/98.0.4758.102 Safari/537.36",xpyriment,legacy,legacy,0,uniform,0,0,0,0,24,24,24,0,0,12,12,12,12,12,0,12,0,,,,,,0,,23-01-22,23-01-22,19:54:55,Wed Feb 23 2022 19:54:55 GMT+0100 (közép-európai téli idő),The main experiment item,yes,0,0,C:/Users/rrics/Documents/!!ResearchBMECOGSCI/gnet,0,0,0,prototype4.png,no,mono,no,18,no,black,no,no,768,1125,3.5.6,legacy,xpyriment,osweb,1.3.13,0,space,space,space,,70370,9153,70370,,2,legacy,728,1366,24,768,24,0,0,1366,1645642573629,1024,2,48000,-16,experiment,p5sarrshacol2.png,1,odd,Win32,100,121171,118157,99,100,276542,278055,271546,122692,271546,100,,,,,,visual_patterns,0,0,0,yes,1366
undefined,undefined,undefined,undefined,white,no,Mozilla,Netscape,"5.0 (Windows NT 10.0; Win64; x64) AppleWebKit/537.36 (KHTML, like Gecko) Chrome/98.0.4758.102 Safari/537.36",xpyriment,legacy,legacy,0,uniform,0,0,0,0,24,24,24,0,0,13,13,13,13,13,0,13,0,,,,,,0,,23-01-22,23-01-22,19:54:55,Wed Feb 23 2022 19:54:55 GMT+0100 (közép-európai téli idő),The main experiment item,yes,0,0,C:/Users/rrics/Documents/!!ResearchBMECOGSCI/gnet,0,0,0,prototype4.png,no,mono,no,18,no,black,no,no,768,1125,3.5.6,legacy,xpyriment,osweb,1.3.13,0,space,space,space,,70370,9153,70370,,2,legacy,728,1366,24,768,24,0,0,1366,1645642573629,1024,2,48000,-16,experiment,p8sarr1.png,1,odd,Win32,100,121171,118157,99,100,283074,284591,278084,122692,278084,100,,,,,,visual_patterns,0,0,0,yes,1366
undefined,undefined,undefined,undefined,white,no,Mozilla,Netscape,"5.0 (Windows NT 10.0; Win64; x64) AppleWebKit/537.36 (KHTML, like Gecko) Chrome/98.0.4758.102 Safari/537.36",xpyriment,legacy,legacy,0,uniform,0,0,0,0,24,24,24,0,0,14,14,14,14,14,0,14,0,,,,,,0,,23-01-22,23-01-22,19:54:55,Wed Feb 23 2022 19:54:55 GMT+0100 (közép-európai téli idő),The main experiment item,yes,0,0,C:/Users/rrics/Documents/!!ResearchBMECOGSCI/gnet,0,0,0,prototype4.png,no,mono,no,18,no,black,no,no,768,1125,3.5.6,legacy,xpyriment,osweb,1.3.13,0,space,space,space,,70370,9153,70370,,2,legacy,728,1366,24,768,24,0,0,1366,1645642573629,1024,2,48000,-16,experiment,p3sarrcol1.png,1,odd,Win32,100,121171,118157,99,100,289612,291126,284614,122692,284614,100,,,,,,visual_patterns,0,0,0,yes,1366
undefined,undefined,undefined,undefined,white,no,Mozilla,Netscape,"5.0 (Windows NT 10.0; Win64; x64) AppleWebKit/537.36 (KHTML, like Gecko) Chrome/98.0.4758.102 Safari/537.36",xpyriment,legacy,legacy,0,uniform,0,0,0,0,24,24,24,0,0,15,15,15,15,15,0,15,0,,,,,,0,,23-01-22,23-01-22,19:54:55,Wed Feb 23 2022 19:54:55 GMT+0100 (közép-európai téli idő),The main experiment item,yes,0,0,C:/Users/rrics/Documents/!!ResearchBMECOGSCI/gnet,0,0,0,prototype4.png,no,mono,no,18,no,black,no,no,768,1125,3.5.6,legacy,xpyriment,osweb,1.3.13,0,space,space,space,,70370,9153,70370,,2,legacy,728,1366,24,768,24,0,0,1366,1645642573629,1024,2,48000,-16,experiment,prototype1.png,1,odd,Win32,100,121171,118157,99,100,296146,297662,291147,122692,291147,100,,,,,,visual_patterns,0,0,0,yes,1366
undefined,undefined,undefined,undefined,white,no,Mozilla,Netscape,"5.0 (Windows NT 10.0; Win64; x64) AppleWebKit/537.36 (KHTML, like Gecko) Chrome/98.0.4758.102 Safari/537.36",xpyriment,legacy,legacy,0,uniform,0,0,0,0,24,24,24,0,0,16,16,16,16,16,0,16,0,,,,,,0,,23-01-22,23-01-22,19:54:55,Wed Feb 23 2022 19:54:55 GMT+0100 (közép-európai téli idő),The main experiment item,yes,0,0,C:/Users/rrics/Documents/!!ResearchBMECOGSCI/gnet,0,0,0,prototype4.png,no,mono,no,18,no,black,no,no,768,1125,3.5.6,legacy,xpyriment,osweb,1.3.13,0,space,space,space,,70370,9153,70370,,2,legacy,728,1366,24,768,24,0,0,1366,1645642573629,1024,2,48000,-16,experiment,p2sarr2.png,1,odd,Win32,100,121171,118157,99,100,302714,304231,297712,122692,297712,100,,,,,,visual_patterns,0,0,0,yes,1366
undefined,undefined,undefined,undefined,white,no,Mozilla,Netscape,"5.0 (Windows NT 10.0; Win64; x64) AppleWebKit/537.36 (KHTML, like Gecko) Chrome/98.0.4758.102 Safari/537.36",xpyriment,legacy,legacy,0,uniform,0,0,0,0,24,24,24,0,0,17,17,17,17,17,0,17,0,,,,,,0,,23-01-22,23-01-22,19:54:55,Wed Feb 23 2022 19:54:55 GMT+0100 (közép-európai téli idő),The main experiment item,yes,0,0,C:/Users/rrics/Documents/!!ResearchBMECOGSCI/gnet,0,0,0,prototype4.png,no,mono,no,18,no,black,no,no,768,1125,3.5.6,legacy,xpyriment,osweb,1.3.13,0,space,space,space,,70370,9153,70370,,2,legacy,728,1366,24,768,24,0,0,1366,1645642573629,1024,2,48000,-16,experiment,p3sarrsha2.png,1,odd,Win32,100,121171,118157,99,100,309252,310766,304259,122692,304259,100,,,,,,visual_patterns,0,0,0,yes,1366
undefined,undefined,undefined,undefined,white,no,Mozilla,Netscape,"5.0 (Windows NT 10.0; Win64; x64) AppleWebKit/537.36 (KHTML, like Gecko) Chrome/98.0.4758.102 Safari/537.36",xpyriment,legacy,legacy,0,uniform,0,0,0,0,24,24,24,0,0,18,18,18,18,18,0,18,0,,,,,,0,,23-01-22,23-01-22,19:54:55,Wed Feb 23 2022 19:54:55 GMT+0100 (közép-európai téli idő),The main experiment item,yes,0,0,C:/Users/rrics/Documents/!!ResearchBMECOGSCI/gnet,0,0,0,prototype4.png,no,mono,no,18,no,black,no,no,768,1125,3.5.6,legacy,xpyriment,osweb,1.3.13,0,space,space,space,,70370,9153,70370,,2,legacy,728,1366,24,768,24,0,0,1366,1645642573629,1024,2,48000,-16,experiment,prototype4.png,1,odd,Win32,100,121171,118157,99,100,315789,317302,310786,122692,310786,100,,,,,,visual_patterns,0,0,0,yes,1366
undefined,undefined,undefined,undefined,white,no,Mozilla,Netscape,"5.0 (Windows NT 10.0; Win64; x64) AppleWebKit/537.36 (KHTML, like Gecko) Chrome/98.0.4758.102 Safari/537.36",xpyriment,legacy,legacy,0,uniform,0,0,0,0,24,24,24,0,0,19,19,19,19,19,0,19,0,,,,,,0,,23-01-22,23-01-22,19:54:55,Wed Feb 23 2022 19:54:55 GMT+0100 (közép-európai téli idő),The main experiment item,yes,0,0,C:/Users/rrics/Documents/!!ResearchBMECOGSCI/gnet,0,0,0,prototype4.png,no,mono,no,18,no,black,no,no,768,1125,3.5.6,legacy,xpyriment,osweb,1.3.13,0,space,space,space,,70370,9153,70370,,2,legacy,728,1366,24,768,24,0,0,1366,1645642573629,1024,2,48000,-16,experiment,p3sarrsha1.png,1,odd,Win32,100,121171,118157,99,100,322325,323837,317329,122692,317329,100,,,,,,visual_patterns,0,0,0,yes,1366
undefined,undefined,undefined,undefined,white,no,Mozilla,Netscape,"5.0 (Windows NT 10.0; Win64; x64) AppleWebKit/537.36 (KHTML, like Gecko) Chrome/98.0.4758.102 Safari/537.36",xpyriment,legacy,legacy,0,uniform,0,0,0,0,24,24,24,0,0,20,20,20,20,20,0,20,0,,,,,,0,,23-01-22,23-01-22,19:54:55,Wed Feb 23 2022 19:54:55 GMT+0100 (közép-európai téli idő),The main experiment item,yes,0,0,C:/Users/rrics/Documents/!!ResearchBMECOGSCI/gnet,0,0,0,prototype4.png,no,mono,no,18,no,black,no,no,768,1125,3.5.6,legacy,xpyriment,osweb,1.3.13,0,space,space,space,,70370,9153,70370,,2,legacy,728,1366,24,768,24,0,0,1366,1645642573629,1024,2,48000,-16,experiment,prototype2.png,1,odd,Win32,100,121171,118157,99,100,328855,330356,323857,122692,323857,100,,,,,,visual_patterns,0,0,0,yes,1366
undefined,undefined,undefined,undefined,white,no,Mozilla,Netscape,"5.0 (Windows NT 10.0; Win64; x64) AppleWebKit/537.36 (KHTML, like Gecko) Chrome/98.0.4758.102 Safari/537.36",xpyriment,legacy,legacy,0,uniform,0,0,0,0,24,24,24,0,0,21,21,21,21,21,0,21,0,,,,,,0,,23-01-22,23-01-22,19:54:55,Wed Feb 23 2022 19:54:55 GMT+0100 (közép-európai téli idő),The main experiment item,yes,0,0,C:/Users/rrics/Documents/!!ResearchBMECOGSCI/gnet,0,0,0,prototype4.png,no,mono,no,18,no,black,no,no,768,1125,3.5.6,legacy,xpyriment,osweb,1.3.13,0,space,space,space,,70370,9153,70370,,2,legacy,728,1366,24,768,24,0,0,1366,1645642573629,1024,2,48000,-16,experiment,p4sarrcol2.png,1,odd,Win32,100,121171,118157,99,100,335375,336892,330380,122692,330380,100,,,,,,visual_patterns,0,0,0,yes,1366
undefined,undefined,undefined,undefined,white,no,Mozilla,Netscape,"5.0 (Windows NT 10.0; Win64; x64) AppleWebKit/537.36 (KHTML, like Gecko) Chrome/98.0.4758.102 Safari/537.36",xpyriment,legacy,legacy,0,uniform,0,0,0,0,24,24,24,0,0,22,22,22,22,22,0,22,0,,,,,,0,,23-01-22,23-01-22,19:54:55,Wed Feb 23 2022 19:54:55 GMT+0100 (közép-európai téli idő),The main experiment item,yes,0,0,C:/Users/rrics/Documents/!!ResearchBMECOGSCI/gnet,0,0,0,prototype4.png,no,mono,no,18,no,black,no,no,768,1125,3.5.6,legacy,xpyriment,osweb,1.3.13,0,space,space,space,,70370,9153,70370,,2,legacy,728,1366,24,768,24,0,0,1366,1645642573629,1024,2,48000,-16,experiment,p5sarrshacol1.png,1,odd,Win32,100,121171,118157,99,100,341912,343427,336919,122692,336919,100,,,,,,visual_patterns,0,0,0,yes,1366
undefined,undefined,undefined,undefined,white,no,Mozilla,Netscape,"5.0 (Windows NT 10.0; Win64; x64) AppleWebKit/537.36 (KHTML, like Gecko) Chrome/98.0.4758.102 Safari/537.36",xpyriment,legacy,legacy,0,uniform,0,0,0,0,24,24,24,0,0,23,23,23,23,23,0,23,0,,,,,,0,,23-01-22,23-01-22,19:54:55,Wed Feb 23 2022 19:54:55 GMT+0100 (közép-európai téli idő),The main experiment item,yes,0,0,C:/Users/rrics/Documents/!!ResearchBMECOGSCI/gnet,0,0,0,prototype4.png,no,mono,no,18,no,black,no,no,768,1125,3.5.6,legacy,xpyriment,osweb,1.3.13,0,space,space,space,,70370,9153,70370,,2,legacy,728,1366,24,768,24,0,0,1366,1645642573629,1024,2,48000,-16,experiment,prototype2.png,1,odd,Win32,100,121171,118157,99,100,348448,349963,343448,122692,343448,100,,,,,,visual_patterns,0,0,0,yes,1366
undefined,undefined,undefined,undefined,white,no,Mozilla,Netscape,"5.0 (Windows NT 10.0; Win64; x64) AppleWebKit/537.36 (KHTML, like Gecko) Chrome/98.0.4758.102 Safari/537.36",xpyriment,legacy,legacy,0,uniform,0,0,0,0,24,24,24,0,0,24,24,24,24,24,0,24,0,,,,,,0,,23-01-22,23-01-22,19:54:55,Wed Feb 23 2022 19:54:55 GMT+0100 (közép-európai téli idő),The main experiment item,yes,0,0,C:/Users/rrics/Documents/!!ResearchBMECOGSCI/gnet,0,0,0,prototype4.png,no,mono,no,18,no,black,no,no,768,1125,3.5.6,legacy,xpyriment,osweb,1.3.13,0,space,space,space,,70370,9153,70370,,2,legacy,728,1366,24,768,24,0,0,1366,1645642573629,1024,2,48000,-16,experiment,p4sarrsha2.png,1,odd,Win32,100,121171,118157,99,100,354983,356498,349986,122692,349986,100,,,,,,visual_patterns,0,0,0,yes,1366
undefined,undefined,undefined,undefined,white,no,Mozilla,Netscape,"5.0 (Windows NT 10.0; Win64; x64) AppleWebKit/537.36 (KHTML, like Gecko) Chrome/98.0.4758.102 Safari/537.36",xpyriment,legacy,legacy,0,uniform,0,0,0,0,24,24,24,0,0,25,25,25,25,25,0,25,0,,,,,,0,,23-01-22,23-01-22,19:54:55,Wed Feb 23 2022 19:54:55 GMT+0100 (közép-európai téli idő),The main experiment item,yes,0,0,C:/Users/rrics/Documents/!!ResearchBMECOGSCI/gnet,0,0,0,prototype4.png,no,mono,no,18,no,black,no,no,768,1125,3.5.6,legacy,xpyriment,osweb,1.3.13,0,space,space,space,,70370,9153,70370,,2,legacy,728,1366,24,768,24,0,0,1366,1645642573629,1024,2,48000,-16,experiment,p9sarr1.png,1,odd,Win32,100,121171,118157,99,100,361518,363033,356523,122692,356523,100,,,,,,visual_patterns,0,0,0,yes,1366
undefined,undefined,undefined,undefined,white,no,Mozilla,Netscape,"5.0 (Windows NT 10.0; Win64; x64) AppleWebKit/537.36 (KHTML, like Gecko) Chrome/98.0.4758.102 Safari/537.36",xpyriment,legacy,legacy,0,uniform,0,0,0,0,24,24,24,0,0,26,26,26,26,26,0,26,0,,,,,,0,,23-01-22,23-01-22,19:54:55,Wed Feb 23 2022 19:54:55 GMT+0100 (közép-európai téli idő),The main experiment item,yes,0,0,C:/Users/rrics/Documents/!!ResearchBMECOGSCI/gnet,0,0,0,prototype4.png,no,mono,no,18,no,black,no,no,768,1125,3.5.6,legacy,xpyriment,osweb,1.3.13,0,space,space,space,,70370,9153,70370,,2,legacy,728,1366,24,768,24,0,0,1366,1645642573629,1024,2,48000,-16,experiment,prototype1.png,1,odd,Win32,100,121171,118157,99,100,368054,369568,363051,122692,363051,100,,,,,,visual_patterns,0,0,0,yes,1366
undefined,undefined,undefined,undefined,white,no,Mozilla,Netscape,"5.0 (Windows NT 10.0; Win64; x64) AppleWebKit/537.36 (KHTML, like Gecko) Chrome/98.0.4758.102 Safari/537.36",xpyriment,legacy,legacy,0,uniform,0,0,0,0,24,24,24,0,0,27,27,27,27,27,0,27,0,,,,,,0,,23-01-22,23-01-22,19:54:55,Wed Feb 23 2022 19:54:55 GMT+0100 (közép-európai téli idő),The main experiment item,yes,0,0,C:/Users/rrics/Documents/!!ResearchBMECOGSCI/gnet,0,0,0,prototype4.png,no,mono,no,18,no,black,no,no,768,1125,3.5.6,legacy,xpyriment,osweb,1.3.13,0,space,space,space,,70370,9153,70370,,2,legacy,728,1366,24,768,24,0,0,1366,1645642573629,1024,2,48000,-16,experiment,p4sarrcol1.png,1,odd,Win32,100,121171,118157,99,100,374573,376088,369575,122692,369575,100,,,,,,visual_patterns,0,0,0,yes,1366
undefined,undefined,undefined,undefined,white,no,Mozilla,Netscape,"5.0 (Windows NT 10.0; Win64; x64) AppleWebKit/537.36 (KHTML, like Gecko) Chrome/98.0.4758.102 Safari/537.36",xpyriment,legacy,legacy,0,uniform,0,0,0,0,24,24,24,0,0,28,28,28,28,28,0,28,0,,,,,,0,,23-01-22,23-01-22,19:54:55,Wed Feb 23 2022 19:54:55 GMT+0100 (közép-európai téli idő),The main experiment item,yes,0,0,C:/Users/rrics/Documents/!!ResearchBMECOGSCI/gnet,0,0,0,prototype4.png,no,mono,no,18,no,black,no,no,768,1125,3.5.6,legacy,xpyriment,osweb,1.3.13,0,space,space,space,,70370,9153,70370,,2,legacy,728,1366,24,768,24,0,0,1366,1645642573629,1024,2,48000,-16,experiment,prototype4.png,1,odd,Win32,100,121171,118157,99,100,381111,382624,376109,122692,376109,100,,,,,,visual_patterns,0,0,0,yes,1366
undefined,undefined,undefined,undefined,white,no,Mozilla,Netscape,"5.0 (Windows NT 10.0; Win64; x64) AppleWebKit/537.36 (KHTML, like Gecko) Chrome/98.0.4758.102 Safari/537.36",xpyriment,legacy,legacy,0,uniform,0,0,0,0,24,24,24,0,0,29,29,29,29,29,0,29,0,,,,,,0,,23-01-22,23-01-22,19:54:55,Wed Feb 23 2022 19:54:55 GMT+0100 (közép-európai téli idő),The main experiment item,yes,0,0,C:/Users/rrics/Documents/!!ResearchBMECOGSCI/gnet,0,0,0,prototype4.png,no,mono,no,18,no,black,no,no,768,1125,3.5.6,legacy,xpyriment,osweb,1.3.13,0,space,space,space,,70370,9153,70370,,2,legacy,728,1366,24,768,24,0,0,1366,1645642573629,1024,2,48000,-16,experiment,prototype5.png,1,odd,Win32,100,121171,118157,99,100,387644,389159,382644,122692,382644,100,,,,,,visual_patterns,0,0,0,yes,1366
undefined,undefined,undefined,undefined,white,no,Mozilla,Netscape,"5.0 (Windows NT 10.0; Win64; x64) AppleWebKit/537.36 (KHTML, like Gecko) Chrome/98.0.4758.102 Safari/537.36",xpyriment,legacy,legacy,0,uniform,0,0,0,0,24,24,24,0,0,30,30,30,30,30,0,30,0,,,,,,0,,23-01-22,23-01-22,19:54:55,Wed Feb 23 2022 19:54:55 GMT+0100 (közép-európai téli idő),The main experiment item,yes,0,0,C:/Users/rrics/Documents/!!ResearchBMECOGSCI/gnet,0,0,0,prototype4.png,no,mono,no,18,no,black,no,no,768,1125,3.5.6,legacy,xpyriment,osweb,1.3.13,0,space,space,space,,70370,9153,70370,,2,legacy,728,1366,24,768,24,0,0,1366,1645642573629,1024,2,48000,-16,experiment,p5sarrcol2.png,1,odd,Win32,100,121171,118157,99,100,394177,395678,389180,122692,389180,100,,,,,,visual_patterns,0,0,0,yes,1366
undefined,undefined,undefined,undefined,white,no,Mozilla,Netscape,"5.0 (Windows NT 10.0; Win64; x64) AppleWebKit/537.36 (KHTML, like Gecko) Chrome/98.0.4758.102 Safari/537.36",xpyriment,legacy,legacy,0,uniform,0,0,0,0,24,24,24,0,0,31,31,31,31,31,0,31,0,,,,,,0,,23-01-22,23-01-22,19:54:55,Wed Feb 23 2022 19:54:55 GMT+0100 (közép-európai téli idő),The main experiment item,yes,0,0,C:/Users/rrics/Documents/!!ResearchBMECOGSCI/gnet,0,0,0,prototype4.png,no,mono,no,18,no,black,no,no,768,1125,3.5.6,legacy,xpyriment,osweb,1.3.13,0,space,space,space,,70370,9153,70370,,2,legacy,728,1366,24,768,24,0,0,1366,1645642573629,1024,2,48000,-16,experiment,p2sarrsha2.png,1,odd,Win32,100,121171,118157,99,100,400699,402214,395702,122692,395702,100,,,,,,visual_patterns,0,0,0,yes,1366
undefined,undefined,undefined,undefined,white,no,Mozilla,Netscape,"5.0 (Windows NT 10.0; Win64; x64) AppleWebKit/537.36 (KHTML, like Gecko) Chrome/98.0.4758.102 Safari/537.36",xpyriment,legacy,legacy,0,uniform,0,0,0,0,24,24,24,0,0,32,32,32,32,32,0,32,0,,,,,,0,,23-01-22,23-01-22,19:54:55,Wed Feb 23 2022 19:54:55 GMT+0100 (közép-európai téli idő),The main experiment item,yes,0,0,C:/Users/rrics/Documents/!!ResearchBMECOGSCI/gnet,0,0,0,prototype4.png,no,mono,no,18,no,black,no,no,768,1125,3.5.6,legacy,xpyriment,osweb,1.3.13,0,space,space,space,,70370,9153,70370,,2,legacy,728,1366,24,768,24,0,0,1366,1645642573629,1024,2,48000,-16,experiment,p5sarr1.png,1,odd,Win32,100,121171,118157,99,100,407239,408749,402241,122692,402241,100,,,,,,visual_patterns,0,0,0,yes,1366
undefined,undefined,undefined,undefined,white,no,Mozilla,Netscape,"5.0 (Windows NT 10.0; Win64; x64) AppleWebKit/537.36 (KHTML, like Gecko) Chrome/98.0.4758.102 Safari/537.36",xpyriment,legacy,legacy,0,uniform,0,0,0,0,24,24,24,0,0,33,33,33,33,33,0,33,0,,,,,,0,,23-01-22,23-01-22,19:54:55,Wed Feb 23 2022 19:54:55 GMT+0100 (közép-európai téli idő),The main experiment item,yes,0,0,C:/Users/rrics/Documents/!!ResearchBMECOGSCI/gnet,0,0,0,prototype4.png,no,mono,no,18,no,black,no,no,768,1125,3.5.6,legacy,xpyriment,osweb,1.3.13,0,space,space,space,,70370,9153,70370,,2,legacy,728,1366,24,768,24,0,0,1366,1645642573629,1024,2,48000,-16,experiment,p3sarrshacol1.png,1,odd,Win32,100,121171,118157,99,100,413772,415285,408771,122692,408771,100,,,,,,visual_patterns,0,0,0,yes,1366
undefined,undefined,undefined,undefined,white,no,Mozilla,Netscape,"5.0 (Windows NT 10.0; Win64; x64) AppleWebKit/537.36 (KHTML, like Gecko) Chrome/98.0.4758.102 Safari/537.36",xpyriment,legacy,legacy,0,uniform,0,0,0,0,24,24,24,0,0,34,34,34,34,34,0,34,0,,,,,,0,,23-01-22,23-01-22,19:54:55,Wed Feb 23 2022 19:54:55 GMT+0100 (közép-európai téli idő),The main experiment item,yes,0,0,C:/Users/rrics/Documents/!!ResearchBMECOGSCI/gnet,0,0,0,prototype4.png,no,mono,no,18,no,black,no,no,768,1125,3.5.6,legacy,xpyriment,osweb,1.3.13,0,space,space,space,,70370,9153,70370,,2,legacy,728,1366,24,768,24,0,0,1366,1645642573629,1024,2,48000,-16,experiment,prototype1.png,1,odd,Win32,100,121171,118157,99,100,420307,421820,415306,122692,415306,100,,,,,,visual_patterns,0,0,0,yes,1366
undefined,undefined,undefined,undefined,white,no,Mozilla,Netscape,"5.0 (Windows NT 10.0; Win64; x64) AppleWebKit/537.36 (KHTML, like Gecko) Chrome/98.0.4758.102 Safari/537.36",xpyriment,legacy,legacy,0,uniform,0,0,0,0,24,24,24,0,0,35,35,35,35,35,0,35,0,,,,,,0,,23-01-22,23-01-22,19:54:55,Wed Feb 23 2022 19:54:55 GMT+0100 (közép-európai téli idő),The main experiment item,yes,0,0,C:/Users/rrics/Documents/!!ResearchBMECOGSCI/gnet,0,0,0,prototype4.png,no,mono,no,18,no,black,no,no,768,1125,3.5.6,legacy,xpyriment,osweb,1.3.13,0,space,space,space,,70370,9153,70370,,2,legacy,728,1366,24,768,24,0,0,1366,1645642573629,1024,2,48000,-16,experiment,p4sarrshacol1.png,1,odd,Win32,100,121171,118157,99,100,426840,428356,421848,122692,421848,100,,,,,,visual_patterns,0,0,0,yes,1366
undefined,undefined,undefined,undefined,white,no,Mozilla,Netscape,"5.0 (Windows NT 10.0; Win64; x64) AppleWebKit/537.36 (KHTML, like Gecko) Chrome/98.0.4758.102 Safari/537.36",xpyriment,legacy,legacy,0,uniform,0,0,0,0,24,24,24,0,0,36,36,36,36,36,0,36,0,,,,,,0,,23-01-22,23-01-22,19:54:55,Wed Feb 23 2022 19:54:55 GMT+0100 (közép-európai téli idő),The main experiment item,yes,0,0,C:/Users/rrics/Documents/!!ResearchBMECOGSCI/gnet,0,0,0,prototype4.png,no,mono,no,18,no,black,no,no,768,1125,3.5.6,legacy,xpyriment,osweb,1.3.13,0,space,space,space,,70370,9153,70370,,2,legacy,728,1366,24,768,24,0,0,1366,1645642573629,1024,2,48000,-16,experiment,prototype3.png,1,odd,Win32,100,121171,118157,99,100,433374,434891,428374,122692,428374,100,,,,,,visual_patterns,0,0,0,yes,1366
undefined,undefined,undefined,undefined,white,no,Mozilla,Netscape,"5.0 (Windows NT 10.0; Win64; x64) AppleWebKit/537.36 (KHTML, like Gecko) Chrome/98.0.4758.102 Safari/537.36",xpyriment,legacy,legacy,0,uniform,0,0,0,0,24,24,24,0,0,37,37,37,37,37,0,37,0,,,,,,0,,23-01-22,23-01-22,19:54:55,Wed Feb 23 2022 19:54:55 GMT+0100 (közép-európai téli idő),The main experiment item,yes,0,0,C:/Users/rrics/Documents/!!ResearchBMECOGSCI/gnet,0,0,0,prototype4.png,no,mono,no,18,no,black,no,no,768,1125,3.5.6,legacy,xpyriment,osweb,1.3.13,0,space,space,space,,70370,9153,70370,,2,legacy,728,1366,24,768,24,0,0,1366,1645642573629,1024,2,48000,-16,experiment,prototype3.png,1,odd,Win32,100,121171,118157,99,100,439916,441427,434915,122692,434915,100,,,,,,visual_patterns,0,0,0,yes,1366
undefined,undefined,undefined,undefined,white,no,Mozilla,Netscape,"5.0 (Windows NT 10.0; Win64; x64) AppleWebKit/537.36 (KHTML, like Gecko) Chrome/98.0.4758.102 Safari/537.36",xpyriment,legacy,legacy,0,uniform,0,0,0,0,24,24,24,0,0,38,38,38,38,38,0,38,0,,,,,,0,,23-01-22,23-01-22,19:54:55,Wed Feb 23 2022 19:54:55 GMT+0100 (közép-európai téli idő),The main experiment item,yes,0,0,C:/Users/rrics/Documents/!!ResearchBMECOGSCI/gnet,0,0,0,prototype4.png,no,mono,no,18,no,black,no,no,768,1125,3.5.6,legacy,xpyriment,osweb,1.3.13,0,space,space,space,,70370,9153,70370,,2,legacy,728,1366,24,768,24,0,0,1366,1645642573629,1024,2,48000,-16,experiment,p7sarr1.png,1,odd,Win32,100,121171,118157,99,100,446443,447946,441452,122692,441452,100,,,,,,visual_patterns,0,0,0,yes,1366
undefined,undefined,undefined,undefined,white,no,Mozilla,Netscape,"5.0 (Windows NT 10.0; Win64; x64) AppleWebKit/537.36 (KHTML, like Gecko) Chrome/98.0.4758.102 Safari/537.36",xpyriment,legacy,legacy,0,uniform,0,0,0,0,24,24,24,0,0,39,39,39,39,39,0,39,0,,,,,,0,,23-01-22,23-01-22,19:54:55,Wed Feb 23 2022 19:54:55 GMT+0100 (közép-európai téli idő),The main experiment item,yes,0,0,C:/Users/rrics/Documents/!!ResearchBMECOGSCI/gnet,0,0,0,prototype4.png,no,mono,no,18,no,black,no,no,768,1125,3.5.6,legacy,xpyriment,osweb,1.3.13,0,space,space,space,,70370,9153,70370,,2,legacy,728,1366,24,768,24,0,0,1366,1645642573629,1024,2,48000,-16,experiment,p1sarrsha1.png,1,odd,Win32,100,121171,118157,99,100,452968,454481,447972,122692,447972,100,,,,,,visual_patterns,0,0,0,yes,1366
undefined,undefined,undefined,undefined,white,no,Mozilla,Netscape,"5.0 (Windows NT 10.0; Win64; x64) AppleWebKit/537.36 (KHTML, like Gecko) Chrome/98.0.4758.102 Safari/537.36",xpyriment,legacy,legacy,0,uniform,0,0,0,0,24,24,24,0,0,40,40,40,40,40,0,40,0,,,,,,0,,23-01-22,23-01-22,19:54:55,Wed Feb 23 2022 19:54:55 GMT+0100 (közép-európai téli idő),The main experiment item,yes,0,0,C:/Users/rrics/Documents/!!ResearchBMECOGSCI/gnet,0,0,0,prototype4.png,no,mono,no,18,no,black,no,no,768,1125,3.5.6,legacy,xpyriment,osweb,1.3.13,0,space,space,space,,70370,9153,70370,,2,legacy,728,1366,24,768,24,0,0,1366,1645642573629,1024,2,48000,-16,experiment,prototype5.png,1,odd,Win32,100,121171,118157,99,100,459497,461000,454500,122692,454500,100,,,,,,visual_patterns,0,0,0,yes,1366
undefined,undefined,undefined,undefined,white,no,Mozilla,Netscape,"5.0 (Windows NT 10.0; Win64; x64) AppleWebKit/537.36 (KHTML, like Gecko) Chrome/98.0.4758.102 Safari/537.36",xpyriment,legacy,legacy,0,uniform,0,0,0,0,24,24,24,0,0,41,41,41,41,41,0,41,0,,,,,,0,,23-01-22,23-01-22,19:54:55,Wed Feb 23 2022 19:54:55 GMT+0100 (közép-európai téli idő),The main experiment item,yes,0,0,C:/Users/rrics/Documents/!!ResearchBMECOGSCI/gnet,0,0,0,prototype4.png,no,mono,no,18,no,black,no,no,768,1125,3.5.6,legacy,xpyriment,osweb,1.3.13,0,space,space,space,,70370,9153,70370,,2,legacy,728,1366,24,768,24,0,0,1366,1645642573629,1024,2,48000,-16,experiment,p3sarrshacol2.png,1,odd,Win32,100,121171,118157,99,100,466019,467534,461025,122692,461025,100,,,,,,visual_patterns,0,0,0,yes,1366
undefined,undefined,undefined,undefined,white,no,Mozilla,Netscape,"5.0 (Windows NT 10.0; Win64; x64) AppleWebKit/537.36 (KHTML, like Gecko) Chrome/98.0.4758.102 Safari/537.36",xpyriment,legacy,legacy,0,uniform,0,0,0,0,24,24,24,0,0,42,42,42,42,42,0,42,0,,,,,,0,,23-01-22,23-01-22,19:54:55,Wed Feb 23 2022 19:54:55 GMT+0100 (közép-európai téli idő),The main experiment item,yes,0,0,C:/Users/rrics/Documents/!!ResearchBMECOGSCI/gnet,0,0,0,prototype4.png,no,mono,no,18,no,black,no,no,768,1125,3.5.6,legacy,xpyriment,osweb,1.3.13,0,space,space,space,,70370,9153,70370,,2,legacy,728,1366,24,768,24,0,0,1366,1645642573629,1024,2,48000,-16,experiment,p3sarrcol2.png,1,odd,Win32,100,121171,118157,99,100,472543,474054,467541,122692,467541,100,,,,,,visual_patterns,0,0,0,yes,1366
undefined,undefined,undefined,undefined,white,no,Mozilla,Netscape,"5.0 (Windows NT 10.0; Win64; x64) AppleWebKit/537.36 (KHTML, like Gecko) Chrome/98.0.4758.102 Safari/537.36",xpyriment,legacy,legacy,0,uniform,0,0,0,0,24,24,24,0,0,43,43,43,43,43,0,43,0,,,,,,0,,23-01-22,23-01-22,19:54:55,Wed Feb 23 2022 19:54:55 GMT+0100 (közép-európai téli idő),The main experiment item,yes,0,0,C:/Users/rrics/Documents/!!ResearchBMECOGSCI/gnet,0,0,0,prototype4.png,no,mono,no,18,no,black,no,no,768,1125,3.5.6,legacy,xpyriment,osweb,1.3.13,0,space,space,space,,70370,9153,70370,,2,legacy,728,1366,24,768,24,0,0,1366,1645642573629,1024,2,48000,-16,experiment,p3sarr2.png,1,odd,Win32,100,121171,118157,99,100,479075,480590,474078,122692,474078,100,,,,,,visual_patterns,0,0,0,yes,1366
undefined,undefined,undefined,undefined,white,no,Mozilla,Netscape,"5.0 (Windows NT 10.0; Win64; x64) AppleWebKit/537.36 (KHTML, like Gecko) Chrome/98.0.4758.102 Safari/537.36",xpyriment,legacy,legacy,0,uniform,0,0,0,0,24,24,24,0,0,44,44,44,44,44,0,44,0,,,,,,0,,23-01-22,23-01-22,19:54:55,Wed Feb 23 2022 19:54:55 GMT+0100 (közép-európai téli idő),The main experiment item,yes,0,0,C:/Users/rrics/Documents/!!ResearchBMECOGSCI/gnet,0,0,0,prototype4.png,no,mono,no,18,no,black,no,no,768,1125,3.5.6,legacy,xpyriment,osweb,1.3.13,0,space,space,space,,70370,9153,70370,,2,legacy,728,1366,24,768,24,0,0,1366,1645642573629,1024,2,48000,-16,experiment,p2sarrsha1.png,1,odd,Win32,100,121171,118157,99,100,485608,487109,480614,122692,480614,100,,,,,,visual_patterns,0,0,0,yes,1366
undefined,undefined,undefined,undefined,white,no,Mozilla,Netscape,"5.0 (Windows NT 10.0; Win64; x64) AppleWebKit/537.36 (KHTML, like Gecko) Chrome/98.0.4758.102 Safari/537.36",xpyriment,legacy,legacy,0,uniform,0,0,0,0,24,24,24,0,0,45,45,45,45,45,0,45,0,,,,,,0,,23-01-22,23-01-22,19:54:55,Wed Feb 23 2022 19:54:55 GMT+0100 (közép-európai téli idő),The main experiment item,yes,0,0,C:/Users/rrics/Documents/!!ResearchBMECOGSCI/gnet,0,0,0,prototype4.png,no,mono,no,18,no,black,no,no,768,1125,3.5.6,legacy,xpyriment,osweb,1.3.13,0,space,space,space,,70370,9153,70370,,2,legacy,728,1366,24,768,24,0,0,1366,1645642573629,1024,2,48000,-16,experiment,p4sarrsha1.png,1,odd,Win32,100,121171,118157,99,100,492128,493644,487138,122692,487138,100,,,,,,visual_patterns,0,0,0,yes,1366
undefined,undefined,undefined,undefined,white,no,Mozilla,Netscape,"5.0 (Windows NT 10.0; Win64; x64) AppleWebKit/537.36 (KHTML, like Gecko) Chrome/98.0.4758.102 Safari/537.36",xpyriment,legacy,legacy,0,uniform,0,0,0,0,24,24,24,0,0,46,46,46,46,46,0,46,0,,,,,,0,,23-01-22,23-01-22,19:54:55,Wed Feb 23 2022 19:54:55 GMT+0100 (közép-európai téli idő),The main experiment item,yes,0,0,C:/Users/rrics/Documents/!!ResearchBMECOGSCI/gnet,0,0,0,prototype4.png,no,mono,no,18,no,black,no,no,768,1125,3.5.6,legacy,xpyriment,osweb,1.3.13,0,space,space,space,,70370,9153,70370,,2,legacy,728,1366,24,768,24,0,0,1366,1645642573629,1024,2,48000,-16,experiment,p1sarrcol1.png,1,odd,Win32,100,121171,118157,99,100,498667,500181,493668,122692,493668,100,,,,,,visual_patterns,0,0,0,yes,1366
undefined,undefined,undefined,undefined,white,no,Mozilla,Netscape,"5.0 (Windows NT 10.0; Win64; x64) AppleWebKit/537.36 (KHTML, like Gecko) Chrome/98.0.4758.102 Safari/537.36",xpyriment,legacy,legacy,0,uniform,0,0,0,0,24,24,24,0,0,47,47,47,47,47,0,47,0,,,,,,0,,23-01-22,23-01-22,19:54:55,Wed Feb 23 2022 19:54:55 GMT+0100 (közép-európai téli idő),The main experiment item,yes,0,0,C:/Users/rrics/Documents/!!ResearchBMECOGSCI/gnet,0,0,0,prototype4.png,no,mono,no,18,no,black,no,no,768,1125,3.5.6,legacy,xpyriment,osweb,1.3.13,0,space,space,space,,70370,9153,70370,,2,legacy,728,1366,24,768,24,0,0,1366,1645642573629,1024,2,48000,-16,experiment,p1sarrsha2.png,1,odd,Win32,100,121171,118157,99,100,505209,506716,500209,122692,500209,100,,,,,,visual_patterns,0,0,0,yes,1366
undefined,undefined,undefined,undefined,white,no,Mozilla,Netscape,"5.0 (Windows NT 10.0; Win64; x64) AppleWebKit/537.36 (KHTML, like Gecko) Chrome/98.0.4758.102 Safari/537.36",xpyriment,legacy,legacy,0,uniform,0,0,0,0,24,24,24,0,0,48,48,48,48,48,0,48,0,,,,,,0,,23-01-22,23-01-22,19:54:55,Wed Feb 23 2022 19:54:55 GMT+0100 (közép-európai téli idő),The main experiment item,yes,0,0,C:/Users/rrics/Documents/!!ResearchBMECOGSCI/gnet,0,0,0,prototype4.png,no,mono,no,18,no,black,no,no,768,1125,3.5.6,legacy,xpyriment,osweb,1.3.13,0,space,space,space,,70370,9153,70370,,2,legacy,728,1366,24,768,24,0,0,1366,1645642573629,1024,2,48000,-16,experiment,p7sarr2.png,1,odd,Win32,100,121171,118157,99,100,511732,513234,506741,122692,506741,100,,,,,,visual_patterns,0,0,0,yes,1366
undefined,undefined,undefined,undefined,white,no,Mozilla,Netscape,"5.0 (Windows NT 10.0; Win64; x64) AppleWebKit/537.36 (KHTML, like Gecko) Chrome/98.0.4758.102 Safari/537.36",xpyriment,legacy,legacy,0,uniform,0,0,0,0,24,24,24,0,0,49,49,49,49,49,0,49,0,,,,,,0,,23-01-22,23-01-22,19:54:55,Wed Feb 23 2022 19:54:55 GMT+0100 (közép-európai téli idő),The main experiment item,yes,0,0,C:/Users/rrics/Documents/!!ResearchBMECOGSCI/gnet,0,0,0,prototype4.png,no,mono,no,18,no,black,no,no,768,1125,3.5.6,legacy,xpyriment,osweb,1.3.13,0,space,space,space,,70370,9153,70370,,2,legacy,728,1366,24,768,24,0,0,1366,1645642573629,1024,2,48000,-16,experiment,p4sarr1.png,1,odd,Win32,100,121171,118157,99,100,518257,519770,513259,122692,513259,100,,,,,,visual_patterns,0,0,0,yes,1366
undefined,undefined,undefined,undefined,white,no,Mozilla,Netscape,"5.0 (Windows NT 10.0; Win64; x64) AppleWebKit/537.36 (KHTML, like Gecko) Chrome/98.0.4758.102 Safari/537.36",xpyriment,legacy,legacy,0,uniform,0,0,0,0,24,24,24,0,0,50,50,50,50,50,0,50,0,,,,,,0,,23-01-22,23-01-22,19:54:55,Wed Feb 23 2022 19:54:55 GMT+0100 (közép-európai téli idő),The main experiment item,yes,0,0,C:/Users/rrics/Documents/!!ResearchBMECOGSCI/gnet,0,0,0,prototype4.png,no,mono,no,18,no,black,no,no,768,1125,3.5.6,legacy,xpyriment,osweb,1.3.13,0,space,space,space,,70370,9153,70370,,2,legacy,728,1366,24,768,24,0,0,1366,1645642573629,1024,2,48000,-16,experiment,p10sarr1.png,1,odd,Win32,100,121171,118157,99,100,524792,526305,519795,122692,519795,100,,,,,,visual_patterns,0,0,0,yes,1366
undefined,undefined,undefined,undefined,white,no,Mozilla,Netscape,"5.0 (Windows NT 10.0; Win64; x64) AppleWebKit/537.36 (KHTML, like Gecko) Chrome/98.0.4758.102 Safari/537.36",xpyriment,legacy,legacy,0,uniform,0,0,0,0,24,24,24,0,0,51,51,51,51,51,0,51,0,,,,,,0,,23-01-22,23-01-22,19:54:55,Wed Feb 23 2022 19:54:55 GMT+0100 (közép-európai téli idő),The main experiment item,yes,0,0,C:/Users/rrics/Documents/!!ResearchBMECOGSCI/gnet,0,0,0,prototype4.png,no,mono,no,18,no,black,no,no,768,1125,3.5.6,legacy,xpyriment,osweb,1.3.13,0,space,space,space,,70370,9153,70370,,2,legacy,728,1366,24,768,24,0,0,1366,1645642573629,1024,2,48000,-16,experiment,prototype3.png,1,odd,Win32,100,121171,118157,99,100,531326,532841,526326,122692,526326,100,,,,,,visual_patterns,0,0,0,yes,1366
undefined,undefined,undefined,undefined,white,no,Mozilla,Netscape,"5.0 (Windows NT 10.0; Win64; x64) AppleWebKit/537.36 (KHTML, like Gecko) Chrome/98.0.4758.102 Safari/537.36",xpyriment,legacy,legacy,0,uniform,0,0,0,0,24,24,24,0,0,52,52,52,52,52,0,52,0,,,,,,0,,23-01-22,23-01-22,19:54:55,Wed Feb 23 2022 19:54:55 GMT+0100 (közép-európai téli idő),The main experiment item,yes,0,0,C:/Users/rrics/Documents/!!ResearchBMECOGSCI/gnet,0,0,0,prototype4.png,no,mono,no,18,no,black,no,no,768,1125,3.5.6,legacy,xpyriment,osweb,1.3.13,0,space,space,space,,70370,9153,70370,,2,legacy,728,1366,24,768,24,0,0,1366,1645642573629,1024,2,48000,-16,experiment,p1sarr1.png,1,odd,Win32,100,121171,118157,99,100,537861,539377,532868,122692,532868,100,,,,,,visual_patterns,0,0,0,yes,1366
undefined,undefined,undefined,undefined,white,no,Mozilla,Netscape,"5.0 (Windows NT 10.0; Win64; x64) AppleWebKit/537.36 (KHTML, like Gecko) Chrome/98.0.4758.102 Safari/537.36",xpyriment,legacy,legacy,0,uniform,0,0,0,0,24,24,24,0,0,53,53,53,53,53,0,53,0,,,,,,0,,23-01-22,23-01-22,19:54:55,Wed Feb 23 2022 19:54:55 GMT+0100 (közép-európai téli idő),The main experiment item,yes,0,0,C:/Users/rrics/Documents/!!ResearchBMECOGSCI/gnet,0,0,0,prototype4.png,no,mono,no,18,no,black,no,no,768,1125,3.5.6,legacy,xpyriment,osweb,1.3.13,0,space,space,space,,70370,9153,70370,,2,legacy,728,1366,24,768,24,0,0,1366,1645642573629,1024,2,48000,-16,experiment,p1sarrcol2.png,1,odd,Win32,100,121171,118157,99,100,544399,545912,539402,122692,539402,100,,,,,,visual_patterns,0,0,0,yes,1366
undefined,undefined,undefined,undefined,white,no,Mozilla,Netscape,"5.0 (Windows NT 10.0; Win64; x64) AppleWebKit/537.36 (KHTML, like Gecko) Chrome/98.0.4758.102 Safari/537.36",xpyriment,legacy,legacy,0,uniform,0,0,0,0,24,24,24,0,0,54,54,54,54,54,0,54,0,,,,,,0,,23-01-22,23-01-22,19:54:55,Wed Feb 23 2022 19:54:55 GMT+0100 (közép-európai téli idő),The main experiment item,yes,0,0,C:/Users/rrics/Documents/!!ResearchBMECOGSCI/gnet,0,0,0,prototype4.png,no,mono,no,18,no,black,no,no,768,1125,3.5.6,legacy,xpyriment,osweb,1.3.13,0,space,space,space,,70370,9153,70370,,2,legacy,728,1366,24,768,24,0,0,1366,1645642573629,1024,2,48000,-16,experiment,p2sarrcol2.png,1,odd,Win32,100,121171,118157,99,100,550935,552448,545937,122692,545937,100,,,,,,visual_patterns,0,0,0,yes,1366
undefined,undefined,undefined,undefined,white,no,Mozilla,Netscape,"5.0 (Windows NT 10.0; Win64; x64) AppleWebKit/537.36 (KHTML, like Gecko) Chrome/98.0.4758.102 Safari/537.36",xpyriment,legacy,legacy,0,uniform,0,0,0,0,24,24,24,0,0,55,55,55,55,55,0,55,0,,,,,,0,,23-01-22,23-01-22,19:54:55,Wed Feb 23 2022 19:54:55 GMT+0100 (közép-európai téli idő),The main experiment item,yes,0,0,C:/Users/rrics/Documents/!!ResearchBMECOGSCI/gnet,0,0,0,prototype4.png,no,mono,no,18,no,black,no,no,768,1125,3.5.6,legacy,xpyriment,osweb,1.3.13,0,space,space,space,,70370,9153,70370,,2,legacy,728,1366,24,768,24,0,0,1366,1645642573629,1024,2,48000,-16,experiment,prototype4.png,1,odd,Win32,100,121171,118157,99,100,557470,558983,552467,122692,552467,100,,,,,,visual_patterns,0,0,0,yes,1366
undefined,undefined,undefined,undefined,white,no,Mozilla,Netscape,"5.0 (Windows NT 10.0; Win64; x64) AppleWebKit/537.36 (KHTML, like Gecko) Chrome/98.0.4758.102 Safari/537.36",xpyriment,legacy,legacy,0,uniform,0,0,0,0,24,24,24,0,0,56,56,56,56,56,0,56,0,,,,,,0,,23-01-22,23-01-22,19:54:55,Wed Feb 23 2022 19:54:55 GMT+0100 (közép-európai téli idő),The main experiment item,yes,0,0,C:/Users/rrics/Documents/!!ResearchBMECOGSCI/gnet,0,0,0,prototype4.png,no,mono,no,18,no,black,no,no,768,1125,3.5.6,legacy,xpyriment,osweb,1.3.13,0,space,space,space,,70370,9153,70370,,2,legacy,728,1366,24,768,24,0,0,1366,1645642573629,1024,2,48000,-16,experiment,p2sarrshacol1.png,1,odd,Win32,100,121171,118157,99,100,564035,565552,559037,122692,559037,100,,,,,,visual_patterns,0,0,0,yes,1366
undefined,undefined,undefined,undefined,white,no,Mozilla,Netscape,"5.0 (Windows NT 10.0; Win64; x64) AppleWebKit/537.36 (KHTML, like Gecko) Chrome/98.0.4758.102 Safari/537.36",xpyriment,legacy,legacy,0,uniform,0,0,0,0,24,24,24,0,0,57,57,57,57,57,0,57,0,,,,,,0,,23-01-22,23-01-22,19:54:55,Wed Feb 23 2022 19:54:55 GMT+0100 (közép-európai téli idő),The main experiment item,yes,0,0,C:/Users/rrics/Documents/!!ResearchBMECOGSCI/gnet,0,0,0,prototype4.png,no,mono,no,18,no,black,no,no,768,1125,3.5.6,legacy,xpyriment,osweb,1.3.13,0,space,space,space,,70370,9153,70370,,2,legacy,728,1366,24,768,24,0,0,1366,1645642573629,1024,2,48000,-16,experiment,prototype5.png,1,odd,Win32,100,121171,118157,99,100,570571,572087,565571,122692,565571,100,,,,,,visual_patterns,0,0,0,yes,1366
undefined,undefined,undefined,undefined,white,no,Mozilla,Netscape,"5.0 (Windows NT 10.0; Win64; x64) AppleWebKit/537.36 (KHTML, like Gecko) Chrome/98.0.4758.102 Safari/537.36",xpyriment,legacy,legacy,0,uniform,0,0,0,0,24,24,24,0,0,58,58,58,58,58,0,58,0,,,,,,0,,23-01-22,23-01-22,19:54:55,Wed Feb 23 2022 19:54:55 GMT+0100 (közép-európai téli idő),The main experiment item,yes,0,0,C:/Users/rrics/Documents/!!ResearchBMECOGSCI/gnet,0,0,0,prototype4.png,no,mono,no,18,no,black,no,no,768,1125,3.5.6,legacy,xpyriment,osweb,1.3.13,0,space,space,space,,70370,9153,70370,,2,legacy,728,1366,24,768,24,0,0,1366,1645642573629,1024,2,48000,-16,experiment,prototype2.png,1,odd,Win32,100,121171,118157,99,100,577110,578623,572107,122692,572107,100,,,,,,visual_patterns,0,0,0,yes,1366
undefined,undefined,undefined,undefined,white,no,Mozilla,Netscape,"5.0 (Windows NT 10.0; Win64; x64) AppleWebKit/537.36 (KHTML, like Gecko) Chrome/98.0.4758.102 Safari/537.36",xpyriment,legacy,legacy,0,uniform,0,0,0,0,24,24,24,0,0,59,59,59,59,59,0,59,0,,,,,,0,,23-01-22,23-01-22,19:54:55,Wed Feb 23 2022 19:54:55 GMT+0100 (közép-európai téli idő),The main experiment item,yes,0,0,C:/Users/rrics/Documents/!!ResearchBMECOGSCI/gnet,0,0,0,prototype4.png,no,mono,no,18,no,black,no,no,768,1125,3.5.6,legacy,xpyriment,osweb,1.3.13,0,space,space,space,,70370,9153,70370,,2,legacy,728,1366,24,768,24,0,0,1366,1645642573629,1024,2,48000,-16,experiment,prototype5.png,1,odd,Win32,100,121171,118157,99,100,583643,585158,578645,122692,578645,100,,,,,,visual_patterns,0,0,0,yes,1366
undefined,undefined,undefined,undefined,white,no,Mozilla,Netscape,"5.0 (Windows NT 10.0; Win64; x64) AppleWebKit/537.36 (KHTML, like Gecko) Chrome/98.0.4758.102 Safari/537.36",xpyriment,legacy,legacy,0,uniform,0,0,0,0,24,24,24,0,0,60,60,60,60,60,0,60,0,,,,,,0,,23-01-22,23-01-22,19:54:55,Wed Feb 23 2022 19:54:55 GMT+0100 (közép-európai téli idő),The main experiment item,yes,0,0,C:/Users/rrics/Documents/!!ResearchBMECOGSCI/gnet,0,0,0,prototype4.png,no,mono,no,18,no,black,no,no,768,1125,3.5.6,legacy,xpyriment,osweb,1.3.13,0,space,space,space,,70370,9153,70370,,2,legacy,728,1366,24,768,24,0,0,1366,1645642573629,1024,2,48000,-16,experiment,p1sarrshacol2.png,1,odd,Win32,100,121171,118157,99,100,590181,591694,585184,122692,585184,100,,,,,,visual_patterns,0,0,0,yes,1366
undefined,undefined,undefined,undefined,white,no,Mozilla,Netscape,"5.0 (Windows NT 10.0; Win64; x64) AppleWebKit/537.36 (KHTML, like Gecko) Chrome/98.0.4758.102 Safari/537.36",xpyriment,legacy,legacy,0,uniform,0,0,0,0,24,24,24,0,0,61,61,61,61,61,0,61,0,,,,,,0,,23-01-22,23-01-22,19:54:55,Wed Feb 23 2022 19:54:55 GMT+0100 (közép-európai téli idő),The main experiment item,yes,0,0,C:/Users/rrics/Documents/!!ResearchBMECOGSCI/gnet,0,0,0,prototype4.png,no,mono,no,18,no,black,no,no,768,1125,3.5.6,legacy,xpyriment,osweb,1.3.13,0,space,space,space,,70370,9153,70370,,2,legacy,728,1366,24,768,24,0,0,1366,1645642573629,1024,2,48000,-16,experiment,p2sarrcol1.png,1,odd,Win32,100,121171,118157,99,100,596752,598263,591751,122692,591751,100,,,,,,visual_patterns,0,0,0,yes,1366
undefined,undefined,undefined,undefined,white,no,Mozilla,Netscape,"5.0 (Windows NT 10.0; Win64; x64) AppleWebKit/537.36 (KHTML, like Gecko) Chrome/98.0.4758.102 Safari/537.36",xpyriment,legacy,legacy,0,uniform,0,0,0,0,24,24,24,0,0,62,62,62,62,62,0,62,0,,,,,,0,,23-01-22,23-01-22,19:54:55,Wed Feb 23 2022 19:54:55 GMT+0100 (közép-európai téli idő),The main experiment item,yes,0,0,C:/Users/rrics/Documents/!!ResearchBMECOGSCI/gnet,0,0,0,prototype4.png,no,mono,no,18,no,black,no,no,768,1125,3.5.6,legacy,xpyriment,osweb,1.3.13,0,space,space,space,,70370,9153,70370,,2,legacy,728,1366,24,768,24,0,0,1366,1645642573629,1024,2,48000,-16,experiment,p5sarr2.png,1,odd,Win32,100,121171,118157,99,100,603286,604798,598291,122692,598291,100,,,,,,visual_patterns,0,0,0,yes,1366
undefined,undefined,undefined,undefined,white,no,Mozilla,Netscape,"5.0 (Windows NT 10.0; Win64; x64) AppleWebKit/537.36 (KHTML, like Gecko) Chrome/98.0.4758.102 Safari/537.36",xpyriment,legacy,legacy,0,uniform,0,0,0,0,24,24,24,0,0,63,63,63,63,63,0,63,0,,,,,,0,,23-01-22,23-01-22,19:54:55,Wed Feb 23 2022 19:54:55 GMT+0100 (közép-európai téli idő),The main experiment item,yes,0,0,C:/Users/rrics/Documents/!!ResearchBMECOGSCI/gnet,0,0,0,prototype4.png,no,mono,no,18,no,black,no,no,768,1125,3.5.6,legacy,xpyriment,osweb,1.3.13,0,space,space,space,,70370,9153,70370,,2,legacy,728,1366,24,768,24,0,0,1366,1645642573629,1024,2,48000,-16,experiment,p10sarr2.png,1,odd,Win32,100,121171,118157,99,100,609823,611334,604828,122692,604828,100,,,,,,visual_patterns,0,0,0,yes,1366
undefined,undefined,undefined,undefined,white,no,Mozilla,Netscape,"5.0 (Windows NT 10.0; Win64; x64) AppleWebKit/537.36 (KHTML, like Gecko) Chrome/98.0.4758.102 Safari/537.36",xpyriment,legacy,legacy,0,uniform,0,0,0,0,24,24,24,0,0,64,64,64,64,64,0,64,0,,,,,,0,,23-01-22,23-01-22,19:54:55,Wed Feb 23 2022 19:54:55 GMT+0100 (közép-európai téli idő),The main experiment item,yes,0,0,C:/Users/rrics/Documents/!!ResearchBMECOGSCI/gnet,0,0,0,prototype4.png,no,mono,no,18,no,black,no,no,768,1125,3.5.6,legacy,xpyriment,osweb,1.3.13,0,space,space,space,,70370,9153,70370,,2,legacy,728,1366,24,768,24,0,0,1366,1645642573629,1024,2,48000,-16,experiment,prototype1.png,1,odd,Win32,100,121171,118157,99,100,616358,617869,611356,122692,611356,100,,,,,,visual_patterns,0,0,0,yes,1366
undefined,undefined,undefined,undefined,white,no,Mozilla,Netscape,"5.0 (Windows NT 10.0; Win64; x64) AppleWebKit/537.36 (KHTML, like Gecko) Chrome/98.0.4758.102 Safari/537.36",xpyriment,legacy,legacy,0,uniform,0,0,0,0,24,24,24,0,0,65,65,65,65,65,0,65,0,,,,,,0,,23-01-22,23-01-22,19:54:55,Wed Feb 23 2022 19:54:55 GMT+0100 (közép-európai téli idő),The main experiment item,yes,0,0,C:/Users/rrics/Documents/!!ResearchBMECOGSCI/gnet,0,0,0,prototype4.png,no,mono,no,18,no,black,no,no,768,1125,3.5.6,legacy,xpyriment,osweb,1.3.13,0,space,space,space,,70370,9153,70370,,2,legacy,728,1366,24,768,24,0,0,1366,1645642573629,1024,2,48000,-16,experiment,prototype4.png,1,odd,Win32,100,121171,118157,99,100,622888,624405,617888,122692,617888,100,,,,,,visual_patterns,0,0,0,yes,1366
undefined,undefined,undefined,undefined,white,no,Mozilla,Netscape,"5.0 (Windows NT 10.0; Win64; x64) AppleWebKit/537.36 (KHTML, like Gecko) Chrome/98.0.4758.102 Safari/537.36",xpyriment,legacy,legacy,0,uniform,0,0,0,0,24,24,24,0,0,66,66,66,66,66,0,66,0,,,,,,0,,23-01-22,23-01-22,19:54:55,Wed Feb 23 2022 19:54:55 GMT+0100 (közép-európai téli idő),The main experiment item,yes,0,0,C:/Users/rrics/Documents/!!ResearchBMECOGSCI/gnet,0,0,0,prototype4.png,no,mono,no,18,no,black,no,no,768,1125,3.5.6,legacy,xpyriment,osweb,1.3.13,0,space,space,space,,70370,9153,70370,,2,legacy,728,1366,24,768,24,0,0,1366,1645642573629,1024,2,48000,-16,experiment,p2sarrshacol2.png,1,odd,Win32,100,121171,118157,99,100,629455,630957,624458,122692,624458,100,,,,,,visual_patterns,0,0,0,yes,1366
undefined,undefined,undefined,undefined,white,no,Mozilla,Netscape,"5.0 (Windows NT 10.0; Win64; x64) AppleWebKit/537.36 (KHTML, like Gecko) Chrome/98.0.4758.102 Safari/537.36",xpyriment,legacy,legacy,0,uniform,0,0,0,0,24,24,24,0,0,67,67,67,67,67,0,67,0,,,,,,0,,23-01-22,23-01-22,19:54:55,Wed Feb 23 2022 19:54:55 GMT+0100 (közép-európai téli idő),The main experiment item,yes,0,0,C:/Users/rrics/Documents/!!ResearchBMECOGSCI/gnet,0,0,0,prototype4.png,no,mono,no,18,no,black,no,no,768,1125,3.5.6,legacy,xpyriment,osweb,1.3.13,0,space,space,space,,70370,9153,70370,,2,legacy,728,1366,24,768,24,0,0,1366,1645642573629,1024,2,48000,-16,experiment,p1sarr2.png,1,odd,Win32,100,121171,118157,99,100,635982,637493,630982,122692,630982,100,,,,,,visual_patterns,0,0,0,yes,1366
undefined,undefined,undefined,undefined,white,no,Mozilla,Netscape,"5.0 (Windows NT 10.0; Win64; x64) AppleWebKit/537.36 (KHTML, like Gecko) Chrome/98.0.4758.102 Safari/537.36",xpyriment,legacy,legacy,0,uniform,0,0,0,0,24,24,24,0,0,68,68,68,68,68,0,68,0,,,,,,0,,23-01-22,23-01-22,19:54:55,Wed Feb 23 2022 19:54:55 GMT+0100 (közép-európai téli idő),The main experiment item,yes,0,0,C:/Users/rrics/Documents/!!ResearchBMECOGSCI/gnet,0,0,0,prototype4.png,no,mono,no,18,no,black,no,no,768,1125,3.5.6,legacy,xpyriment,osweb,1.3.13,0,space,space,space,,70370,9153,70370,,2,legacy,728,1366,24,768,24,0,0,1366,1645642573629,1024,2,48000,-16,experiment,p6sarr2.png,1,odd,Win32,100,121171,118157,99,100,642516,644028,637517,122692,637517,100,,,,,,visual_patterns,0,0,0,yes,1366
undefined,undefined,undefined,undefined,white,no,Mozilla,Netscape,"5.0 (Windows NT 10.0; Win64; x64) AppleWebKit/537.36 (KHTML, like Gecko) Chrome/98.0.4758.102 Safari/537.36",xpyriment,legacy,legacy,0,uniform,0,0,0,0,24,24,24,0,0,69,69,69,69,69,0,69,0,,,,,,0,,23-01-22,23-01-22,19:54:55,Wed Feb 23 2022 19:54:55 GMT+0100 (közép-európai téli idő),The main experiment item,yes,0,0,C:/Users/rrics/Documents/!!ResearchBMECOGSCI/gnet,0,0,0,prototype4.png,no,mono,no,18,no,black,no,no,768,1125,3.5.6,legacy,xpyriment,osweb,1.3.13,0,space,space,space,,70370,9153,70370,,2,legacy,728,1366,24,768,24,0,0,1366,1645642573629,1024,2,48000,-16,experiment,prototype2.png,1,odd,Win32,100,121171,118157,99,100,649048,650563,644047,122692,644047,100,,,,,,visual_patterns,0,0,0,yes,1366
undefined,undefined,undefined,undefined,white,no,Mozilla,Netscape,"5.0 (Windows NT 10.0; Win64; x64) AppleWebKit/537.36 (KHTML, like Gecko) Chrome/98.0.4758.102 Safari/537.36",xpyriment,legacy,legacy,0,uniform,0,0,0,0,24,24,24,0,0,70,70,70,70,70,0,70,0,,,,,,0,,23-01-22,23-01-22,19:54:55,Wed Feb 23 2022 19:54:55 GMT+0100 (közép-európai téli idő),The main experiment item,yes,0,0,C:/Users/rrics/Documents/!!ResearchBMECOGSCI/gnet,0,0,0,prototype4.png,no,mono,no,18,no,black,no,no,768,1125,3.5.6,legacy,xpyriment,osweb,1.3.13,0,space,space,space,,70370,9153,70370,,2,legacy,728,1366,24,768,24,0,0,1366,1645642573629,1024,2,48000,-16,experiment,p1sarrshacol1.png,1,odd,Win32,100,121171,118157,99,100,655569,657083,650568,122692,650568,100,,,,,,visual_patterns,0,0,0,yes,1366
undefined,undefined,undefined,undefined,white,no,Mozilla,Netscape,"5.0 (Windows NT 10.0; Win64; x64) AppleWebKit/537.36 (KHTML, like Gecko) Chrome/98.0.4758.102 Safari/537.36",xpyriment,legacy,legacy,0,uniform,0,0,0,0,24,24,24,0,0,71,71,71,71,71,0,71,0,,,,,,0,,23-01-22,23-01-22,19:54:55,Wed Feb 23 2022 19:54:55 GMT+0100 (közép-európai téli idő),The main experiment item,yes,0,0,C:/Users/rrics/Documents/!!ResearchBMECOGSCI/gnet,0,0,0,prototype4.png,no,mono,no,18,no,black,no,no,768,1125,3.5.6,legacy,xpyriment,osweb,1.3.13,0,space,space,space,,70370,9153,70370,,2,legacy,728,1366,24,768,24,0,0,1366,1645642573629,1024,2,48000,-16,experiment,prototype1.png,1,odd,Win32,100,121171,118157,99,100,662130,663635,657128,122692,657128,100,,,,,,visual_patterns,0,0,0,yes,1366
undefined,undefined,undefined,undefined,white,no,Mozilla,Netscape,"5.0 (Windows NT 10.0; Win64; x64) AppleWebKit/537.36 (KHTML, like Gecko) Chrome/98.0.4758.102 Safari/537.36",xpyriment,legacy,legacy,0,uniform,0,0,0,0,24,24,24,0,0,72,72,72,72,72,0,72,0,,,,,,0,,23-01-22,23-01-22,19:54:55,Wed Feb 23 2022 19:54:55 GMT+0100 (közép-európai téli idő),The main experiment item,yes,0,0,C:/Users/rrics/Documents/!!ResearchBMECOGSCI/gnet,0,0,0,prototype4.png,no,mono,no,18,no,black,no,no,768,1125,3.5.6,legacy,xpyriment,osweb,1.3.13,0,space,space,space,,70370,9153,70370,,2,legacy,728,1366,24,768,24,0,0,1366,1645642573629,1024,2,48000,-16,experiment,prototype5.png,1,odd,Win32,100,121171,118157,99,100,668658,670170,663655,122692,663655,100,,,,,,visual_patterns,0,0,0,yes,1366
undefined,undefined,undefined,undefined,white,no,Mozilla,Netscape,"5.0 (Windows NT 10.0; Win64; x64) AppleWebKit/537.36 (KHTML, like Gecko) Chrome/98.0.4758.102 Safari/537.36",xpyriment,legacy,legacy,0,uniform,0,0,0,0,24,24,24,0,0,73,73,73,73,73,0,73,0,,,,,,0,,23-01-22,23-01-22,19:54:55,Wed Feb 23 2022 19:54:55 GMT+0100 (közép-európai téli idő),The main experiment item,yes,0,0,C:/Users/rrics/Documents/!!ResearchBMECOGSCI/gnet,0,0,0,prototype4.png,no,mono,no,18,no,black,no,no,768,1125,3.5.6,legacy,xpyriment,osweb,1.3.13,0,space,space,space,,70370,9153,70370,,2,legacy,728,1366,24,768,24,0,0,1366,1645642573629,1024,2,48000,-16,experiment,prototype3.png,1,odd,Win32,100,121171,118157,99,100,675187,676689,670189,122692,670189,100,,,,,,visual_patterns,0,0,0,yes,1366
undefined,undefined,undefined,undefined,white,no,Mozilla,Netscape,"5.0 (Windows NT 10.0; Win64; x64) AppleWebKit/537.36 (KHTML, like Gecko) Chrome/98.0.4758.102 Safari/537.36",xpyriment,legacy,legacy,0,uniform,0,0,0,0,24,24,24,0,0,74,74,74,74,74,0,74,0,,,,,,0,,23-01-22,23-01-22,19:54:55,Wed Feb 23 2022 19:54:55 GMT+0100 (közép-európai téli idő),The main experiment item,yes,0,0,C:/Users/rrics/Documents/!!ResearchBMECOGSCI/gnet,0,0,0,prototype4.png,no,mono,no,18,no,black,no,no,768,1125,3.5.6,legacy,xpyriment,osweb,1.3.13,0,space,space,space,,70370,9153,70370,,2,legacy,728,1366,24,768,24,0,0,1366,1645642573629,1024,2,48000,-16,experiment,prototype2.png,1,odd,Win32,100,121171,118157,99,100,681709,683225,676710,122692,676710,100,,,,,,visual_patterns,0,0,0,yes,1366
undefined,undefined,undefined,undefined,white,no,Mozilla,Netscape,"5.0 (Windows NT 10.0; Win64; x64) AppleWebKit/537.36 (KHTML, like Gecko) Chrome/98.0.4758.102 Safari/537.36",xpyriment,legacy,legacy,0,uniform,0,0,0,0,24,24,24,0,0,74,74,74,74,74,0,74,0,0,0,0,0,0,0,0,23-01-22,23-01-22,19:54:55,Wed Feb 23 2022 19:54:55 GMT+0100 (közép-európai téli idő),The main experiment item,yes,0,0,C:/Users/rrics/Documents/!!ResearchBMECOGSCI/gnet,0,0,0,prototype4.png,no,mono,no,18,no,black,no,no,768,1125,3.5.6,legacy,xpyriment,osweb,1.3.13,0,space,space,space,space,29324,9153,70370,29324,2,legacy,728,1366,24,768,24,0,0,1366,1645642573629,1024,2,48000,-16,experiment,p5sarrsha3.png,1,odd,Win32,100,121171,118157,99,100,681709,683225,676710,122692,676710,100,715584,717086,712590,683234,712590,visual_patterns,0,0,0,yes,1366
undefined,undefined,undefined,undefined,white,no,Mozilla,Netscape,"5.0 (Windows NT 10.0; Win64; x64) AppleWebKit/537.36 (KHTML, like Gecko) Chrome/98.0.4758.102 Safari/537.36",xpyriment,legacy,legacy,0,uniform,0,0,0,0,24,24,24,0,0,74,74,74,74,74,0,74,0,1,1,1,1,1,0,1,23-01-22,23-01-22,19:54:55,Wed Feb 23 2022 19:54:55 GMT+0100 (közép-európai téli idő),The main experiment item,yes,0,0,C:/Users/rrics/Documents/!!ResearchBMECOGSCI/gnet,0,0,0,prototype4.png,no,mono,no,18,no,black,no,no,768,1125,3.5.6,legacy,xpyriment,osweb,1.3.13,0,space,space,space,space,29324,9153,70370,29324,2,legacy,728,1366,24,768,24,0,0,1366,1645642573629,1024,2,48000,-16,experiment,p2sarrshacol1.png,1,odd,Win32,100,121171,118157,99,100,681709,683225,676710,122692,676710,100,720110,721621,717112,683234,717112,visual_patterns,0,0,0,yes,1366
undefined,undefined,undefined,undefined,white,no,Mozilla,Netscape,"5.0 (Windows NT 10.0; Win64; x64) AppleWebKit/537.36 (KHTML, like Gecko) Chrome/98.0.4758.102 Safari/537.36",xpyriment,legacy,legacy,0,uniform,0,0,0,0,24,24,24,0,0,74,74,74,74,74,0,74,0,2,2,2,2,2,0,2,23-01-22,23-01-22,19:54:55,Wed Feb 23 2022 19:54:55 GMT+0100 (közép-európai téli idő),The main experiment item,yes,0,0,C:/Users/rrics/Documents/!!ResearchBMECOGSCI/gnet,0,0,0,prototype4.png,no,mono,no,18,no,black,no,no,768,1125,3.5.6,legacy,xpyriment,osweb,1.3.13,0,space,space,space,space,29324,9153,70370,29324,2,legacy,728,1366,24,768,24,0,0,1366,1645642573629,1024,2,48000,-16,experiment,p4sarr4.png,1,odd,Win32,100,121171,118157,99,100,681709,683225,676710,122692,676710,100,724647,726156,721652,683234,721652,visual_patterns,0,0,0,yes,1366
undefined,undefined,undefined,undefined,white,no,Mozilla,Netscape,"5.0 (Windows NT 10.0; Win64; x64) AppleWebKit/537.36 (KHTML, like Gecko) Chrome/98.0.4758.102 Safari/537.36",xpyriment,legacy,legacy,0,uniform,0,0,0,0,24,24,24,0,0,74,74,74,74,74,0,74,0,3,3,3,3,3,0,3,23-01-22,23-01-22,19:54:55,Wed Feb 23 2022 19:54:55 GMT+0100 (közép-európai téli idő),The main experiment item,yes,0,0,C:/Users/rrics/Documents/!!ResearchBMECOGSCI/gnet,0,0,0,prototype4.png,no,mono,no,18,no,black,no,no,768,1125,3.5.6,legacy,xpyriment,osweb,1.3.13,0,space,space,space,space,29324,9153,70370,29324,2,legacy,728,1366,24,768,24,0,0,1366,1645642573629,1024,2,48000,-16,experiment,p5sarrsha2.png,1,odd,Win32,100,121171,118157,99,100,681709,683225,676710,122692,676710,100,729181,730691,726182,683234,726182,visual_patterns,0,0,0,yes,1366
undefined,undefined,undefined,undefined,white,no,Mozilla,Netscape,"5.0 (Windows NT 10.0; Win64; x64) AppleWebKit/537.36 (KHTML, like Gecko) Chrome/98.0.4758.102 Safari/537.36",xpyriment,legacy,legacy,0,uniform,0,0,0,0,24,24,24,0,0,74,74,74,74,74,0,74,0,4,4,4,4,4,0,4,23-01-22,23-01-22,19:54:55,Wed Feb 23 2022 19:54:55 GMT+0100 (közép-európai téli idő),The main experiment item,yes,0,0,C:/Users/rrics/Documents/!!ResearchBMECOGSCI/gnet,0,0,0,prototype4.png,no,mono,no,18,no,black,no,no,768,1125,3.5.6,legacy,xpyriment,osweb,1.3.13,0,space,space,space,space,29324,9153,70370,29324,2,legacy,728,1366,24,768,24,0,0,1366,1645642573629,1024,2,48000,-16,experiment,p7sarr2.png,1,odd,Win32,100,121171,118157,99,100,681709,683225,676710,122692,676710,100,733717,735226,730716,683234,730716,visual_patterns,0,0,0,yes,1366
undefined,undefined,undefined,undefined,white,no,Mozilla,Netscape,"5.0 (Windows NT 10.0; Win64; x64) AppleWebKit/537.36 (KHTML, like Gecko) Chrome/98.0.4758.102 Safari/537.36",xpyriment,legacy,legacy,0,uniform,0,0,0,0,24,24,24,0,0,74,74,74,74,74,0,74,0,5,5,5,5,5,0,5,23-01-22,23-01-22,19:54:55,Wed Feb 23 2022 19:54:55 GMT+0100 (közép-európai téli idő),The main experiment item,yes,0,0,C:/Users/rrics/Documents/!!ResearchBMECOGSCI/gnet,0,0,0,prototype4.png,no,mono,no,18,no,black,no,no,768,1125,3.5.6,legacy,xpyriment,osweb,1.3.13,0,space,space,space,space,29324,9153,70370,29324,2,legacy,728,1366,24,768,24,0,0,1366,1645642573629,1024,2,48000,-16,experiment,p1sarrsha4.png,1,odd,Win32,100,121171,118157,99,100,681709,683225,676710,122692,676710,100,738251,739760,735251,683234,735251,visual_patterns,0,0,0,yes,1366
undefined,undefined,undefined,undefined,white,no,Mozilla,Netscape,"5.0 (Windows NT 10.0; Win64; x64) AppleWebKit/537.36 (KHTML, like Gecko) Chrome/98.0.4758.102 Safari/537.36",xpyriment,legacy,legacy,0,uniform,0,0,0,0,24,24,24,0,0,74,74,74,74,74,0,74,0,6,6,6,6,6,0,6,23-01-22,23-01-22,19:54:55,Wed Feb 23 2022 19:54:55 GMT+0100 (közép-európai téli idő),The main experiment item,yes,0,0,C:/Users/rrics/Documents/!!ResearchBMECOGSCI/gnet,0,0,0,prototype4.png,no,mono,no,18,no,black,no,no,768,1125,3.5.6,legacy,xpyriment,osweb,1.3.13,0,space,space,space,space,29324,9153,70370,29324,2,legacy,728,1366,24,768,24,0,0,1366,1645642573629,1024,2,48000,-16,experiment,p3sarrcol2.png,1,odd,Win32,100,121171,118157,99,100,681709,683225,676710,122692,676710,100,742821,744329,739818,683234,739818,visual_patterns,0,0,0,yes,1366
undefined,undefined,undefined,undefined,white,no,Mozilla,Netscape,"5.0 (Windows NT 10.0; Win64; x64) AppleWebKit/537.36 (KHTML, like Gecko) Chrome/98.0.4758.102 Safari/537.36",xpyriment,legacy,legacy,0,uniform,0,0,0,0,24,24,24,0,0,74,74,74,74,74,0,74,0,7,7,7,7,7,0,7,23-01-22,23-01-22,19:54:55,Wed Feb 23 2022 19:54:55 GMT+0100 (közép-európai téli idő),The main experiment item,yes,0,0,C:/Users/rrics/Documents/!!ResearchBMECOGSCI/gnet,0,0,0,prototype4.png,no,mono,no,18,no,black,no,no,768,1125,3.5.6,legacy,xpyriment,osweb,1.3.13,0,space,space,space,space,29324,9153,70370,29324,2,legacy,728,1366,24,768,24,0,0,1366,1645642573629,1024,2,48000,-16,experiment,p3sarrcol3.png,1,odd,Win32,100,121171,118157,99,100,681709,683225,676710,122692,676710,100,747357,748864,744361,683234,744361,visual_patterns,0,0,0,yes,1366
undefined,undefined,undefined,undefined,white,no,Mozilla,Netscape,"5.0 (Windows NT 10.0; Win64; x64) AppleWebKit/537.36 (KHTML, like Gecko) Chrome/98.0.4758.102 Safari/537.36",xpyriment,legacy,legacy,0,uniform,0,0,0,0,24,24,24,0,0,74,74,74,74,74,0,74,0,8,8,8,8,8,0,8,23-01-22,23-01-22,19:54:55,Wed Feb 23 2022 19:54:55 GMT+0100 (közép-európai téli idő),The main experiment item,yes,0,0,C:/Users/rrics/Documents/!!ResearchBMECOGSCI/gnet,0,0,0,prototype4.png,no,mono,no,18,no,black,no,no,768,1125,3.5.6,legacy,xpyriment,osweb,1.3.13,0,space,space,space,space,29324,9153,70370,29324,2,legacy,728,1366,24,768,24,0,0,1366,1645642573629,1024,2,48000,-16,experiment,p1sarrsha1.png,1,odd,Win32,100,121171,118157,99,100,681709,683225,676710,122692,676710,100,751891,753397,748890,683234,748890,visual_patterns,0,0,0,yes,1366
undefined,undefined,undefined,undefined,white,no,Mozilla,Netscape,"5.0 (Windows NT 10.0; Win64; x64) AppleWebKit/537.36 (KHTML, like Gecko) Chrome/98.0.4758.102 Safari/537.36",xpyriment,legacy,legacy,0,uniform,0,0,0,0,24,24,24,0,0,74,74,74,74,74,0,74,0,9,9,9,9,9,0,9,23-01-22,23-01-22,19:54:55,Wed Feb 23 2022 19:54:55 GMT+0100 (közép-európai téli idő),The main experiment item,yes,0,0,C:/Users/rrics/Documents/!!ResearchBMECOGSCI/gnet,0,0,0,prototype4.png,no,mono,no,18,no,black,no,no,768,1125,3.5.6,legacy,xpyriment,osweb,1.3.13,0,space,space,space,space,29324,9153,70370,29324,2,legacy,728,1366,24,768,24,0,0,1366,1645642573629,1024,2,48000,-16,experiment,p4sarr1.png,1,odd,Win32,100,121171,118157,99,100,681709,683225,676710,122692,676710,100,756405,757917,753403,683234,753403,visual_patterns,0,0,0,yes,1366
undefined,undefined,undefined,undefined,white,no,Mozilla,Netscape,"5.0 (Windows NT 10.0; Win64; x64) AppleWebKit/537.36 (KHTML, like Gecko) Chrome/98.0.4758.102 Safari/537.36",xpyriment,legacy,legacy,0,uniform,0,0,0,0,24,24,24,0,0,74,74,74,74,74,0,74,0,10,10,10,10,10,0,10,23-01-22,23-01-22,19:54:55,Wed Feb 23 2022 19:54:55 GMT+0100 (közép-európai téli idő),The main experiment item,yes,0,0,C:/Users/rrics/Documents/!!ResearchBMECOGSCI/gnet,0,0,0,prototype4.png,no,mono,no,18,no,black,no,no,768,1125,3.5.6,legacy,xpyriment,osweb,1.3.13,0,space,space,space,space,29324,9153,70370,29324,2,legacy,728,1366,24,768,24,0,0,1366,1645642573629,1024,2,48000,-16,experiment,p9sarr2.png,1,odd,Win32,100,121171,118157,99,100,681709,683225,676710,122692,676710,100,760946,762451,757945,683234,757945,visual_patterns,0,0,0,yes,1366
undefined,undefined,undefined,undefined,white,no,Mozilla,Netscape,"5.0 (Windows NT 10.0; Win64; x64) AppleWebKit/537.36 (KHTML, like Gecko) Chrome/98.0.4758.102 Safari/537.36",xpyriment,legacy,legacy,0,uniform,0,0,0,0,24,24,24,0,0,74,74,74,74,74,0,74,0,11,11,11,11,11,0,11,23-01-22,23-01-22,19:54:55,Wed Feb 23 2022 19:54:55 GMT+0100 (közép-európai téli idő),The main experiment item,yes,0,0,C:/Users/rrics/Documents/!!ResearchBMECOGSCI/gnet,0,0,0,prototype4.png,no,mono,no,18,no,black,no,no,768,1125,3.5.6,legacy,xpyriment,osweb,1.3.13,0,space,space,space,space,29324,9153,70370,29324,2,legacy,728,1366,24,768,24,0,0,1366,1645642573629,1024,2,48000,-16,experiment,p1sarr2.png,1,odd,Win32,100,121171,118157,99,100,681709,683225,676710,122692,676710,100,765506,767020,762505,683234,762505,visual_patterns,0,0,0,yes,1366
undefined,undefined,undefined,undefined,white,no,Mozilla,Netscape,"5.0 (Windows NT 10.0; Win64; x64) AppleWebKit/537.36 (KHTML, like Gecko) Chrome/98.0.4758.102 Safari/537.36",xpyriment,legacy,legacy,0,uniform,0,0,0,0,24,24,24,0,0,74,74,74,74,74,0,74,0,12,12,12,12,12,0,12,23-01-22,23-01-22,19:54:55,Wed Feb 23 2022 19:54:55 GMT+0100 (közép-európai téli idő),The main experiment item,yes,0,0,C:/Users/rrics/Documents/!!ResearchBMECOGSCI/gnet,0,0,0,prototype4.png,no,mono,no,18,no,black,no,no,768,1125,3.5.6,legacy,xpyriment,osweb,1.3.13,0,space,space,space,space,29324,9153,70370,29324,2,legacy,728,1366,24,768,24,0,0,1366,1645642573629,1024,2,48000,-16,experiment,p3sarrcol4.png,1,odd,Win32,100,121171,118157,99,100,681709,683225,676710,122692,676710,100,770046,771554,767048,683234,767048,visual_patterns,0,0,0,yes,1366
undefined,undefined,undefined,undefined,white,no,Mozilla,Netscape,"5.0 (Windows NT 10.0; Win64; x64) AppleWebKit/537.36 (KHTML, like Gecko) Chrome/98.0.4758.102 Safari/537.36",xpyriment,legacy,legacy,0,uniform,0,0,0,0,24,24,24,0,0,74,74,74,74,74,0,74,0,13,13,13,13,13,0,13,23-01-22,23-01-22,19:54:55,Wed Feb 23 2022 19:54:55 GMT+0100 (közép-európai téli idő),The main experiment item,yes,0,0,C:/Users/rrics/Documents/!!ResearchBMECOGSCI/gnet,0,0,0,prototype4.png,no,mono,no,18,no,black,no,no,768,1125,3.5.6,legacy,xpyriment,osweb,1.3.13,0,space,space,space,space,29324,9153,70370,29324,2,legacy,728,1366,24,768,24,0,0,1366,1645642573629,1024,2,48000,-16,experiment,p2sarrshacol2.png,1,odd,Win32,100,121171,118157,99,100,681709,683225,676710,122692,676710,100,774578,776089,771575,683234,771575,visual_patterns,0,0,0,yes,1366
undefined,undefined,undefined,undefined,white,no,Mozilla,Netscape,"5.0 (Windows NT 10.0; Win64; x64) AppleWebKit/537.36 (KHTML, like Gecko) Chrome/98.0.4758.102 Safari/537.36",xpyriment,legacy,legacy,0,uniform,0,0,0,0,24,24,24,0,0,74,74,74,74,74,0,74,0,14,14,14,14,14,0,14,23-01-22,23-01-22,19:54:55,Wed Feb 23 2022 19:54:55 GMT+0100 (közép-európai téli idő),The main experiment item,yes,0,0,C:/Users/rrics/Documents/!!ResearchBMECOGSCI/gnet,0,0,0,prototype4.png,no,mono,no,18,no,black,no,no,768,1125,3.5.6,legacy,xpyriment,osweb,1.3.13,0,space,space,space,space,29324,9153,70370,29324,2,legacy,728,1366,24,768,24,0,0,1366,1645642573629,1024,2,48000,-16,experiment,p6sarr1.png,1,odd,Win32,100,121171,118157,99,100,681709,683225,676710,122692,676710,100,779113,780623,776114,683234,776114,visual_patterns,0,0,0,yes,1366
undefined,undefined,undefined,undefined,white,no,Mozilla,Netscape,"5.0 (Windows NT 10.0; Win64; x64) AppleWebKit/537.36 (KHTML, like Gecko) Chrome/98.0.4758.102 Safari/537.36",xpyriment,legacy,legacy,0,uniform,0,0,0,0,24,24,24,0,0,74,74,74,74,74,0,74,0,15,15,15,15,15,0,15,23-01-22,23-01-22,19:54:55,Wed Feb 23 2022 19:54:55 GMT+0100 (közép-európai téli idő),The main experiment item,yes,0,0,C:/Users/rrics/Documents/!!ResearchBMECOGSCI/gnet,0,0,0,prototype4.png,no,mono,no,18,no,black,no,no,768,1125,3.5.6,legacy,xpyriment,osweb,1.3.13,0,space,space,space,space,29324,9153,70370,29324,2,legacy,728,1366,24,768,24,0,0,1366,1645642573629,1024,2,48000,-16,experiment,p4sarrshacol3.png,1,odd,Win32,100,121171,118157,99,100,681709,683225,676710,122692,676710,100,783632,785142,780632,683234,780632,visual_patterns,0,0,0,yes,1366
undefined,undefined,undefined,undefined,white,no,Mozilla,Netscape,"5.0 (Windows NT 10.0; Win64; x64) AppleWebKit/537.36 (KHTML, like Gecko) Chrome/98.0.4758.102 Safari/537.36",xpyriment,legacy,legacy,0,uniform,0,0,0,0,24,24,24,0,0,74,74,74,74,74,0,74,0,16,16,16,16,16,0,16,23-01-22,23-01-22,19:54:55,Wed Feb 23 2022 19:54:55 GMT+0100 (közép-európai téli idő),The main experiment item,yes,0,0,C:/Users/rrics/Documents/!!ResearchBMECOGSCI/gnet,0,0,0,prototype4.png,no,mono,no,18,no,black,no,no,768,1125,3.5.6,legacy,xpyriment,osweb,1.3.13,0,space,space,space,space,29324,9153,70370,29324,2,legacy,728,1366,24,768,24,0,0,1366,1645642573629,1024,2,48000,-16,experiment,p4sarrshacol4.png,1,odd,Win32,100,121171,118157,99,100,681709,683225,676710,122692,676710,100,788194,789711,785194,683234,785194,visual_patterns,0,0,0,yes,1366
undefined,undefined,undefined,undefined,white,no,Mozilla,Netscape,"5.0 (Windows NT 10.0; Win64; x64) AppleWebKit/537.36 (KHTML, like Gecko) Chrome/98.0.4758.102 Safari/537.36",xpyriment,legacy,legacy,0,uniform,0,0,0,0,24,24,24,0,0,74,74,74,74,74,0,74,0,17,17,17,17,17,0,17,23-01-22,23-01-22,19:54:55,Wed Feb 23 2022 19:54:55 GMT+0100 (közép-európai téli idő),The main experiment item,yes,0,0,C:/Users/rrics/Documents/!!ResearchBMECOGSCI/gnet,0,0,0,prototype4.png,no,mono,no,18,no,black,no,no,768,1125,3.5.6,legacy,xpyriment,osweb,1.3.13,0,space,space,space,space,29324,9153,70370,29324,2,legacy,728,1366,24,768,24,0,0,1366,1645642573629,1024,2,48000,-16,experiment,p2sarrcol1.png,1,odd,Win32,100,121171,118157,99,100,681709,683225,676710,122692,676710,100,792734,794245,789736,683234,789736,visual_patterns,0,0,0,yes,1366
undefined,undefined,undefined,undefined,white,no,Mozilla,Netscape,"5.0 (Windows NT 10.0; Win64; x64) AppleWebKit/537.36 (KHTML, like Gecko) Chrome/98.0.4758.102 Safari/537.36",xpyriment,legacy,legacy,0,uniform,0,0,0,0,24,24,24,0,0,74,74,74,74,74,0,74,0,18,18,18,18,18,0,18,23-01-22,23-01-22,19:54:55,Wed Feb 23 2022 19:54:55 GMT+0100 (közép-európai téli idő),The main experiment item,yes,0,0,C:/Users/rrics/Documents/!!ResearchBMECOGSCI/gnet,0,0,0,prototype4.png,no,mono,no,18,no,black,no,no,768,1125,3.5.6,legacy,xpyriment,osweb,1.3.13,0,space,space,space,space,29324,9153,70370,29324,2,legacy,728,1366,24,768,24,0,0,1366,1645642573629,1024,2,48000,-16,experiment,p1sarr4.png,1,odd,Win32,100,121171,118157,99,100,681709,683225,676710,122692,676710,100,797269,798780,794276,683234,794276,visual_patterns,0,0,0,yes,1366
undefined,undefined,undefined,undefined,white,no,Mozilla,Netscape,"5.0 (Windows NT 10.0; Win64; x64) AppleWebKit/537.36 (KHTML, like Gecko) Chrome/98.0.4758.102 Safari/537.36",xpyriment,legacy,legacy,0,uniform,0,0,0,0,24,24,24,0,0,74,74,74,74,74,0,74,0,19,19,19,19,19,0,19,23-01-22,23-01-22,19:54:55,Wed Feb 23 2022 19:54:55 GMT+0100 (közép-európai téli idő),The main experiment item,yes,0,0,C:/Users/rrics/Documents/!!ResearchBMECOGSCI/gnet,0,0,0,prototype4.png,no,mono,no,18,no,black,no,no,768,1125,3.5.6,legacy,xpyriment,osweb,1.3.13,0,space,space,space,space,29324,9153,70370,29324,2,legacy,728,1366,24,768,24,0,0,1366,1645642573629,1024,2,48000,-16,experiment,p10sarr1.png,1,odd,Win32,100,121171,118157,99,100,681709,683225,676710,122692,676710,100,801807,803315,798806,683234,798806,visual_patterns,0,0,0,yes,1366
undefined,undefined,undefined,undefined,white,no,Mozilla,Netscape,"5.0 (Windows NT 10.0; Win64; x64) AppleWebKit/537.36 (KHTML, like Gecko) Chrome/98.0.4758.102 Safari/537.36",xpyriment,legacy,legacy,0,uniform,0,0,0,0,24,24,24,0,0,74,74,74,74,74,0,74,0,20,20,20,20,20,0,20,23-01-22,23-01-22,19:54:55,Wed Feb 23 2022 19:54:55 GMT+0100 (közép-európai téli idő),The main experiment item,yes,0,0,C:/Users/rrics/Documents/!!ResearchBMECOGSCI/gnet,0,0,0,prototype4.png,no,mono,no,18,no,black,no,no,768,1125,3.5.6,legacy,xpyriment,osweb,1.3.13,0,space,space,space,space,29324,9153,70370,29324,2,legacy,728,1366,24,768,24,0,0,1366,1645642573629,1024,2,48000,-16,experiment,p8sarr3.png,1,odd,Win32,100,121171,118157,99,100,681709,683225,676710,122692,676710,100,806340,807850,803345,683234,803345,visual_patterns,0,0,0,yes,1366
undefined,undefined,undefined,undefined,white,no,Mozilla,Netscape,"5.0 (Windows NT 10.0; Win64; x64) AppleWebKit/537.36 (KHTML, like Gecko) Chrome/98.0.4758.102 Safari/537.36",xpyriment,legacy,legacy,0,uniform,0,0,0,0,24,24,24,0,0,74,74,74,74,74,0,74,0,21,21,21,21,21,0,21,23-01-22,23-01-22,19:54:55,Wed Feb 23 2022 19:54:55 GMT+0100 (közép-európai téli idő),The main experiment item,yes,0,0,C:/Users/rrics/Documents/!!ResearchBMECOGSCI/gnet,0,0,0,prototype4.png,no,mono,no,18,no,black,no,no,768,1125,3.5.6,legacy,xpyriment,osweb,1.3.13,0,space,space,space,space,29324,9153,70370,29324,2,legacy,728,1366,24,768,24,0,0,1366,1645642573629,1024,2,48000,-16,experiment,p9sarr4.png,1,odd,Win32,100,121171,118157,99,100,681709,683225,676710,122692,676710,100,810873,812385,807881,683234,807881,visual_patterns,0,0,0,yes,1366
undefined,undefined,undefined,undefined,white,no,Mozilla,Netscape,"5.0 (Windows NT 10.0; Win64; x64) AppleWebKit/537.36 (KHTML, like Gecko) Chrome/98.0.4758.102 Safari/537.36",xpyriment,legacy,legacy,0,uniform,0,0,0,0,24,24,24,0,0,74,74,74,74,74,0,74,0,22,22,22,22,22,0,22,23-01-22,23-01-22,19:54:55,Wed Feb 23 2022 19:54:55 GMT+0100 (közép-európai téli idő),The main experiment item,yes,0,0,C:/Users/rrics/Documents/!!ResearchBMECOGSCI/gnet,0,0,0,prototype4.png,no,mono,no,18,no,black,no,no,768,1125,3.5.6,legacy,xpyriment,osweb,1.3.13,0,space,space,space,space,29324,9153,70370,29324,2,legacy,728,1366,24,768,24,0,0,1366,1645642573629,1024,2,48000,-16,experiment,p5sarrcol2.png,1,odd,Win32,100,121171,118157,99,100,681709,683225,676710,122692,676710,100,815411,816920,812406,683234,812406,visual_patterns,0,0,0,yes,1366
undefined,undefined,undefined,undefined,white,no,Mozilla,Netscape,"5.0 (Windows NT 10.0; Win64; x64) AppleWebKit/537.36 (KHTML, like Gecko) Chrome/98.0.4758.102 Safari/537.36",xpyriment,legacy,legacy,0,uniform,0,0,0,0,24,24,24,0,0,74,74,74,74,74,0,74,0,23,23,23,23,23,0,23,23-01-22,23-01-22,19:54:55,Wed Feb 23 2022 19:54:55 GMT+0100 (közép-európai téli idő),The main experiment item,yes,0,0,C:/Users/rrics/Documents/!!ResearchBMECOGSCI/gnet,0,0,0,prototype4.png,no,mono,no,18,no,black,no,no,768,1125,3.5.6,legacy,xpyriment,osweb,1.3.13,0,space,space,space,space,29324,9153,70370,29324,2,legacy,728,1366,24,768,24,0,0,1366,1645642573629,1024,2,48000,-16,experiment,p7sarr4.png,1,odd,Win32,100,121171,118157,99,100,681709,683225,676710,122692,676710,100,819948,821454,816952,683234,816951,visual_patterns,0,0,0,yes,1366
undefined,undefined,undefined,undefined,white,no,Mozilla,Netscape,"5.0 (Windows NT 10.0; Win64; x64) AppleWebKit/537.36 (KHTML, like Gecko) Chrome/98.0.4758.102 Safari/537.36",xpyriment,legacy,legacy,0,uniform,0,0,0,0,24,24,24,0,0,74,74,74,74,74,0,74,0,24,24,24,24,24,0,24,23-01-22,23-01-22,19:54:55,Wed Feb 23 2022 19:54:55 GMT+0100 (közép-európai téli idő),The main experiment item,yes,0,0,C:/Users/rrics/Documents/!!ResearchBMECOGSCI/gnet,0,0,0,prototype4.png,no,mono,no,18,no,black,no,no,768,1125,3.5.6,legacy,xpyriment,osweb,1.3.13,0,space,space,space,space,29324,9153,70370,29324,2,legacy,728,1366,24,768,24,0,0,1366,1645642573629,1024,2,48000,-16,experiment,p3sarrsha3.png,1,odd,Win32,100,121171,118157,99,100,681709,683225,676710,122692,676710,100,824481,825989,821485,683234,821485,visual_patterns,0,0,0,yes,1366
undefined,undefined,undefined,undefined,white,no,Mozilla,Netscape,"5.0 (Windows NT 10.0; Win64; x64) AppleWebKit/537.36 (KHTML, like Gecko) Chrome/98.0.4758.102 Safari/537.36",xpyriment,legacy,legacy,0,uniform,0,0,0,0,24,24,24,0,0,74,74,74,74,74,0,74,0,25,25,25,25,25,0,25,23-01-22,23-01-22,19:54:55,Wed Feb 23 2022 19:54:55 GMT+0100 (közép-európai téli idő),The main experiment item,yes,0,0,C:/Users/rrics/Documents/!!ResearchBMECOGSCI/gnet,0,0,0,prototype4.png,no,mono,no,18,no,black,no,no,768,1125,3.5.6,legacy,xpyriment,osweb,1.3.13,0,space,space,space,space,29324,9153,70370,29324,2,legacy,728,1366,24,768,24,0,0,1366,1645642573629,1024,2,48000,-16,experiment,p8sarr4.png,1,odd,Win32,100,121171,118157,99,100,681709,683225,676710,122692,676710,100,829017,830524,826020,683234,826020,visual_patterns,0,0,0,yes,1366
undefined,undefined,undefined,undefined,white,no,Mozilla,Netscape,"5.0 (Windows NT 10.0; Win64; x64) AppleWebKit/537.36 (KHTML, like Gecko) Chrome/98.0.4758.102 Safari/537.36",xpyriment,legacy,legacy,0,uniform,0,0,0,0,24,24,24,0,0,74,74,74,74,74,0,74,0,26,26,26,26,26,0,26,23-01-22,23-01-22,19:54:55,Wed Feb 23 2022 19:54:55 GMT+0100 (közép-európai téli idő),The main experiment item,yes,0,0,C:/Users/rrics/Documents/!!ResearchBMECOGSCI/gnet,0,0,0,prototype4.png,no,mono,no,18,no,black,no,no,768,1125,3.5.6,legacy,xpyriment,osweb,1.3.13,0,space,space,space,space,29324,9153,70370,29324,2,legacy,728,1366,24,768,24,0,0,1366,1645642573629,1024,2,48000,-16,experiment,p2sarrshacol4.png,1,odd,Win32,100,121171,118157,99,100,681709,683225,676710,122692,676710,100,833586,835093,830585,683234,830585,visual_patterns,0,0,0,yes,1366
undefined,undefined,undefined,undefined,white,no,Mozilla,Netscape,"5.0 (Windows NT 10.0; Win64; x64) AppleWebKit/537.36 (KHTML, like Gecko) Chrome/98.0.4758.102 Safari/537.36",xpyriment,legacy,legacy,0,uniform,0,0,0,0,24,24,24,0,0,74,74,74,74,74,0,74,0,27,27,27,27,27,0,27,23-01-22,23-01-22,19:54:55,Wed Feb 23 2022 19:54:55 GMT+0100 (közép-európai téli idő),The main experiment item,yes,0,0,C:/Users/rrics/Documents/!!ResearchBMECOGSCI/gnet,0,0,0,prototype4.png,no,mono,no,18,no,black,no,no,768,1125,3.5.6,legacy,xpyriment,osweb,1.3.13,0,space,space,space,space,29324,9153,70370,29324,2,legacy,728,1366,24,768,24,0,0,1366,1645642573629,1024,2,48000,-16,experiment,p4sarrshacol1.png,1,odd,Win32,100,121171,118157,99,100,681709,683225,676710,122692,676710,100,838118,839627,835117,683234,835117,visual_patterns,0,0,0,yes,1366
undefined,undefined,undefined,undefined,white,no,Mozilla,Netscape,"5.0 (Windows NT 10.0; Win64; x64) AppleWebKit/537.36 (KHTML, like Gecko) Chrome/98.0.4758.102 Safari/537.36",xpyriment,legacy,legacy,0,uniform,0,0,0,0,24,24,24,0,0,74,74,74,74,74,0,74,0,28,28,28,28,28,0,28,23-01-22,23-01-22,19:54:55,Wed Feb 23 2022 19:54:55 GMT+0100 (közép-európai téli idő),The main experiment item,yes,0,0,C:/Users/rrics/Documents/!!ResearchBMECOGSCI/gnet,0,0,0,prototype4.png,no,mono,no,18,no,black,no,no,768,1125,3.5.6,legacy,xpyriment,osweb,1.3.13,0,space,space,space,space,29324,9153,70370,29324,2,legacy,728,1366,24,768,24,0,0,1366,1645642573629,1024,2,48000,-16,experiment,p1sarrshacol3.png,1,odd,Win32,100,121171,118157,99,100,681709,683225,676710,122692,676710,100,842653,844161,839659,683234,839659,visual_patterns,0,0,0,yes,1366
undefined,undefined,undefined,undefined,white,no,Mozilla,Netscape,"5.0 (Windows NT 10.0; Win64; x64) AppleWebKit/537.36 (KHTML, like Gecko) Chrome/98.0.4758.102 Safari/537.36",xpyriment,legacy,legacy,0,uniform,0,0,0,0,24,24,24,0,0,74,74,74,74,74,0,74,0,29,29,29,29,29,0,29,23-01-22,23-01-22,19:54:55,Wed Feb 23 2022 19:54:55 GMT+0100 (közép-európai téli idő),The main experiment item,yes,0,0,C:/Users/rrics/Documents/!!ResearchBMECOGSCI/gnet,0,0,0,prototype4.png,no,mono,no,18,no,black,no,no,768,1125,3.5.6,legacy,xpyriment,osweb,1.3.13,0,space,space,space,space,29324,9153,70370,29324,2,legacy,728,1366,24,768,24,0,0,1366,1645642573629,1024,2,48000,-16,experiment,p2sarrsha1.png,1,odd,Win32,100,121171,118157,99,100,681709,683225,676710,122692,676710,100,847174,848680,844175,683234,844175,visual_patterns,0,0,0,yes,1366
undefined,undefined,undefined,undefined,white,no,Mozilla,Netscape,"5.0 (Windows NT 10.0; Win64; x64) AppleWebKit/537.36 (KHTML, like Gecko) Chrome/98.0.4758.102 Safari/537.36",xpyriment,legacy,legacy,0,uniform,0,0,0,0,24,24,24,0,0,74,74,74,74,74,0,74,0,30,30,30,30,30,0,30,23-01-22,23-01-22,19:54:55,Wed Feb 23 2022 19:54:55 GMT+0100 (közép-európai téli idő),The main experiment item,yes,0,0,C:/Users/rrics/Documents/!!ResearchBMECOGSCI/gnet,0,0,0,prototype4.png,no,mono,no,18,no,black,no,no,768,1125,3.5.6,legacy,xpyriment,osweb,1.3.13,0,space,space,space,space,29324,9153,70370,29324,2,legacy,728,1366,24,768,24,0,0,1366,1645642573629,1024,2,48000,-16,experiment,p3sarr2.png,1,odd,Win32,100,121171,118157,99,100,681709,683225,676710,122692,676710,100,851705,853215,848704,683234,848704,visual_patterns,0,0,0,yes,1366
undefined,undefined,undefined,undefined,white,no,Mozilla,Netscape,"5.0 (Windows NT 10.0; Win64; x64) AppleWebKit/537.36 (KHTML, like Gecko) Chrome/98.0.4758.102 Safari/537.36",xpyriment,legacy,legacy,0,uniform,0,0,0,0,24,24,24,0,0,74,74,74,74,74,0,74,0,31,31,31,31,31,0,31,23-01-22,23-01-22,19:54:55,Wed Feb 23 2022 19:54:55 GMT+0100 (közép-európai téli idő),The main experiment item,yes,0,0,C:/Users/rrics/Documents/!!ResearchBMECOGSCI/gnet,0,0,0,prototype4.png,no,mono,no,18,no,black,no,no,768,1125,3.5.6,legacy,xpyriment,osweb,1.3.13,0,space,space,space,space,29324,9153,70370,29324,2,legacy,728,1366,24,768,24,0,0,1366,1645642573629,1024,2,48000,-16,experiment,p3sarrshacol3.png,1,odd,Win32,100,121171,118157,99,100,681709,683225,676710,122692,676710,100,856241,857750,853241,683234,853241,visual_patterns,0,0,0,yes,1366
undefined,undefined,undefined,undefined,white,no,Mozilla,Netscape,"5.0 (Windows NT 10.0; Win64; x64) AppleWebKit/537.36 (KHTML, like Gecko) Chrome/98.0.4758.102 Safari/537.36",xpyriment,legacy,legacy,0,uniform,0,0,0,0,24,24,24,0,0,74,74,74,74,74,0,74,0,32,32,32,32,32,0,32,23-01-22,23-01-22,19:54:55,Wed Feb 23 2022 19:54:55 GMT+0100 (közép-európai téli idő),The main experiment item,yes,0,0,C:/Users/rrics/Documents/!!ResearchBMECOGSCI/gnet,0,0,0,prototype4.png,no,mono,no,18,no,black,no,no,768,1125,3.5.6,legacy,xpyriment,osweb,1.3.13,0,space,space,space,space,29324,9153,70370,29324,2,legacy,728,1366,24,768,24,0,0,1366,1645642573629,1024,2,48000,-16,experiment,p2sarrcol4.png,1,odd,Win32,100,121171,118157,99,100,681709,683225,676710,122692,676710,100,860777,862285,857781,683234,857781,visual_patterns,0,0,0,yes,1366
undefined,undefined,undefined,undefined,white,no,Mozilla,Netscape,"5.0 (Windows NT 10.0; Win64; x64) AppleWebKit/537.36 (KHTML, like Gecko) Chrome/98.0.4758.102 Safari/537.36",xpyriment,legacy,legacy,0,uniform,0,0,0,0,24,24,24,0,0,74,74,74,74,74,0,74,0,33,33,33,33,33,0,33,23-01-22,23-01-22,19:54:55,Wed Feb 23 2022 19:54:55 GMT+0100 (közép-európai téli idő),The main experiment item,yes,0,0,C:/Users/rrics/Documents/!!ResearchBMECOGSCI/gnet,0,0,0,prototype4.png,no,mono,no,18,no,black,no,no,768,1125,3.5.6,legacy,xpyriment,osweb,1.3.13,0,space,space,space,space,29324,9153,70370,29324,2,legacy,728,1366,24,768,24,0,0,1366,1645642573629,1024,2,48000,-16,experiment,p5sarrcol1.png,1,odd,Win32,100,121171,118157,99,100,681709,683225,676710,122692,676710,100,865316,866820,862321,683234,862321,visual_patterns,0,0,0,yes,1366
undefined,undefined,undefined,undefined,white,no,Mozilla,Netscape,"5.0 (Windows NT 10.0; Win64; x64) AppleWebKit/537.36 (KHTML, like Gecko) Chrome/98.0.4758.102 Safari/537.36",xpyriment,legacy,legacy,0,uniform,0,0,0,0,24,24,24,0,0,74,74,74,74,74,0,74,0,34,34,34,34,34,0,34,23-01-22,23-01-22,19:54:55,Wed Feb 23 2022 19:54:55 GMT+0100 (közép-európai téli idő),The main experiment item,yes,0,0,C:/Users/rrics/Documents/!!ResearchBMECOGSCI/gnet,0,0,0,prototype4.png,no,mono,no,18,no,black,no,no,768,1125,3.5.6,legacy,xpyriment,osweb,1.3.13,0,space,space,space,space,29324,9153,70370,29324,2,legacy,728,1366,24,768,24,0,0,1366,1645642573629,1024,2,48000,-16,experiment,p8sarr2.png,1,odd,Win32,100,121171,118157,99,100,681709,683225,676710,122692,676710,100,869844,871355,866844,683234,866844,visual_patterns,0,0,0,yes,1366
undefined,undefined,undefined,undefined,white,no,Mozilla,Netscape,"5.0 (Windows NT 10.0; Win64; x64) AppleWebKit/537.36 (KHTML, like Gecko) Chrome/98.0.4758.102 Safari/537.36",xpyriment,legacy,legacy,0,uniform,0,0,0,0,24,24,24,0,0,74,74,74,74,74,0,74,0,35,35,35,35,35,0,35,23-01-22,23-01-22,19:54:55,Wed Feb 23 2022 19:54:55 GMT+0100 (közép-európai téli idő),The main experiment item,yes,0,0,C:/Users/rrics/Documents/!!ResearchBMECOGSCI/gnet,0,0,0,prototype4.png,no,mono,no,18,no,black,no,no,768,1125,3.5.6,legacy,xpyriment,osweb,1.3.13,0,space,space,space,space,29324,9153,70370,29324,2,legacy,728,1366,24,768,24,0,0,1366,1645642573629,1024,2,48000,-16,experiment,p5sarr3.png,1,odd,Win32,100,121171,118157,99,100,681709,683225,676710,122692,676710,100,874380,875890,871384,683234,871384,visual_patterns,0,0,0,yes,1366
undefined,undefined,undefined,undefined,white,no,Mozilla,Netscape,"5.0 (Windows NT 10.0; Win64; x64) AppleWebKit/537.36 (KHTML, like Gecko) Chrome/98.0.4758.102 Safari/537.36",xpyriment,legacy,legacy,0,uniform,0,0,0,0,24,24,24,0,0,74,74,74,74,74,0,74,0,36,36,36,36,36,0,36,23-01-22,23-01-22,19:54:55,Wed Feb 23 2022 19:54:55 GMT+0100 (közép-európai téli idő),The main experiment item,yes,0,0,C:/Users/rrics/Documents/!!ResearchBMECOGSCI/gnet,0,0,0,prototype4.png,no,mono,no,18,no,black,no,no,768,1125,3.5.6,legacy,xpyriment,osweb,1.3.13,0,space,space,space,space,29324,9153,70370,29324,2,legacy,728,1366,24,768,24,0,0,1366,1645642573629,1024,2,48000,-16,experiment,p7sarr1.png,1,odd,Win32,100,121171,118157,99,100,681709,683225,676710,122692,676710,100,878918,880425,875917,683234,875917,visual_patterns,0,0,0,yes,1366
undefined,undefined,undefined,undefined,white,no,Mozilla,Netscape,"5.0 (Windows NT 10.0; Win64; x64) AppleWebKit/537.36 (KHTML, like Gecko) Chrome/98.0.4758.102 Safari/537.36",xpyriment,legacy,legacy,0,uniform,0,0,0,0,24,24,24,0,0,74,74,74,74,74,0,74,0,37,37,37,37,37,0,37,23-01-22,23-01-22,19:54:55,Wed Feb 23 2022 19:54:55 GMT+0100 (közép-európai téli idő),The main experiment item,yes,0,0,C:/Users/rrics/Documents/!!ResearchBMECOGSCI/gnet,0,0,0,prototype4.png,no,mono,no,18,no,black,no,no,768,1125,3.5.6,legacy,xpyriment,osweb,1.3.13,0,space,space,space,space,29324,9153,70370,29324,2,legacy,728,1366,24,768,24,0,0,1366,1645642573629,1024,2,48000,-16,experiment,p1sarrcol4.png,1,odd,Win32,100,121171,118157,99,100,681709,683225,676710,122692,676710,100,883448,884959,880450,683234,880450,visual_patterns,0,0,0,yes,1366
undefined,undefined,undefined,undefined,white,no,Mozilla,Netscape,"5.0 (Windows NT 10.0; Win64; x64) AppleWebKit/537.36 (KHTML, like Gecko) Chrome/98.0.4758.102 Safari/537.36",xpyriment,legacy,legacy,0,uniform,0,0,0,0,24,24,24,0,0,74,74,74,74,74,0,74,0,38,38,38,38,38,0,38,23-01-22,23-01-22,19:54:55,Wed Feb 23 2022 19:54:55 GMT+0100 (közép-európai téli idő),The main experiment item,yes,0,0,C:/Users/rrics/Documents/!!ResearchBMECOGSCI/gnet,0,0,0,prototype4.png,no,mono,no,18,no,black,no,no,768,1125,3.5.6,legacy,xpyriment,osweb,1.3.13,0,space,space,space,space,29324,9153,70370,29324,2,legacy,728,1366,24,768,24,0,0,1366,1645642573629,1024,2,48000,-16,experiment,p3sarrsha4.png,1,odd,Win32,100,121171,118157,99,100,681709,683225,676710,122692,676710,100,887987,889494,884990,683234,884990,visual_patterns,0,0,0,yes,1366
undefined,undefined,undefined,undefined,white,no,Mozilla,Netscape,"5.0 (Windows NT 10.0; Win64; x64) AppleWebKit/537.36 (KHTML, like Gecko) Chrome/98.0.4758.102 Safari/537.36",xpyriment,legacy,legacy,0,uniform,0,0,0,0,24,24,24,0,0,74,74,74,74,74,0,74,0,39,39,39,39,39,0,39,23-01-22,23-01-22,19:54:55,Wed Feb 23 2022 19:54:55 GMT+0100 (közép-európai téli idő),The main experiment item,yes,0,0,C:/Users/rrics/Documents/!!ResearchBMECOGSCI/gnet,0,0,0,prototype4.png,no,mono,no,18,no,black,no,no,768,1125,3.5.6,legacy,xpyriment,osweb,1.3.13,0,space,space,space,space,29324,9153,70370,29324,2,legacy,728,1366,24,768,24,0,0,1366,1645642573629,1024,2,48000,-16,experiment,p3sarr1.png,1,odd,Win32,100,121171,118157,99,100,681709,683225,676710,122692,676710,100,892522,894029,889520,683234,889519,visual_patterns,0,0,0,yes,1366
undefined,undefined,undefined,undefined,white,no,Mozilla,Netscape,"5.0 (Windows NT 10.0; Win64; x64) AppleWebKit/537.36 (KHTML, like Gecko) Chrome/98.0.4758.102 Safari/537.36",xpyriment,legacy,legacy,0,uniform,0,0,0,0,24,24,24,0,0,74,74,74,74,74,0,74,0,40,40,40,40,40,0,40,23-01-22,23-01-22,19:54:55,Wed Feb 23 2022 19:54:55 GMT+0100 (közép-európai téli idő),The main experiment item,yes,0,0,C:/Users/rrics/Documents/!!ResearchBMECOGSCI/gnet,0,0,0,prototype4.png,no,mono,no,18,no,black,no,no,768,1125,3.5.6,legacy,xpyriment,osweb,1.3.13,0,space,space,space,space,29324,9153,70370,29324,2,legacy,728,1366,24,768,24,0,0,1366,1645642573629,1024,2,48000,-16,experiment,p2sarrsha3.png,1,odd,Win32,100,121171,118157,99,100,681709,683225,676710,122692,676710,100,897055,898564,894058,683234,894058,visual_patterns,0,0,0,yes,1366
undefined,undefined,undefined,undefined,white,no,Mozilla,Netscape,"5.0 (Windows NT 10.0; Win64; x64) AppleWebKit/537.36 (KHTML, like Gecko) Chrome/98.0.4758.102 Safari/537.36",xpyriment,legacy,legacy,0,uniform,0,0,0,0,24,24,24,0,0,74,74,74,74,74,0,74,0,41,41,41,41,41,0,41,23-01-22,23-01-22,19:54:55,Wed Feb 23 2022 19:54:55 GMT+0100 (közép-európai téli idő),The main experiment item,yes,0,0,C:/Users/rrics/Documents/!!ResearchBMECOGSCI/gnet,0,0,0,prototype4.png,no,mono,no,18,no,black,no,no,768,1125,3.5.6,legacy,xpyriment,osweb,1.3.13,0,space,space,space,space,29324,9153,70370,29324,2,legacy,728,1366,24,768,24,0,0,1366,1645642573629,1024,2,48000,-16,experiment,p9sarr3.png,1,odd,Win32,100,121171,118157,99,100,681709,683225,676710,122692,676710,100,901590,903099,898594,683234,898594,visual_patterns,0,0,0,yes,1366
undefined,undefined,undefined,undefined,white,no,Mozilla,Netscape,"5.0 (Windows NT 10.0; Win64; x64) AppleWebKit/537.36 (KHTML, like Gecko) Chrome/98.0.4758.102 Safari/537.36",xpyriment,legacy,legacy,0,uniform,0,0,0,0,24,24,24,0,0,74,74,74,74,74,0,74,0,42,42,42,42,42,0,42,23-01-22,23-01-22,19:54:55,Wed Feb 23 2022 19:54:55 GMT+0100 (közép-európai téli idő),The main experiment item,yes,0,0,C:/Users/rrics/Documents/!!ResearchBMECOGSCI/gnet,0,0,0,prototype4.png,no,mono,no,18,no,black,no,no,768,1125,3.5.6,legacy,xpyriment,osweb,1.3.13,0,space,space,space,space,29324,9153,70370,29324,2,legacy,728,1366,24,768,24,0,0,1366,1645642573629,1024,2,48000,-16,experiment,p10sarr4.png,1,odd,Win32,100,121171,118157,99,100,681709,683225,676710,122692,676710,100,906122,907633,903128,683234,903128,visual_patterns,0,0,0,yes,1366
undefined,undefined,undefined,undefined,white,no,Mozilla,Netscape,"5.0 (Windows NT 10.0; Win64; x64) AppleWebKit/537.36 (KHTML, like Gecko) Chrome/98.0.4758.102 Safari/537.36",xpyriment,legacy,legacy,0,uniform,0,0,0,0,24,24,24,0,0,74,74,74,74,74,0,74,0,43,43,43,43,43,0,43,23-01-22,23-01-22,19:54:55,Wed Feb 23 2022 19:54:55 GMT+0100 (közép-európai téli idő),The main experiment item,yes,0,0,C:/Users/rrics/Documents/!!ResearchBMECOGSCI/gnet,0,0,0,prototype4.png,no,mono,no,18,no,black,no,no,768,1125,3.5.6,legacy,xpyriment,osweb,1.3.13,0,space,space,space,space,29324,9153,70370,29324,2,legacy,728,1366,24,768,24,0,0,1366,1645642573629,1024,2,48000,-16,experiment,p4sarrcol1.png,1,odd,Win32,100,121171,118157,99,100,681709,683225,676710,122692,676710,100,910655,912168,907655,683234,907655,visual_patterns,0,0,0,yes,1366
undefined,undefined,undefined,undefined,white,no,Mozilla,Netscape,"5.0 (Windows NT 10.0; Win64; x64) AppleWebKit/537.36 (KHTML, like Gecko) Chrome/98.0.4758.102 Safari/537.36",xpyriment,legacy,legacy,0,uniform,0,0,0,0,24,24,24,0,0,74,74,74,74,74,0,74,0,44,44,44,44,44,0,44,23-01-22,23-01-22,19:54:55,Wed Feb 23 2022 19:54:55 GMT+0100 (közép-európai téli idő),The main experiment item,yes,0,0,C:/Users/rrics/Documents/!!ResearchBMECOGSCI/gnet,0,0,0,prototype4.png,no,mono,no,18,no,black,no,no,768,1125,3.5.6,legacy,xpyriment,osweb,1.3.13,0,space,space,space,space,29324,9153,70370,29324,2,legacy,728,1366,24,768,24,0,0,1366,1645642573629,1024,2,48000,-16,experiment,p5sarrshacol4.png,1,odd,Win32,100,121171,118157,99,100,681709,683225,676710,122692,676710,100,915191,916703,912202,683234,912201,visual_patterns,0,0,0,yes,1366
undefined,undefined,undefined,undefined,white,no,Mozilla,Netscape,"5.0 (Windows NT 10.0; Win64; x64) AppleWebKit/537.36 (KHTML, like Gecko) Chrome/98.0.4758.102 Safari/537.36",xpyriment,legacy,legacy,0,uniform,0,0,0,0,24,24,24,0,0,74,74,74,74,74,0,74,0,45,45,45,45,45,0,45,23-01-22,23-01-22,19:54:55,Wed Feb 23 2022 19:54:55 GMT+0100 (közép-európai téli idő),The main experiment item,yes,0,0,C:/Users/rrics/Documents/!!ResearchBMECOGSCI/gnet,0,0,0,prototype4.png,no,mono,no,18,no,black,no,no,768,1125,3.5.6,legacy,xpyriment,osweb,1.3.13,0,space,space,space,space,29324,9153,70370,29324,2,legacy,728,1366,24,768,24,0,0,1366,1645642573629,1024,2,48000,-16,experiment,p3sarr3.png,1,odd,Win32,100,121171,118157,99,100,681709,683225,676710,122692,676710,100,919727,921238,916738,683234,916738,visual_patterns,0,0,0,yes,1366
undefined,undefined,undefined,undefined,white,no,Mozilla,Netscape,"5.0 (Windows NT 10.0; Win64; x64) AppleWebKit/537.36 (KHTML, like Gecko) Chrome/98.0.4758.102 Safari/537.36",xpyriment,legacy,legacy,0,uniform,0,0,0,0,24,24,24,0,0,74,74,74,74,74,0,74,0,46,46,46,46,46,0,46,23-01-22,23-01-22,19:54:55,Wed Feb 23 2022 19:54:55 GMT+0100 (közép-európai téli idő),The main experiment item,yes,0,0,C:/Users/rrics/Documents/!!ResearchBMECOGSCI/gnet,0,0,0,prototype4.png,no,mono,no,18,no,black,no,no,768,1125,3.5.6,legacy,xpyriment,osweb,1.3.13,0,space,space,space,space,29324,9153,70370,29324,2,legacy,728,1366,24,768,24,0,0,1366,1645642573629,1024,2,48000,-16,experiment,p2sarr3.png,1,odd,Win32,100,121171,118157,99,100,681709,683225,676710,122692,676710,100,924295,925806,921294,683234,921294,visual_patterns,0,0,0,yes,1366
undefined,undefined,undefined,undefined,white,no,Mozilla,Netscape,"5.0 (Windows NT 10.0; Win64; x64) AppleWebKit/537.36 (KHTML, like Gecko) Chrome/98.0.4758.102 Safari/537.36",xpyriment,legacy,legacy,0,uniform,0,0,0,0,24,24,24,0,0,74,74,74,74,74,0,74,0,47,47,47,47,47,0,47,23-01-22,23-01-22,19:54:55,Wed Feb 23 2022 19:54:55 GMT+0100 (közép-európai téli idő),The main experiment item,yes,0,0,C:/Users/rrics/Documents/!!ResearchBMECOGSCI/gnet,0,0,0,prototype4.png,no,mono,no,18,no,black,no,no,768,1125,3.5.6,legacy,xpyriment,osweb,1.3.13,0,space,space,space,space,29324,9153,70370,29324,2,legacy,728,1366,24,768,24,0,0,1366,1645642573629,1024,2,48000,-16,experiment,p4sarr2.png,1,odd,Win32,100,121171,118157,99,100,681709,683225,676710,122692,676710,100,928831,930341,925832,683234,925832,visual_patterns,0,0,0,yes,1366
undefined,undefined,undefined,undefined,white,no,Mozilla,Netscape,"5.0 (Windows NT 10.0; Win64; x64) AppleWebKit/537.36 (KHTML, like Gecko) Chrome/98.0.4758.102 Safari/537.36",xpyriment,legacy,legacy,0,uniform,0,0,0,0,24,24,24,0,0,74,74,74,74,74,0,74,0,48,48,48,48,48,0,48,23-01-22,23-01-22,19:54:55,Wed Feb 23 2022 19:54:55 GMT+0100 (közép-európai téli idő),The main experiment item,yes,0,0,C:/Users/rrics/Documents/!!ResearchBMECOGSCI/gnet,0,0,0,prototype4.png,no,mono,no,18,no,black,no,no,768,1125,3.5.6,legacy,xpyriment,osweb,1.3.13,0,space,space,space,space,29324,9153,70370,29324,2,legacy,728,1366,24,768,24,0,0,1366,1645642573629,1024,2,48000,-16,experiment,p2sarrshacol3.png,1,odd,Win32,100,121171,118157,99,100,681709,683225,676710,122692,676710,100,933365,934876,930372,683234,930372,visual_patterns,0,0,0,yes,1366
