acc,accuracy,average_response_time,avg_rt,background,bidi,browser_codename,browser_name,browser_version,canvas_backend,clock_backend,color_backend,compensation,coordinates,count_end,count_experiment,count_osweb,count_prestudy,count_prestudy_isi,count_prestudy_sequence,count_prestudy_stimpres,count_start,count_study,count_study_coroutines,count_study_isi,count_study_logger,count_study_response,count_study_sequence,count_study_start,count_study_stimpres,count_test,count_test_coroutines,count_test_isi,count_test_logger,count_test_response,count_test_sequence,count_test_start,count_test_stimpres,date_startdate,date_startdateUTC,date_starttime,datetime,description,disable_garbage_collection,experiment_debug,experiment_parameters,experiment_path,experiment_pilot,experiment_taskname,experiment_taskversion,fampict,font_bold,font_family,font_italic,font_size,font_underline,foreground,form_clicks,fullscreen,height,jatosStudyResultId,jatosVersion,keyboard_backend,mouse_backend,opensesame_codename,opensesame_version,repeat_cycle,response,response_start,response_study_start,response_test_start,response_time,response_time_start,response_time_study_start,response_time_test_start,round_decimals,sampler_backend,screen_availableHeight,screen_availableWidth,screen_colorDepth,screen_height,screen_pixelDepth,screen_screenX,screen_screenY,screen_width,sessionid,sound_buf_size,sound_channels,sound_freq,sound_sample_size,start,stim,subject_nr,subject_parity,system_os,time_prestudy,time_prestudy_isi,time_prestudy_stimpres,time_start,time_study,time_study_isi,time_study_logger,time_study_response,time_study_start,time_study_stimpres,time_test,time_test_isi,time_test_logger,time_test_response,time_test_start,time_test_stimpres,title,total_correct,total_response_time,total_responses,uniform_coordinates,width
undefined,undefined,undefined,undefined,white,no,Mozilla,Netscape,"5.0 (Windows NT 10.0; Win64; x64) AppleWebKit/537.36 (KHTML, like Gecko) Chrome/98.0.4758.102 Safari/537.36",xpyriment,legacy,legacy,0,uniform,0,0,0,0,24,24,24,0,0,0,0,0,0,0,0,0,0,,,,,,0,,25-01-22,25-01-22,13:27:50,Fri Feb 25 2022 13:27:50 GMT+0100 (Central European Standard Time),The main experiment item,yes,0,0,C:/Users/rrics/Documents/!!ResearchBMECOGSCI/gnet,0,0,0,prototype1.png,no,mono,no,18,no,black,no,no,768,1138,3.5.6,legacy,xpyriment,osweb,1.3.13,0,space,space,space,,19539,26668,19539,,2,legacy,680,1280,24,720,24,0,0,1280,1645792110427,1024,2,48000,-16,experiment,p6sarr1.png,0,even,Win32,116,138063,135061,116,116,164119,165624,159118,139565,159118,116,,,,,,visual_patterns,0,0,0,yes,1366
undefined,undefined,undefined,undefined,white,no,Mozilla,Netscape,"5.0 (Windows NT 10.0; Win64; x64) AppleWebKit/537.36 (KHTML, like Gecko) Chrome/98.0.4758.102 Safari/537.36",xpyriment,legacy,legacy,0,uniform,0,0,0,0,24,24,24,0,0,1,1,1,1,1,0,1,0,,,,,,0,,25-01-22,25-01-22,13:27:50,Fri Feb 25 2022 13:27:50 GMT+0100 (Central European Standard Time),The main experiment item,yes,0,0,C:/Users/rrics/Documents/!!ResearchBMECOGSCI/gnet,0,0,0,prototype1.png,no,mono,no,18,no,black,no,no,768,1138,3.5.6,legacy,xpyriment,osweb,1.3.13,0,space,space,space,,19539,26668,19539,,2,legacy,680,1280,24,720,24,0,0,1280,1645792110427,1024,2,48000,-16,experiment,prototype3.png,0,even,Win32,116,138063,135061,116,116,170633,172146,165632,139565,165632,116,,,,,,visual_patterns,0,0,0,yes,1366
undefined,undefined,undefined,undefined,white,no,Mozilla,Netscape,"5.0 (Windows NT 10.0; Win64; x64) AppleWebKit/537.36 (KHTML, like Gecko) Chrome/98.0.4758.102 Safari/537.36",xpyriment,legacy,legacy,0,uniform,0,0,0,0,24,24,24,0,0,2,2,2,2,2,0,2,0,,,,,,0,,25-01-22,25-01-22,13:27:50,Fri Feb 25 2022 13:27:50 GMT+0100 (Central European Standard Time),The main experiment item,yes,0,0,C:/Users/rrics/Documents/!!ResearchBMECOGSCI/gnet,0,0,0,prototype1.png,no,mono,no,18,no,black,no,no,768,1138,3.5.6,legacy,xpyriment,osweb,1.3.13,0,space,space,space,,19539,26668,19539,,2,legacy,680,1280,24,720,24,0,0,1280,1645792110427,1024,2,48000,-16,experiment,p3sarr1.png,0,even,Win32,116,138063,135061,116,116,177156,178669,172155,139565,172155,116,,,,,,visual_patterns,0,0,0,yes,1366
undefined,undefined,undefined,undefined,white,no,Mozilla,Netscape,"5.0 (Windows NT 10.0; Win64; x64) AppleWebKit/537.36 (KHTML, like Gecko) Chrome/98.0.4758.102 Safari/537.36",xpyriment,legacy,legacy,0,uniform,0,0,0,0,24,24,24,0,0,3,3,3,3,3,0,3,0,,,,,,0,,25-01-22,25-01-22,13:27:50,Fri Feb 25 2022 13:27:50 GMT+0100 (Central European Standard Time),The main experiment item,yes,0,0,C:/Users/rrics/Documents/!!ResearchBMECOGSCI/gnet,0,0,0,prototype1.png,no,mono,no,18,no,black,no,no,768,1138,3.5.6,legacy,xpyriment,osweb,1.3.13,0,space,space,space,,19539,26668,19539,,2,legacy,680,1280,24,720,24,0,0,1280,1645792110427,1024,2,48000,-16,experiment,p9sarr2.png,0,even,Win32,116,138063,135061,116,116,183679,185193,178678,139565,178678,116,,,,,,visual_patterns,0,0,0,yes,1366
undefined,undefined,undefined,undefined,white,no,Mozilla,Netscape,"5.0 (Windows NT 10.0; Win64; x64) AppleWebKit/537.36 (KHTML, like Gecko) Chrome/98.0.4758.102 Safari/537.36",xpyriment,legacy,legacy,0,uniform,0,0,0,0,24,24,24,0,0,4,4,4,4,4,0,4,0,,,,,,0,,25-01-22,25-01-22,13:27:50,Fri Feb 25 2022 13:27:50 GMT+0100 (Central European Standard Time),The main experiment item,yes,0,0,C:/Users/rrics/Documents/!!ResearchBMECOGSCI/gnet,0,0,0,prototype1.png,no,mono,no,18,no,black,no,no,768,1138,3.5.6,legacy,xpyriment,osweb,1.3.13,0,space,space,space,,19539,26668,19539,,2,legacy,680,1280,24,720,24,0,0,1280,1645792110427,1024,2,48000,-16,experiment,p4sarr2.png,0,even,Win32,116,138063,135061,116,116,190210,191716,185209,139565,185209,116,,,,,,visual_patterns,0,0,0,yes,1366
undefined,undefined,undefined,undefined,white,no,Mozilla,Netscape,"5.0 (Windows NT 10.0; Win64; x64) AppleWebKit/537.36 (KHTML, like Gecko) Chrome/98.0.4758.102 Safari/537.36",xpyriment,legacy,legacy,0,uniform,0,0,0,0,24,24,24,0,0,5,5,5,5,5,0,5,0,,,,,,0,,25-01-22,25-01-22,13:27:50,Fri Feb 25 2022 13:27:50 GMT+0100 (Central European Standard Time),The main experiment item,yes,0,0,C:/Users/rrics/Documents/!!ResearchBMECOGSCI/gnet,0,0,0,prototype1.png,no,mono,no,18,no,black,no,no,768,1138,3.5.6,legacy,xpyriment,osweb,1.3.13,0,space,space,space,,19539,26668,19539,,2,legacy,680,1280,24,720,24,0,0,1280,1645792110427,1024,2,48000,-16,experiment,p4sarrshacol2.png,0,even,Win32,116,138063,135061,116,116,196726,198239,191725,139565,191725,116,,,,,,visual_patterns,0,0,0,yes,1366
undefined,undefined,undefined,undefined,white,no,Mozilla,Netscape,"5.0 (Windows NT 10.0; Win64; x64) AppleWebKit/537.36 (KHTML, like Gecko) Chrome/98.0.4758.102 Safari/537.36",xpyriment,legacy,legacy,0,uniform,0,0,0,0,24,24,24,0,0,6,6,6,6,6,0,6,0,,,,,,0,,25-01-22,25-01-22,13:27:50,Fri Feb 25 2022 13:27:50 GMT+0100 (Central European Standard Time),The main experiment item,yes,0,0,C:/Users/rrics/Documents/!!ResearchBMECOGSCI/gnet,0,0,0,prototype1.png,no,mono,no,18,no,black,no,no,768,1138,3.5.6,legacy,xpyriment,osweb,1.3.13,0,space,space,space,,19539,26668,19539,,2,legacy,680,1280,24,720,24,0,0,1280,1645792110427,1024,2,48000,-16,experiment,p5sarrsha2.png,0,even,Win32,116,138063,135061,116,116,203246,204762,198247,139565,198247,116,,,,,,visual_patterns,0,0,0,yes,1366
undefined,undefined,undefined,undefined,white,no,Mozilla,Netscape,"5.0 (Windows NT 10.0; Win64; x64) AppleWebKit/537.36 (KHTML, like Gecko) Chrome/98.0.4758.102 Safari/537.36",xpyriment,legacy,legacy,0,uniform,0,0,0,0,24,24,24,0,0,7,7,7,7,7,0,7,0,,,,,,0,,25-01-22,25-01-22,13:27:50,Fri Feb 25 2022 13:27:50 GMT+0100 (Central European Standard Time),The main experiment item,yes,0,0,C:/Users/rrics/Documents/!!ResearchBMECOGSCI/gnet,0,0,0,prototype1.png,no,mono,no,18,no,black,no,no,768,1138,3.5.6,legacy,xpyriment,osweb,1.3.13,0,space,space,space,,19539,26668,19539,,2,legacy,680,1280,24,720,24,0,0,1280,1645792110427,1024,2,48000,-16,experiment,p2sarr1.png,0,even,Win32,116,138063,135061,116,116,209769,211285,204771,139565,204771,116,,,,,,visual_patterns,0,0,0,yes,1366
undefined,undefined,undefined,undefined,white,no,Mozilla,Netscape,"5.0 (Windows NT 10.0; Win64; x64) AppleWebKit/537.36 (KHTML, like Gecko) Chrome/98.0.4758.102 Safari/537.36",xpyriment,legacy,legacy,0,uniform,0,0,0,0,24,24,24,0,0,8,8,8,8,8,0,8,0,,,,,,0,,25-01-22,25-01-22,13:27:50,Fri Feb 25 2022 13:27:50 GMT+0100 (Central European Standard Time),The main experiment item,yes,0,0,C:/Users/rrics/Documents/!!ResearchBMECOGSCI/gnet,0,0,0,prototype1.png,no,mono,no,18,no,black,no,no,768,1138,3.5.6,legacy,xpyriment,osweb,1.3.13,0,space,space,space,,19539,26668,19539,,2,legacy,680,1280,24,720,24,0,0,1280,1645792110427,1024,2,48000,-16,experiment,prototype4.png,0,even,Win32,116,138063,135061,116,116,216292,217808,211292,139565,211292,116,,,,,,visual_patterns,0,0,0,yes,1366
undefined,undefined,undefined,undefined,white,no,Mozilla,Netscape,"5.0 (Windows NT 10.0; Win64; x64) AppleWebKit/537.36 (KHTML, like Gecko) Chrome/98.0.4758.102 Safari/537.36",xpyriment,legacy,legacy,0,uniform,0,0,0,0,24,24,24,0,0,9,9,9,9,9,0,9,0,,,,,,0,,25-01-22,25-01-22,13:27:50,Fri Feb 25 2022 13:27:50 GMT+0100 (Central European Standard Time),The main experiment item,yes,0,0,C:/Users/rrics/Documents/!!ResearchBMECOGSCI/gnet,0,0,0,prototype1.png,no,mono,no,18,no,black,no,no,768,1138,3.5.6,legacy,xpyriment,osweb,1.3.13,0,space,space,space,,19539,26668,19539,,2,legacy,680,1280,24,720,24,0,0,1280,1645792110427,1024,2,48000,-16,experiment,p5sarrsha1.png,0,even,Win32,116,138063,135061,116,116,222818,224332,217816,139565,217816,116,,,,,,visual_patterns,0,0,0,yes,1366
undefined,undefined,undefined,undefined,white,no,Mozilla,Netscape,"5.0 (Windows NT 10.0; Win64; x64) AppleWebKit/537.36 (KHTML, like Gecko) Chrome/98.0.4758.102 Safari/537.36",xpyriment,legacy,legacy,0,uniform,0,0,0,0,24,24,24,0,0,10,10,10,10,10,0,10,0,,,,,,0,,25-01-22,25-01-22,13:27:50,Fri Feb 25 2022 13:27:50 GMT+0100 (Central European Standard Time),The main experiment item,yes,0,0,C:/Users/rrics/Documents/!!ResearchBMECOGSCI/gnet,0,0,0,prototype1.png,no,mono,no,18,no,black,no,no,768,1138,3.5.6,legacy,xpyriment,osweb,1.3.13,0,space,space,space,,19539,26668,19539,,2,legacy,680,1280,24,720,24,0,0,1280,1645792110427,1024,2,48000,-16,experiment,p5sarrcol1.png,0,even,Win32,116,138063,135061,116,116,229342,230855,224340,139565,224340,116,,,,,,visual_patterns,0,0,0,yes,1366
undefined,undefined,undefined,undefined,white,no,Mozilla,Netscape,"5.0 (Windows NT 10.0; Win64; x64) AppleWebKit/537.36 (KHTML, like Gecko) Chrome/98.0.4758.102 Safari/537.36",xpyriment,legacy,legacy,0,uniform,0,0,0,0,24,24,24,0,0,11,11,11,11,11,0,11,0,,,,,,0,,25-01-22,25-01-22,13:27:50,Fri Feb 25 2022 13:27:50 GMT+0100 (Central European Standard Time),The main experiment item,yes,0,0,C:/Users/rrics/Documents/!!ResearchBMECOGSCI/gnet,0,0,0,prototype1.png,no,mono,no,18,no,black,no,no,768,1138,3.5.6,legacy,xpyriment,osweb,1.3.13,0,space,space,space,,19539,26668,19539,,2,legacy,680,1280,24,720,24,0,0,1280,1645792110427,1024,2,48000,-16,experiment,p8sarr2.png,0,even,Win32,116,138063,135061,116,116,235863,237378,230863,139565,230863,116,,,,,,visual_patterns,0,0,0,yes,1366
undefined,undefined,undefined,undefined,white,no,Mozilla,Netscape,"5.0 (Windows NT 10.0; Win64; x64) AppleWebKit/537.36 (KHTML, like Gecko) Chrome/98.0.4758.102 Safari/537.36",xpyriment,legacy,legacy,0,uniform,0,0,0,0,24,24,24,0,0,12,12,12,12,12,0,12,0,,,,,,0,,25-01-22,25-01-22,13:27:50,Fri Feb 25 2022 13:27:50 GMT+0100 (Central European Standard Time),The main experiment item,yes,0,0,C:/Users/rrics/Documents/!!ResearchBMECOGSCI/gnet,0,0,0,prototype1.png,no,mono,no,18,no,black,no,no,768,1138,3.5.6,legacy,xpyriment,osweb,1.3.13,0,space,space,space,,19539,26668,19539,,2,legacy,680,1280,24,720,24,0,0,1280,1645792110427,1024,2,48000,-16,experiment,p5sarrshacol2.png,0,even,Win32,116,138063,135061,116,116,242388,243901,237386,139565,237386,116,,,,,,visual_patterns,0,0,0,yes,1366
undefined,undefined,undefined,undefined,white,no,Mozilla,Netscape,"5.0 (Windows NT 10.0; Win64; x64) AppleWebKit/537.36 (KHTML, like Gecko) Chrome/98.0.4758.102 Safari/537.36",xpyriment,legacy,legacy,0,uniform,0,0,0,0,24,24,24,0,0,13,13,13,13,13,0,13,0,,,,,,0,,25-01-22,25-01-22,13:27:50,Fri Feb 25 2022 13:27:50 GMT+0100 (Central European Standard Time),The main experiment item,yes,0,0,C:/Users/rrics/Documents/!!ResearchBMECOGSCI/gnet,0,0,0,prototype1.png,no,mono,no,18,no,black,no,no,768,1138,3.5.6,legacy,xpyriment,osweb,1.3.13,0,space,space,space,,19539,26668,19539,,2,legacy,680,1280,24,720,24,0,0,1280,1645792110427,1024,2,48000,-16,experiment,p8sarr1.png,0,even,Win32,116,138063,135061,116,116,248912,250425,243910,139565,243910,116,,,,,,visual_patterns,0,0,0,yes,1366
undefined,undefined,undefined,undefined,white,no,Mozilla,Netscape,"5.0 (Windows NT 10.0; Win64; x64) AppleWebKit/537.36 (KHTML, like Gecko) Chrome/98.0.4758.102 Safari/537.36",xpyriment,legacy,legacy,0,uniform,0,0,0,0,24,24,24,0,0,14,14,14,14,14,0,14,0,,,,,,0,,25-01-22,25-01-22,13:27:50,Fri Feb 25 2022 13:27:50 GMT+0100 (Central European Standard Time),The main experiment item,yes,0,0,C:/Users/rrics/Documents/!!ResearchBMECOGSCI/gnet,0,0,0,prototype1.png,no,mono,no,18,no,black,no,no,768,1138,3.5.6,legacy,xpyriment,osweb,1.3.13,0,space,space,space,,19539,26668,19539,,2,legacy,680,1280,24,720,24,0,0,1280,1645792110427,1024,2,48000,-16,experiment,p3sarrcol1.png,0,even,Win32,116,138063,135061,116,116,255433,256948,250433,139565,250433,116,,,,,,visual_patterns,0,0,0,yes,1366
undefined,undefined,undefined,undefined,white,no,Mozilla,Netscape,"5.0 (Windows NT 10.0; Win64; x64) AppleWebKit/537.36 (KHTML, like Gecko) Chrome/98.0.4758.102 Safari/537.36",xpyriment,legacy,legacy,0,uniform,0,0,0,0,24,24,24,0,0,15,15,15,15,15,0,15,0,,,,,,0,,25-01-22,25-01-22,13:27:50,Fri Feb 25 2022 13:27:50 GMT+0100 (Central European Standard Time),The main experiment item,yes,0,0,C:/Users/rrics/Documents/!!ResearchBMECOGSCI/gnet,0,0,0,prototype1.png,no,mono,no,18,no,black,no,no,768,1138,3.5.6,legacy,xpyriment,osweb,1.3.13,0,space,space,space,,19539,26668,19539,,2,legacy,680,1280,24,720,24,0,0,1280,1645792110427,1024,2,48000,-16,experiment,prototype1.png,0,even,Win32,116,138063,135061,116,116,261956,263471,256954,139565,256954,116,,,,,,visual_patterns,0,0,0,yes,1366
undefined,undefined,undefined,undefined,white,no,Mozilla,Netscape,"5.0 (Windows NT 10.0; Win64; x64) AppleWebKit/537.36 (KHTML, like Gecko) Chrome/98.0.4758.102 Safari/537.36",xpyriment,legacy,legacy,0,uniform,0,0,0,0,24,24,24,0,0,16,16,16,16,16,0,16,0,,,,,,0,,25-01-22,25-01-22,13:27:50,Fri Feb 25 2022 13:27:50 GMT+0100 (Central European Standard Time),The main experiment item,yes,0,0,C:/Users/rrics/Documents/!!ResearchBMECOGSCI/gnet,0,0,0,prototype1.png,no,mono,no,18,no,black,no,no,768,1138,3.5.6,legacy,xpyriment,osweb,1.3.13,0,space,space,space,,19539,26668,19539,,2,legacy,680,1280,24,720,24,0,0,1280,1645792110427,1024,2,48000,-16,experiment,p2sarr2.png,0,even,Win32,116,138063,135061,116,116,268480,269994,263478,139565,263478,116,,,,,,visual_patterns,0,0,0,yes,1366
undefined,undefined,undefined,undefined,white,no,Mozilla,Netscape,"5.0 (Windows NT 10.0; Win64; x64) AppleWebKit/537.36 (KHTML, like Gecko) Chrome/98.0.4758.102 Safari/537.36",xpyriment,legacy,legacy,0,uniform,0,0,0,0,24,24,24,0,0,17,17,17,17,17,0,17,0,,,,,,0,,25-01-22,25-01-22,13:27:50,Fri Feb 25 2022 13:27:50 GMT+0100 (Central European Standard Time),The main experiment item,yes,0,0,C:/Users/rrics/Documents/!!ResearchBMECOGSCI/gnet,0,0,0,prototype1.png,no,mono,no,18,no,black,no,no,768,1138,3.5.6,legacy,xpyriment,osweb,1.3.13,0,space,space,space,,19539,26668,19539,,2,legacy,680,1280,24,720,24,0,0,1280,1645792110427,1024,2,48000,-16,experiment,p3sarrsha2.png,0,even,Win32,116,138063,135061,116,116,275002,276517,270002,139565,270002,116,,,,,,visual_patterns,0,0,0,yes,1366
undefined,undefined,undefined,undefined,white,no,Mozilla,Netscape,"5.0 (Windows NT 10.0; Win64; x64) AppleWebKit/537.36 (KHTML, like Gecko) Chrome/98.0.4758.102 Safari/537.36",xpyriment,legacy,legacy,0,uniform,0,0,0,0,24,24,24,0,0,18,18,18,18,18,0,18,0,,,,,,0,,25-01-22,25-01-22,13:27:50,Fri Feb 25 2022 13:27:50 GMT+0100 (Central European Standard Time),The main experiment item,yes,0,0,C:/Users/rrics/Documents/!!ResearchBMECOGSCI/gnet,0,0,0,prototype1.png,no,mono,no,18,no,black,no,no,768,1138,3.5.6,legacy,xpyriment,osweb,1.3.13,0,space,space,space,,19539,26668,19539,,2,legacy,680,1280,24,720,24,0,0,1280,1645792110427,1024,2,48000,-16,experiment,prototype4.png,0,even,Win32,116,138063,135061,116,116,281523,283040,276523,139565,276523,116,,,,,,visual_patterns,0,0,0,yes,1366
undefined,undefined,undefined,undefined,white,no,Mozilla,Netscape,"5.0 (Windows NT 10.0; Win64; x64) AppleWebKit/537.36 (KHTML, like Gecko) Chrome/98.0.4758.102 Safari/537.36",xpyriment,legacy,legacy,0,uniform,0,0,0,0,24,24,24,0,0,19,19,19,19,19,0,19,0,,,,,,0,,25-01-22,25-01-22,13:27:50,Fri Feb 25 2022 13:27:50 GMT+0100 (Central European Standard Time),The main experiment item,yes,0,0,C:/Users/rrics/Documents/!!ResearchBMECOGSCI/gnet,0,0,0,prototype1.png,no,mono,no,18,no,black,no,no,768,1138,3.5.6,legacy,xpyriment,osweb,1.3.13,0,space,space,space,,19539,26668,19539,,2,legacy,680,1280,24,720,24,0,0,1280,1645792110427,1024,2,48000,-16,experiment,p3sarrsha1.png,0,even,Win32,116,138063,135061,116,116,288059,289563,283058,139565,283058,116,,,,,,visual_patterns,0,0,0,yes,1366
undefined,undefined,undefined,undefined,white,no,Mozilla,Netscape,"5.0 (Windows NT 10.0; Win64; x64) AppleWebKit/537.36 (KHTML, like Gecko) Chrome/98.0.4758.102 Safari/537.36",xpyriment,legacy,legacy,0,uniform,0,0,0,0,24,24,24,0,0,20,20,20,20,20,0,20,0,,,,,,0,,25-01-22,25-01-22,13:27:50,Fri Feb 25 2022 13:27:50 GMT+0100 (Central European Standard Time),The main experiment item,yes,0,0,C:/Users/rrics/Documents/!!ResearchBMECOGSCI/gnet,0,0,0,prototype1.png,no,mono,no,18,no,black,no,no,768,1138,3.5.6,legacy,xpyriment,osweb,1.3.13,0,space,space,space,,19539,26668,19539,,2,legacy,680,1280,24,720,24,0,0,1280,1645792110427,1024,2,48000,-16,experiment,prototype2.png,0,even,Win32,116,138063,135061,116,116,294571,296087,289568,139565,289568,116,,,,,,visual_patterns,0,0,0,yes,1366
undefined,undefined,undefined,undefined,white,no,Mozilla,Netscape,"5.0 (Windows NT 10.0; Win64; x64) AppleWebKit/537.36 (KHTML, like Gecko) Chrome/98.0.4758.102 Safari/537.36",xpyriment,legacy,legacy,0,uniform,0,0,0,0,24,24,24,0,0,21,21,21,21,21,0,21,0,,,,,,0,,25-01-22,25-01-22,13:27:50,Fri Feb 25 2022 13:27:50 GMT+0100 (Central European Standard Time),The main experiment item,yes,0,0,C:/Users/rrics/Documents/!!ResearchBMECOGSCI/gnet,0,0,0,prototype1.png,no,mono,no,18,no,black,no,no,768,1138,3.5.6,legacy,xpyriment,osweb,1.3.13,0,space,space,space,,19539,26668,19539,,2,legacy,680,1280,24,720,24,0,0,1280,1645792110427,1024,2,48000,-16,experiment,p4sarrcol2.png,0,even,Win32,116,138063,135061,116,116,301095,302610,296096,139565,296096,116,,,,,,visual_patterns,0,0,0,yes,1366
undefined,undefined,undefined,undefined,white,no,Mozilla,Netscape,"5.0 (Windows NT 10.0; Win64; x64) AppleWebKit/537.36 (KHTML, like Gecko) Chrome/98.0.4758.102 Safari/537.36",xpyriment,legacy,legacy,0,uniform,0,0,0,0,24,24,24,0,0,22,22,22,22,22,0,22,0,,,,,,0,,25-01-22,25-01-22,13:27:50,Fri Feb 25 2022 13:27:50 GMT+0100 (Central European Standard Time),The main experiment item,yes,0,0,C:/Users/rrics/Documents/!!ResearchBMECOGSCI/gnet,0,0,0,prototype1.png,no,mono,no,18,no,black,no,no,768,1138,3.5.6,legacy,xpyriment,osweb,1.3.13,0,space,space,space,,19539,26668,19539,,2,legacy,680,1280,24,720,24,0,0,1280,1645792110427,1024,2,48000,-16,experiment,p5sarrshacol1.png,0,even,Win32,116,138063,135061,116,116,307619,309133,302618,139565,302618,116,,,,,,visual_patterns,0,0,0,yes,1366
undefined,undefined,undefined,undefined,white,no,Mozilla,Netscape,"5.0 (Windows NT 10.0; Win64; x64) AppleWebKit/537.36 (KHTML, like Gecko) Chrome/98.0.4758.102 Safari/537.36",xpyriment,legacy,legacy,0,uniform,0,0,0,0,24,24,24,0,0,23,23,23,23,23,0,23,0,,,,,,0,,25-01-22,25-01-22,13:27:50,Fri Feb 25 2022 13:27:50 GMT+0100 (Central European Standard Time),The main experiment item,yes,0,0,C:/Users/rrics/Documents/!!ResearchBMECOGSCI/gnet,0,0,0,prototype1.png,no,mono,no,18,no,black,no,no,768,1138,3.5.6,legacy,xpyriment,osweb,1.3.13,0,space,space,space,,19539,26668,19539,,2,legacy,680,1280,24,720,24,0,0,1280,1645792110427,1024,2,48000,-16,experiment,prototype2.png,0,even,Win32,116,138063,135061,116,116,314142,315656,309140,139565,309140,116,,,,,,visual_patterns,0,0,0,yes,1366
undefined,undefined,undefined,undefined,white,no,Mozilla,Netscape,"5.0 (Windows NT 10.0; Win64; x64) AppleWebKit/537.36 (KHTML, like Gecko) Chrome/98.0.4758.102 Safari/537.36",xpyriment,legacy,legacy,0,uniform,0,0,0,0,24,24,24,0,0,24,24,24,24,24,0,24,0,,,,,,0,,25-01-22,25-01-22,13:27:50,Fri Feb 25 2022 13:27:50 GMT+0100 (Central European Standard Time),The main experiment item,yes,0,0,C:/Users/rrics/Documents/!!ResearchBMECOGSCI/gnet,0,0,0,prototype1.png,no,mono,no,18,no,black,no,no,768,1138,3.5.6,legacy,xpyriment,osweb,1.3.13,0,space,space,space,,19539,26668,19539,,2,legacy,680,1280,24,720,24,0,0,1280,1645792110427,1024,2,48000,-16,experiment,p4sarrsha2.png,0,even,Win32,116,138063,135061,116,116,320665,322179,315664,139565,315664,116,,,,,,visual_patterns,0,0,0,yes,1366
undefined,undefined,undefined,undefined,white,no,Mozilla,Netscape,"5.0 (Windows NT 10.0; Win64; x64) AppleWebKit/537.36 (KHTML, like Gecko) Chrome/98.0.4758.102 Safari/537.36",xpyriment,legacy,legacy,0,uniform,0,0,0,0,24,24,24,0,0,25,25,25,25,25,0,25,0,,,,,,0,,25-01-22,25-01-22,13:27:50,Fri Feb 25 2022 13:27:50 GMT+0100 (Central European Standard Time),The main experiment item,yes,0,0,C:/Users/rrics/Documents/!!ResearchBMECOGSCI/gnet,0,0,0,prototype1.png,no,mono,no,18,no,black,no,no,768,1138,3.5.6,legacy,xpyriment,osweb,1.3.13,0,space,space,space,,19539,26668,19539,,2,legacy,680,1280,24,720,24,0,0,1280,1645792110427,1024,2,48000,-16,experiment,p9sarr1.png,0,even,Win32,116,138063,135061,116,116,327189,328703,322187,139565,322187,116,,,,,,visual_patterns,0,0,0,yes,1366
undefined,undefined,undefined,undefined,white,no,Mozilla,Netscape,"5.0 (Windows NT 10.0; Win64; x64) AppleWebKit/537.36 (KHTML, like Gecko) Chrome/98.0.4758.102 Safari/537.36",xpyriment,legacy,legacy,0,uniform,0,0,0,0,24,24,24,0,0,26,26,26,26,26,0,26,0,,,,,,0,,25-01-22,25-01-22,13:27:50,Fri Feb 25 2022 13:27:50 GMT+0100 (Central European Standard Time),The main experiment item,yes,0,0,C:/Users/rrics/Documents/!!ResearchBMECOGSCI/gnet,0,0,0,prototype1.png,no,mono,no,18,no,black,no,no,768,1138,3.5.6,legacy,xpyriment,osweb,1.3.13,0,space,space,space,,19539,26668,19539,,2,legacy,680,1280,24,720,24,0,0,1280,1645792110427,1024,2,48000,-16,experiment,prototype1.png,0,even,Win32,116,138063,135061,116,116,333713,335226,328709,139565,328709,116,,,,,,visual_patterns,0,0,0,yes,1366
undefined,undefined,undefined,undefined,white,no,Mozilla,Netscape,"5.0 (Windows NT 10.0; Win64; x64) AppleWebKit/537.36 (KHTML, like Gecko) Chrome/98.0.4758.102 Safari/537.36",xpyriment,legacy,legacy,0,uniform,0,0,0,0,24,24,24,0,0,27,27,27,27,27,0,27,0,,,,,,0,,25-01-22,25-01-22,13:27:50,Fri Feb 25 2022 13:27:50 GMT+0100 (Central European Standard Time),The main experiment item,yes,0,0,C:/Users/rrics/Documents/!!ResearchBMECOGSCI/gnet,0,0,0,prototype1.png,no,mono,no,18,no,black,no,no,768,1138,3.5.6,legacy,xpyriment,osweb,1.3.13,0,space,space,space,,19539,26668,19539,,2,legacy,680,1280,24,720,24,0,0,1280,1645792110427,1024,2,48000,-16,experiment,p4sarrcol1.png,0,even,Win32,116,138063,135061,116,116,340234,341749,335234,139565,335234,116,,,,,,visual_patterns,0,0,0,yes,1366
undefined,undefined,undefined,undefined,white,no,Mozilla,Netscape,"5.0 (Windows NT 10.0; Win64; x64) AppleWebKit/537.36 (KHTML, like Gecko) Chrome/98.0.4758.102 Safari/537.36",xpyriment,legacy,legacy,0,uniform,0,0,0,0,24,24,24,0,0,28,28,28,28,28,0,28,0,,,,,,0,,25-01-22,25-01-22,13:27:50,Fri Feb 25 2022 13:27:50 GMT+0100 (Central European Standard Time),The main experiment item,yes,0,0,C:/Users/rrics/Documents/!!ResearchBMECOGSCI/gnet,0,0,0,prototype1.png,no,mono,no,18,no,black,no,no,768,1138,3.5.6,legacy,xpyriment,osweb,1.3.13,0,space,space,space,,19539,26668,19539,,2,legacy,680,1280,24,720,24,0,0,1280,1645792110427,1024,2,48000,-16,experiment,prototype4.png,0,even,Win32,116,138063,135061,116,116,346759,348272,341756,139565,341756,116,,,,,,visual_patterns,0,0,0,yes,1366
undefined,undefined,undefined,undefined,white,no,Mozilla,Netscape,"5.0 (Windows NT 10.0; Win64; x64) AppleWebKit/537.36 (KHTML, like Gecko) Chrome/98.0.4758.102 Safari/537.36",xpyriment,legacy,legacy,0,uniform,0,0,0,0,24,24,24,0,0,29,29,29,29,29,0,29,0,,,,,,0,,25-01-22,25-01-22,13:27:50,Fri Feb 25 2022 13:27:50 GMT+0100 (Central European Standard Time),The main experiment item,yes,0,0,C:/Users/rrics/Documents/!!ResearchBMECOGSCI/gnet,0,0,0,prototype1.png,no,mono,no,18,no,black,no,no,768,1138,3.5.6,legacy,xpyriment,osweb,1.3.13,0,space,space,space,,19539,26668,19539,,2,legacy,680,1280,24,720,24,0,0,1280,1645792110427,1024,2,48000,-16,experiment,prototype5.png,0,even,Win32,116,138063,135061,116,116,353287,354795,348288,139565,348288,116,,,,,,visual_patterns,0,0,0,yes,1366
undefined,undefined,undefined,undefined,white,no,Mozilla,Netscape,"5.0 (Windows NT 10.0; Win64; x64) AppleWebKit/537.36 (KHTML, like Gecko) Chrome/98.0.4758.102 Safari/537.36",xpyriment,legacy,legacy,0,uniform,0,0,0,0,24,24,24,0,0,30,30,30,30,30,0,30,0,,,,,,0,,25-01-22,25-01-22,13:27:50,Fri Feb 25 2022 13:27:50 GMT+0100 (Central European Standard Time),The main experiment item,yes,0,0,C:/Users/rrics/Documents/!!ResearchBMECOGSCI/gnet,0,0,0,prototype1.png,no,mono,no,18,no,black,no,no,768,1138,3.5.6,legacy,xpyriment,osweb,1.3.13,0,space,space,space,,19539,26668,19539,,2,legacy,680,1280,24,720,24,0,0,1280,1645792110427,1024,2,48000,-16,experiment,p5sarrcol2.png,0,even,Win32,116,138063,135061,116,116,359802,361318,354804,139565,354804,116,,,,,,visual_patterns,0,0,0,yes,1366
undefined,undefined,undefined,undefined,white,no,Mozilla,Netscape,"5.0 (Windows NT 10.0; Win64; x64) AppleWebKit/537.36 (KHTML, like Gecko) Chrome/98.0.4758.102 Safari/537.36",xpyriment,legacy,legacy,0,uniform,0,0,0,0,24,24,24,0,0,31,31,31,31,31,0,31,0,,,,,,0,,25-01-22,25-01-22,13:27:50,Fri Feb 25 2022 13:27:50 GMT+0100 (Central European Standard Time),The main experiment item,yes,0,0,C:/Users/rrics/Documents/!!ResearchBMECOGSCI/gnet,0,0,0,prototype1.png,no,mono,no,18,no,black,no,no,768,1138,3.5.6,legacy,xpyriment,osweb,1.3.13,0,space,space,space,,19539,26668,19539,,2,legacy,680,1280,24,720,24,0,0,1280,1645792110427,1024,2,48000,-16,experiment,p2sarrsha2.png,0,even,Win32,116,138063,135061,116,116,366326,367841,361327,139565,361327,116,,,,,,visual_patterns,0,0,0,yes,1366
undefined,undefined,undefined,undefined,white,no,Mozilla,Netscape,"5.0 (Windows NT 10.0; Win64; x64) AppleWebKit/537.36 (KHTML, like Gecko) Chrome/98.0.4758.102 Safari/537.36",xpyriment,legacy,legacy,0,uniform,0,0,0,0,24,24,24,0,0,32,32,32,32,32,0,32,0,,,,,,0,,25-01-22,25-01-22,13:27:50,Fri Feb 25 2022 13:27:50 GMT+0100 (Central European Standard Time),The main experiment item,yes,0,0,C:/Users/rrics/Documents/!!ResearchBMECOGSCI/gnet,0,0,0,prototype1.png,no,mono,no,18,no,black,no,no,768,1138,3.5.6,legacy,xpyriment,osweb,1.3.13,0,space,space,space,,19539,26668,19539,,2,legacy,680,1280,24,720,24,0,0,1280,1645792110427,1024,2,48000,-16,experiment,p5sarr1.png,0,even,Win32,116,138063,135061,116,116,372847,374348,367849,139565,367849,116,,,,,,visual_patterns,0,0,0,yes,1366
undefined,undefined,undefined,undefined,white,no,Mozilla,Netscape,"5.0 (Windows NT 10.0; Win64; x64) AppleWebKit/537.36 (KHTML, like Gecko) Chrome/98.0.4758.102 Safari/537.36",xpyriment,legacy,legacy,0,uniform,0,0,0,0,24,24,24,0,0,33,33,33,33,33,0,33,0,,,,,,0,,25-01-22,25-01-22,13:27:50,Fri Feb 25 2022 13:27:50 GMT+0100 (Central European Standard Time),The main experiment item,yes,0,0,C:/Users/rrics/Documents/!!ResearchBMECOGSCI/gnet,0,0,0,prototype1.png,no,mono,no,18,no,black,no,no,768,1138,3.5.6,legacy,xpyriment,osweb,1.3.13,0,space,space,space,,19539,26668,19539,,2,legacy,680,1280,24,720,24,0,0,1280,1645792110427,1024,2,48000,-16,experiment,p3sarrshacol1.png,0,even,Win32,116,138063,135061,116,116,379357,380873,374357,139565,374357,116,,,,,,visual_patterns,0,0,0,yes,1366
undefined,undefined,undefined,undefined,white,no,Mozilla,Netscape,"5.0 (Windows NT 10.0; Win64; x64) AppleWebKit/537.36 (KHTML, like Gecko) Chrome/98.0.4758.102 Safari/537.36",xpyriment,legacy,legacy,0,uniform,0,0,0,0,24,24,24,0,0,34,34,34,34,34,0,34,0,,,,,,0,,25-01-22,25-01-22,13:27:50,Fri Feb 25 2022 13:27:50 GMT+0100 (Central European Standard Time),The main experiment item,yes,0,0,C:/Users/rrics/Documents/!!ResearchBMECOGSCI/gnet,0,0,0,prototype1.png,no,mono,no,18,no,black,no,no,768,1138,3.5.6,legacy,xpyriment,osweb,1.3.13,0,space,space,space,,19539,26668,19539,,2,legacy,680,1280,24,720,24,0,0,1280,1645792110427,1024,2,48000,-16,experiment,prototype1.png,0,even,Win32,116,138063,135061,116,116,385884,387394,380880,139565,380880,116,,,,,,visual_patterns,0,0,0,yes,1366
undefined,undefined,undefined,undefined,white,no,Mozilla,Netscape,"5.0 (Windows NT 10.0; Win64; x64) AppleWebKit/537.36 (KHTML, like Gecko) Chrome/98.0.4758.102 Safari/537.36",xpyriment,legacy,legacy,0,uniform,0,0,0,0,24,24,24,0,0,35,35,35,35,35,0,35,0,,,,,,0,,25-01-22,25-01-22,13:27:50,Fri Feb 25 2022 13:27:50 GMT+0100 (Central European Standard Time),The main experiment item,yes,0,0,C:/Users/rrics/Documents/!!ResearchBMECOGSCI/gnet,0,0,0,prototype1.png,no,mono,no,18,no,black,no,no,768,1138,3.5.6,legacy,xpyriment,osweb,1.3.13,0,space,space,space,,19539,26668,19539,,2,legacy,680,1280,24,720,24,0,0,1280,1645792110427,1024,2,48000,-16,experiment,p4sarrshacol1.png,0,even,Win32,116,138063,135061,116,116,392404,393917,387403,139565,387403,116,,,,,,visual_patterns,0,0,0,yes,1366
undefined,undefined,undefined,undefined,white,no,Mozilla,Netscape,"5.0 (Windows NT 10.0; Win64; x64) AppleWebKit/537.36 (KHTML, like Gecko) Chrome/98.0.4758.102 Safari/537.36",xpyriment,legacy,legacy,0,uniform,0,0,0,0,24,24,24,0,0,36,36,36,36,36,0,36,0,,,,,,0,,25-01-22,25-01-22,13:27:50,Fri Feb 25 2022 13:27:50 GMT+0100 (Central European Standard Time),The main experiment item,yes,0,0,C:/Users/rrics/Documents/!!ResearchBMECOGSCI/gnet,0,0,0,prototype1.png,no,mono,no,18,no,black,no,no,768,1138,3.5.6,legacy,xpyriment,osweb,1.3.13,0,space,space,space,,19539,26668,19539,,2,legacy,680,1280,24,720,24,0,0,1280,1645792110427,1024,2,48000,-16,experiment,prototype3.png,0,even,Win32,116,138063,135061,116,116,398927,400441,393925,139565,393925,116,,,,,,visual_patterns,0,0,0,yes,1366
undefined,undefined,undefined,undefined,white,no,Mozilla,Netscape,"5.0 (Windows NT 10.0; Win64; x64) AppleWebKit/537.36 (KHTML, like Gecko) Chrome/98.0.4758.102 Safari/537.36",xpyriment,legacy,legacy,0,uniform,0,0,0,0,24,24,24,0,0,37,37,37,37,37,0,37,0,,,,,,0,,25-01-22,25-01-22,13:27:50,Fri Feb 25 2022 13:27:50 GMT+0100 (Central European Standard Time),The main experiment item,yes,0,0,C:/Users/rrics/Documents/!!ResearchBMECOGSCI/gnet,0,0,0,prototype1.png,no,mono,no,18,no,black,no,no,768,1138,3.5.6,legacy,xpyriment,osweb,1.3.13,0,space,space,space,,19539,26668,19539,,2,legacy,680,1280,24,720,24,0,0,1280,1645792110427,1024,2,48000,-16,experiment,prototype3.png,0,even,Win32,116,138063,135061,116,116,405451,406964,400448,139565,400448,116,,,,,,visual_patterns,0,0,0,yes,1366
undefined,undefined,undefined,undefined,white,no,Mozilla,Netscape,"5.0 (Windows NT 10.0; Win64; x64) AppleWebKit/537.36 (KHTML, like Gecko) Chrome/98.0.4758.102 Safari/537.36",xpyriment,legacy,legacy,0,uniform,0,0,0,0,24,24,24,0,0,38,38,38,38,38,0,38,0,,,,,,0,,25-01-22,25-01-22,13:27:50,Fri Feb 25 2022 13:27:50 GMT+0100 (Central European Standard Time),The main experiment item,yes,0,0,C:/Users/rrics/Documents/!!ResearchBMECOGSCI/gnet,0,0,0,prototype1.png,no,mono,no,18,no,black,no,no,768,1138,3.5.6,legacy,xpyriment,osweb,1.3.13,0,space,space,space,,19539,26668,19539,,2,legacy,680,1280,24,720,24,0,0,1280,1645792110427,1024,2,48000,-16,experiment,p7sarr1.png,0,even,Win32,116,138063,135061,116,116,411971,413487,406972,139565,406972,116,,,,,,visual_patterns,0,0,0,yes,1366
undefined,undefined,undefined,undefined,white,no,Mozilla,Netscape,"5.0 (Windows NT 10.0; Win64; x64) AppleWebKit/537.36 (KHTML, like Gecko) Chrome/98.0.4758.102 Safari/537.36",xpyriment,legacy,legacy,0,uniform,0,0,0,0,24,24,24,0,0,39,39,39,39,39,0,39,0,,,,,,0,,25-01-22,25-01-22,13:27:50,Fri Feb 25 2022 13:27:50 GMT+0100 (Central European Standard Time),The main experiment item,yes,0,0,C:/Users/rrics/Documents/!!ResearchBMECOGSCI/gnet,0,0,0,prototype1.png,no,mono,no,18,no,black,no,no,768,1138,3.5.6,legacy,xpyriment,osweb,1.3.13,0,space,space,space,,19539,26668,19539,,2,legacy,680,1280,24,720,24,0,0,1280,1645792110427,1024,2,48000,-16,experiment,p1sarrsha1.png,0,even,Win32,116,138063,135061,116,116,418503,420010,413504,139565,413504,116,,,,,,visual_patterns,0,0,0,yes,1366
undefined,undefined,undefined,undefined,white,no,Mozilla,Netscape,"5.0 (Windows NT 10.0; Win64; x64) AppleWebKit/537.36 (KHTML, like Gecko) Chrome/98.0.4758.102 Safari/537.36",xpyriment,legacy,legacy,0,uniform,0,0,0,0,24,24,24,0,0,40,40,40,40,40,0,40,0,,,,,,0,,25-01-22,25-01-22,13:27:50,Fri Feb 25 2022 13:27:50 GMT+0100 (Central European Standard Time),The main experiment item,yes,0,0,C:/Users/rrics/Documents/!!ResearchBMECOGSCI/gnet,0,0,0,prototype1.png,no,mono,no,18,no,black,no,no,768,1138,3.5.6,legacy,xpyriment,osweb,1.3.13,0,space,space,space,,19539,26668,19539,,2,legacy,680,1280,24,720,24,0,0,1280,1645792110427,1024,2,48000,-16,experiment,prototype5.png,0,even,Win32,116,138063,135061,116,116,425017,426533,420017,139565,420017,116,,,,,,visual_patterns,0,0,0,yes,1366
undefined,undefined,undefined,undefined,white,no,Mozilla,Netscape,"5.0 (Windows NT 10.0; Win64; x64) AppleWebKit/537.36 (KHTML, like Gecko) Chrome/98.0.4758.102 Safari/537.36",xpyriment,legacy,legacy,0,uniform,0,0,0,0,24,24,24,0,0,41,41,41,41,41,0,41,0,,,,,,0,,25-01-22,25-01-22,13:27:50,Fri Feb 25 2022 13:27:50 GMT+0100 (Central European Standard Time),The main experiment item,yes,0,0,C:/Users/rrics/Documents/!!ResearchBMECOGSCI/gnet,0,0,0,prototype1.png,no,mono,no,18,no,black,no,no,768,1138,3.5.6,legacy,xpyriment,osweb,1.3.13,0,space,space,space,,19539,26668,19539,,2,legacy,680,1280,24,720,24,0,0,1280,1645792110427,1024,2,48000,-16,experiment,p3sarrshacol2.png,0,even,Win32,116,138063,135061,116,116,431542,433057,426543,139565,426543,116,,,,,,visual_patterns,0,0,0,yes,1366
undefined,undefined,undefined,undefined,white,no,Mozilla,Netscape,"5.0 (Windows NT 10.0; Win64; x64) AppleWebKit/537.36 (KHTML, like Gecko) Chrome/98.0.4758.102 Safari/537.36",xpyriment,legacy,legacy,0,uniform,0,0,0,0,24,24,24,0,0,42,42,42,42,42,0,42,0,,,,,,0,,25-01-22,25-01-22,13:27:50,Fri Feb 25 2022 13:27:50 GMT+0100 (Central European Standard Time),The main experiment item,yes,0,0,C:/Users/rrics/Documents/!!ResearchBMECOGSCI/gnet,0,0,0,prototype1.png,no,mono,no,18,no,black,no,no,768,1138,3.5.6,legacy,xpyriment,osweb,1.3.13,0,space,space,space,,19539,26668,19539,,2,legacy,680,1280,24,720,24,0,0,1280,1645792110427,1024,2,48000,-16,experiment,p3sarrcol2.png,0,even,Win32,116,138063,135061,116,116,438063,439579,433064,139565,433064,116,,,,,,visual_patterns,0,0,0,yes,1366
undefined,undefined,undefined,undefined,white,no,Mozilla,Netscape,"5.0 (Windows NT 10.0; Win64; x64) AppleWebKit/537.36 (KHTML, like Gecko) Chrome/98.0.4758.102 Safari/537.36",xpyriment,legacy,legacy,0,uniform,0,0,0,0,24,24,24,0,0,43,43,43,43,43,0,43,0,,,,,,0,,25-01-22,25-01-22,13:27:50,Fri Feb 25 2022 13:27:50 GMT+0100 (Central European Standard Time),The main experiment item,yes,0,0,C:/Users/rrics/Documents/!!ResearchBMECOGSCI/gnet,0,0,0,prototype1.png,no,mono,no,18,no,black,no,no,768,1138,3.5.6,legacy,xpyriment,osweb,1.3.13,0,space,space,space,,19539,26668,19539,,2,legacy,680,1280,24,720,24,0,0,1280,1645792110427,1024,2,48000,-16,experiment,p3sarr2.png,0,even,Win32,116,138063,135061,116,116,444588,446103,439588,139565,439588,116,,,,,,visual_patterns,0,0,0,yes,1366
undefined,undefined,undefined,undefined,white,no,Mozilla,Netscape,"5.0 (Windows NT 10.0; Win64; x64) AppleWebKit/537.36 (KHTML, like Gecko) Chrome/98.0.4758.102 Safari/537.36",xpyriment,legacy,legacy,0,uniform,0,0,0,0,24,24,24,0,0,44,44,44,44,44,0,44,0,,,,,,0,,25-01-22,25-01-22,13:27:50,Fri Feb 25 2022 13:27:50 GMT+0100 (Central European Standard Time),The main experiment item,yes,0,0,C:/Users/rrics/Documents/!!ResearchBMECOGSCI/gnet,0,0,0,prototype1.png,no,mono,no,18,no,black,no,no,768,1138,3.5.6,legacy,xpyriment,osweb,1.3.13,0,space,space,space,,19539,26668,19539,,2,legacy,680,1280,24,720,24,0,0,1280,1645792110427,1024,2,48000,-16,experiment,p2sarrsha1.png,0,even,Win32,116,138063,135061,116,116,451111,452626,446111,139565,446111,116,,,,,,visual_patterns,0,0,0,yes,1366
undefined,undefined,undefined,undefined,white,no,Mozilla,Netscape,"5.0 (Windows NT 10.0; Win64; x64) AppleWebKit/537.36 (KHTML, like Gecko) Chrome/98.0.4758.102 Safari/537.36",xpyriment,legacy,legacy,0,uniform,0,0,0,0,24,24,24,0,0,45,45,45,45,45,0,45,0,,,,,,0,,25-01-22,25-01-22,13:27:50,Fri Feb 25 2022 13:27:50 GMT+0100 (Central European Standard Time),The main experiment item,yes,0,0,C:/Users/rrics/Documents/!!ResearchBMECOGSCI/gnet,0,0,0,prototype1.png,no,mono,no,18,no,black,no,no,768,1138,3.5.6,legacy,xpyriment,osweb,1.3.13,0,space,space,space,,19539,26668,19539,,2,legacy,680,1280,24,720,24,0,0,1280,1645792110427,1024,2,48000,-16,experiment,p4sarrsha1.png,0,even,Win32,116,138063,135061,116,116,457637,459149,452635,139565,452635,116,,,,,,visual_patterns,0,0,0,yes,1366
undefined,undefined,undefined,undefined,white,no,Mozilla,Netscape,"5.0 (Windows NT 10.0; Win64; x64) AppleWebKit/537.36 (KHTML, like Gecko) Chrome/98.0.4758.102 Safari/537.36",xpyriment,legacy,legacy,0,uniform,0,0,0,0,24,24,24,0,0,46,46,46,46,46,0,46,0,,,,,,0,,25-01-22,25-01-22,13:27:50,Fri Feb 25 2022 13:27:50 GMT+0100 (Central European Standard Time),The main experiment item,yes,0,0,C:/Users/rrics/Documents/!!ResearchBMECOGSCI/gnet,0,0,0,prototype1.png,no,mono,no,18,no,black,no,no,768,1138,3.5.6,legacy,xpyriment,osweb,1.3.13,0,space,space,space,,19539,26668,19539,,2,legacy,680,1280,24,720,24,0,0,1280,1645792110427,1024,2,48000,-16,experiment,p1sarrcol1.png,0,even,Win32,116,138063,135061,116,116,464157,465672,459157,139565,459157,116,,,,,,visual_patterns,0,0,0,yes,1366
undefined,undefined,undefined,undefined,white,no,Mozilla,Netscape,"5.0 (Windows NT 10.0; Win64; x64) AppleWebKit/537.36 (KHTML, like Gecko) Chrome/98.0.4758.102 Safari/537.36",xpyriment,legacy,legacy,0,uniform,0,0,0,0,24,24,24,0,0,47,47,47,47,47,0,47,0,,,,,,0,,25-01-22,25-01-22,13:27:50,Fri Feb 25 2022 13:27:50 GMT+0100 (Central European Standard Time),The main experiment item,yes,0,0,C:/Users/rrics/Documents/!!ResearchBMECOGSCI/gnet,0,0,0,prototype1.png,no,mono,no,18,no,black,no,no,768,1138,3.5.6,legacy,xpyriment,osweb,1.3.13,0,space,space,space,,19539,26668,19539,,2,legacy,680,1280,24,720,24,0,0,1280,1645792110427,1024,2,48000,-16,experiment,p1sarrsha2.png,0,even,Win32,116,138063,135061,116,116,470679,472196,465681,139565,465681,116,,,,,,visual_patterns,0,0,0,yes,1366
undefined,undefined,undefined,undefined,white,no,Mozilla,Netscape,"5.0 (Windows NT 10.0; Win64; x64) AppleWebKit/537.36 (KHTML, like Gecko) Chrome/98.0.4758.102 Safari/537.36",xpyriment,legacy,legacy,0,uniform,0,0,0,0,24,24,24,0,0,48,48,48,48,48,0,48,0,,,,,,0,,25-01-22,25-01-22,13:27:50,Fri Feb 25 2022 13:27:50 GMT+0100 (Central European Standard Time),The main experiment item,yes,0,0,C:/Users/rrics/Documents/!!ResearchBMECOGSCI/gnet,0,0,0,prototype1.png,no,mono,no,18,no,black,no,no,768,1138,3.5.6,legacy,xpyriment,osweb,1.3.13,0,space,space,space,,19539,26668,19539,,2,legacy,680,1280,24,720,24,0,0,1280,1645792110427,1024,2,48000,-16,experiment,p7sarr2.png,0,even,Win32,116,138063,135061,116,116,477202,478719,472203,139565,472203,116,,,,,,visual_patterns,0,0,0,yes,1366
undefined,undefined,undefined,undefined,white,no,Mozilla,Netscape,"5.0 (Windows NT 10.0; Win64; x64) AppleWebKit/537.36 (KHTML, like Gecko) Chrome/98.0.4758.102 Safari/537.36",xpyriment,legacy,legacy,0,uniform,0,0,0,0,24,24,24,0,0,49,49,49,49,49,0,49,0,,,,,,0,,25-01-22,25-01-22,13:27:50,Fri Feb 25 2022 13:27:50 GMT+0100 (Central European Standard Time),The main experiment item,yes,0,0,C:/Users/rrics/Documents/!!ResearchBMECOGSCI/gnet,0,0,0,prototype1.png,no,mono,no,18,no,black,no,no,768,1138,3.5.6,legacy,xpyriment,osweb,1.3.13,0,space,space,space,,19539,26668,19539,,2,legacy,680,1280,24,720,24,0,0,1280,1645792110427,1024,2,48000,-16,experiment,p4sarr1.png,0,even,Win32,116,138063,135061,116,116,483730,485242,478728,139565,478728,116,,,,,,visual_patterns,0,0,0,yes,1366
undefined,undefined,undefined,undefined,white,no,Mozilla,Netscape,"5.0 (Windows NT 10.0; Win64; x64) AppleWebKit/537.36 (KHTML, like Gecko) Chrome/98.0.4758.102 Safari/537.36",xpyriment,legacy,legacy,0,uniform,0,0,0,0,24,24,24,0,0,50,50,50,50,50,0,50,0,,,,,,0,,25-01-22,25-01-22,13:27:50,Fri Feb 25 2022 13:27:50 GMT+0100 (Central European Standard Time),The main experiment item,yes,0,0,C:/Users/rrics/Documents/!!ResearchBMECOGSCI/gnet,0,0,0,prototype1.png,no,mono,no,18,no,black,no,no,768,1138,3.5.6,legacy,xpyriment,osweb,1.3.13,0,space,space,space,,19539,26668,19539,,2,legacy,680,1280,24,720,24,0,0,1280,1645792110427,1024,2,48000,-16,experiment,p10sarr1.png,0,even,Win32,116,138063,135061,116,116,490249,491765,485250,139565,485250,116,,,,,,visual_patterns,0,0,0,yes,1366
undefined,undefined,undefined,undefined,white,no,Mozilla,Netscape,"5.0 (Windows NT 10.0; Win64; x64) AppleWebKit/537.36 (KHTML, like Gecko) Chrome/98.0.4758.102 Safari/537.36",xpyriment,legacy,legacy,0,uniform,0,0,0,0,24,24,24,0,0,51,51,51,51,51,0,51,0,,,,,,0,,25-01-22,25-01-22,13:27:50,Fri Feb 25 2022 13:27:50 GMT+0100 (Central European Standard Time),The main experiment item,yes,0,0,C:/Users/rrics/Documents/!!ResearchBMECOGSCI/gnet,0,0,0,prototype1.png,no,mono,no,18,no,black,no,no,768,1138,3.5.6,legacy,xpyriment,osweb,1.3.13,0,space,space,space,,19539,26668,19539,,2,legacy,680,1280,24,720,24,0,0,1280,1645792110427,1024,2,48000,-16,experiment,prototype3.png,0,even,Win32,116,138063,135061,116,116,496773,498289,491772,139565,491772,116,,,,,,visual_patterns,0,0,0,yes,1366
undefined,undefined,undefined,undefined,white,no,Mozilla,Netscape,"5.0 (Windows NT 10.0; Win64; x64) AppleWebKit/537.36 (KHTML, like Gecko) Chrome/98.0.4758.102 Safari/537.36",xpyriment,legacy,legacy,0,uniform,0,0,0,0,24,24,24,0,0,52,52,52,52,52,0,52,0,,,,,,0,,25-01-22,25-01-22,13:27:50,Fri Feb 25 2022 13:27:50 GMT+0100 (Central European Standard Time),The main experiment item,yes,0,0,C:/Users/rrics/Documents/!!ResearchBMECOGSCI/gnet,0,0,0,prototype1.png,no,mono,no,18,no,black,no,no,768,1138,3.5.6,legacy,xpyriment,osweb,1.3.13,0,space,space,space,,19539,26668,19539,,2,legacy,680,1280,24,720,24,0,0,1280,1645792110427,1024,2,48000,-16,experiment,p1sarr1.png,0,even,Win32,116,138063,135061,116,116,503296,504811,498298,139565,498298,116,,,,,,visual_patterns,0,0,0,yes,1366
undefined,undefined,undefined,undefined,white,no,Mozilla,Netscape,"5.0 (Windows NT 10.0; Win64; x64) AppleWebKit/537.36 (KHTML, like Gecko) Chrome/98.0.4758.102 Safari/537.36",xpyriment,legacy,legacy,0,uniform,0,0,0,0,24,24,24,0,0,53,53,53,53,53,0,53,0,,,,,,0,,25-01-22,25-01-22,13:27:50,Fri Feb 25 2022 13:27:50 GMT+0100 (Central European Standard Time),The main experiment item,yes,0,0,C:/Users/rrics/Documents/!!ResearchBMECOGSCI/gnet,0,0,0,prototype1.png,no,mono,no,18,no,black,no,no,768,1138,3.5.6,legacy,xpyriment,osweb,1.3.13,0,space,space,space,,19539,26668,19539,,2,legacy,680,1280,24,720,24,0,0,1280,1645792110427,1024,2,48000,-16,experiment,p1sarrcol2.png,0,even,Win32,116,138063,135061,116,116,509818,511335,504820,139565,504820,116,,,,,,visual_patterns,0,0,0,yes,1366
undefined,undefined,undefined,undefined,white,no,Mozilla,Netscape,"5.0 (Windows NT 10.0; Win64; x64) AppleWebKit/537.36 (KHTML, like Gecko) Chrome/98.0.4758.102 Safari/537.36",xpyriment,legacy,legacy,0,uniform,0,0,0,0,24,24,24,0,0,54,54,54,54,54,0,54,0,,,,,,0,,25-01-22,25-01-22,13:27:50,Fri Feb 25 2022 13:27:50 GMT+0100 (Central European Standard Time),The main experiment item,yes,0,0,C:/Users/rrics/Documents/!!ResearchBMECOGSCI/gnet,0,0,0,prototype1.png,no,mono,no,18,no,black,no,no,768,1138,3.5.6,legacy,xpyriment,osweb,1.3.13,0,space,space,space,,19539,26668,19539,,2,legacy,680,1280,24,720,24,0,0,1280,1645792110427,1024,2,48000,-16,experiment,p2sarrcol2.png,0,even,Win32,116,138063,135061,116,116,516344,517857,511344,139565,511344,116,,,,,,visual_patterns,0,0,0,yes,1366
undefined,undefined,undefined,undefined,white,no,Mozilla,Netscape,"5.0 (Windows NT 10.0; Win64; x64) AppleWebKit/537.36 (KHTML, like Gecko) Chrome/98.0.4758.102 Safari/537.36",xpyriment,legacy,legacy,0,uniform,0,0,0,0,24,24,24,0,0,55,55,55,55,55,0,55,0,,,,,,0,,25-01-22,25-01-22,13:27:50,Fri Feb 25 2022 13:27:50 GMT+0100 (Central European Standard Time),The main experiment item,yes,0,0,C:/Users/rrics/Documents/!!ResearchBMECOGSCI/gnet,0,0,0,prototype1.png,no,mono,no,18,no,black,no,no,768,1138,3.5.6,legacy,xpyriment,osweb,1.3.13,0,space,space,space,,19539,26668,19539,,2,legacy,680,1280,24,720,24,0,0,1280,1645792110427,1024,2,48000,-16,experiment,prototype4.png,0,even,Win32,116,138063,135061,116,116,522865,524381,517865,139565,517865,116,,,,,,visual_patterns,0,0,0,yes,1366
undefined,undefined,undefined,undefined,white,no,Mozilla,Netscape,"5.0 (Windows NT 10.0; Win64; x64) AppleWebKit/537.36 (KHTML, like Gecko) Chrome/98.0.4758.102 Safari/537.36",xpyriment,legacy,legacy,0,uniform,0,0,0,0,24,24,24,0,0,56,56,56,56,56,0,56,0,,,,,,0,,25-01-22,25-01-22,13:27:50,Fri Feb 25 2022 13:27:50 GMT+0100 (Central European Standard Time),The main experiment item,yes,0,0,C:/Users/rrics/Documents/!!ResearchBMECOGSCI/gnet,0,0,0,prototype1.png,no,mono,no,18,no,black,no,no,768,1138,3.5.6,legacy,xpyriment,osweb,1.3.13,0,space,space,space,,19539,26668,19539,,2,legacy,680,1280,24,720,24,0,0,1280,1645792110427,1024,2,48000,-16,experiment,p2sarrshacol1.png,0,even,Win32,116,138063,135061,116,116,529388,530904,524389,139565,524389,116,,,,,,visual_patterns,0,0,0,yes,1366
undefined,undefined,undefined,undefined,white,no,Mozilla,Netscape,"5.0 (Windows NT 10.0; Win64; x64) AppleWebKit/537.36 (KHTML, like Gecko) Chrome/98.0.4758.102 Safari/537.36",xpyriment,legacy,legacy,0,uniform,0,0,0,0,24,24,24,0,0,57,57,57,57,57,0,57,0,,,,,,0,,25-01-22,25-01-22,13:27:50,Fri Feb 25 2022 13:27:50 GMT+0100 (Central European Standard Time),The main experiment item,yes,0,0,C:/Users/rrics/Documents/!!ResearchBMECOGSCI/gnet,0,0,0,prototype1.png,no,mono,no,18,no,black,no,no,768,1138,3.5.6,legacy,xpyriment,osweb,1.3.13,0,space,space,space,,19539,26668,19539,,2,legacy,680,1280,24,720,24,0,0,1280,1645792110427,1024,2,48000,-16,experiment,prototype5.png,0,even,Win32,116,138063,135061,116,116,535912,537427,530911,139565,530911,116,,,,,,visual_patterns,0,0,0,yes,1366
undefined,undefined,undefined,undefined,white,no,Mozilla,Netscape,"5.0 (Windows NT 10.0; Win64; x64) AppleWebKit/537.36 (KHTML, like Gecko) Chrome/98.0.4758.102 Safari/537.36",xpyriment,legacy,legacy,0,uniform,0,0,0,0,24,24,24,0,0,58,58,58,58,58,0,58,0,,,,,,0,,25-01-22,25-01-22,13:27:50,Fri Feb 25 2022 13:27:50 GMT+0100 (Central European Standard Time),The main experiment item,yes,0,0,C:/Users/rrics/Documents/!!ResearchBMECOGSCI/gnet,0,0,0,prototype1.png,no,mono,no,18,no,black,no,no,768,1138,3.5.6,legacy,xpyriment,osweb,1.3.13,0,space,space,space,,19539,26668,19539,,2,legacy,680,1280,24,720,24,0,0,1280,1645792110427,1024,2,48000,-16,experiment,prototype2.png,0,even,Win32,116,138063,135061,116,116,542436,543950,537434,139565,537434,116,,,,,,visual_patterns,0,0,0,yes,1366
undefined,undefined,undefined,undefined,white,no,Mozilla,Netscape,"5.0 (Windows NT 10.0; Win64; x64) AppleWebKit/537.36 (KHTML, like Gecko) Chrome/98.0.4758.102 Safari/537.36",xpyriment,legacy,legacy,0,uniform,0,0,0,0,24,24,24,0,0,59,59,59,59,59,0,59,0,,,,,,0,,25-01-22,25-01-22,13:27:50,Fri Feb 25 2022 13:27:50 GMT+0100 (Central European Standard Time),The main experiment item,yes,0,0,C:/Users/rrics/Documents/!!ResearchBMECOGSCI/gnet,0,0,0,prototype1.png,no,mono,no,18,no,black,no,no,768,1138,3.5.6,legacy,xpyriment,osweb,1.3.13,0,space,space,space,,19539,26668,19539,,2,legacy,680,1280,24,720,24,0,0,1280,1645792110427,1024,2,48000,-16,experiment,prototype5.png,0,even,Win32,116,138063,135061,116,116,548971,550474,543968,139565,543968,116,,,,,,visual_patterns,0,0,0,yes,1366
undefined,undefined,undefined,undefined,white,no,Mozilla,Netscape,"5.0 (Windows NT 10.0; Win64; x64) AppleWebKit/537.36 (KHTML, like Gecko) Chrome/98.0.4758.102 Safari/537.36",xpyriment,legacy,legacy,0,uniform,0,0,0,0,24,24,24,0,0,60,60,60,60,60,0,60,0,,,,,,0,,25-01-22,25-01-22,13:27:50,Fri Feb 25 2022 13:27:50 GMT+0100 (Central European Standard Time),The main experiment item,yes,0,0,C:/Users/rrics/Documents/!!ResearchBMECOGSCI/gnet,0,0,0,prototype1.png,no,mono,no,18,no,black,no,no,768,1138,3.5.6,legacy,xpyriment,osweb,1.3.13,0,space,space,space,,19539,26668,19539,,2,legacy,680,1280,24,720,24,0,0,1280,1645792110427,1024,2,48000,-16,experiment,p1sarrshacol2.png,0,even,Win32,116,138063,135061,116,116,555482,556997,550481,139565,550481,116,,,,,,visual_patterns,0,0,0,yes,1366
undefined,undefined,undefined,undefined,white,no,Mozilla,Netscape,"5.0 (Windows NT 10.0; Win64; x64) AppleWebKit/537.36 (KHTML, like Gecko) Chrome/98.0.4758.102 Safari/537.36",xpyriment,legacy,legacy,0,uniform,0,0,0,0,24,24,24,0,0,61,61,61,61,61,0,61,0,,,,,,0,,25-01-22,25-01-22,13:27:50,Fri Feb 25 2022 13:27:50 GMT+0100 (Central European Standard Time),The main experiment item,yes,0,0,C:/Users/rrics/Documents/!!ResearchBMECOGSCI/gnet,0,0,0,prototype1.png,no,mono,no,18,no,black,no,no,768,1138,3.5.6,legacy,xpyriment,osweb,1.3.13,0,space,space,space,,19539,26668,19539,,2,legacy,680,1280,24,720,24,0,0,1280,1645792110427,1024,2,48000,-16,experiment,p2sarrcol1.png,0,even,Win32,116,138063,135061,116,116,562004,563520,557005,139565,557005,116,,,,,,visual_patterns,0,0,0,yes,1366
undefined,undefined,undefined,undefined,white,no,Mozilla,Netscape,"5.0 (Windows NT 10.0; Win64; x64) AppleWebKit/537.36 (KHTML, like Gecko) Chrome/98.0.4758.102 Safari/537.36",xpyriment,legacy,legacy,0,uniform,0,0,0,0,24,24,24,0,0,62,62,62,62,62,0,62,0,,,,,,0,,25-01-22,25-01-22,13:27:50,Fri Feb 25 2022 13:27:50 GMT+0100 (Central European Standard Time),The main experiment item,yes,0,0,C:/Users/rrics/Documents/!!ResearchBMECOGSCI/gnet,0,0,0,prototype1.png,no,mono,no,18,no,black,no,no,768,1138,3.5.6,legacy,xpyriment,osweb,1.3.13,0,space,space,space,,19539,26668,19539,,2,legacy,680,1280,24,720,24,0,0,1280,1645792110427,1024,2,48000,-16,experiment,p5sarr2.png,0,even,Win32,116,138063,135061,116,116,568529,570043,563529,139565,563529,116,,,,,,visual_patterns,0,0,0,yes,1366
undefined,undefined,undefined,undefined,white,no,Mozilla,Netscape,"5.0 (Windows NT 10.0; Win64; x64) AppleWebKit/537.36 (KHTML, like Gecko) Chrome/98.0.4758.102 Safari/537.36",xpyriment,legacy,legacy,0,uniform,0,0,0,0,24,24,24,0,0,63,63,63,63,63,0,63,0,,,,,,0,,25-01-22,25-01-22,13:27:50,Fri Feb 25 2022 13:27:50 GMT+0100 (Central European Standard Time),The main experiment item,yes,0,0,C:/Users/rrics/Documents/!!ResearchBMECOGSCI/gnet,0,0,0,prototype1.png,no,mono,no,18,no,black,no,no,768,1138,3.5.6,legacy,xpyriment,osweb,1.3.13,0,space,space,space,,19539,26668,19539,,2,legacy,680,1280,24,720,24,0,0,1280,1645792110427,1024,2,48000,-16,experiment,p10sarr2.png,0,even,Win32,116,138063,135061,116,116,575054,576566,570052,139565,570052,116,,,,,,visual_patterns,0,0,0,yes,1366
undefined,undefined,undefined,undefined,white,no,Mozilla,Netscape,"5.0 (Windows NT 10.0; Win64; x64) AppleWebKit/537.36 (KHTML, like Gecko) Chrome/98.0.4758.102 Safari/537.36",xpyriment,legacy,legacy,0,uniform,0,0,0,0,24,24,24,0,0,64,64,64,64,64,0,64,0,,,,,,0,,25-01-22,25-01-22,13:27:50,Fri Feb 25 2022 13:27:50 GMT+0100 (Central European Standard Time),The main experiment item,yes,0,0,C:/Users/rrics/Documents/!!ResearchBMECOGSCI/gnet,0,0,0,prototype1.png,no,mono,no,18,no,black,no,no,768,1138,3.5.6,legacy,xpyriment,osweb,1.3.13,0,space,space,space,,19539,26668,19539,,2,legacy,680,1280,24,720,24,0,0,1280,1645792110427,1024,2,48000,-16,experiment,prototype1.png,0,even,Win32,116,138063,135061,116,116,581585,583090,576581,139565,576581,116,,,,,,visual_patterns,0,0,0,yes,1366
undefined,undefined,undefined,undefined,white,no,Mozilla,Netscape,"5.0 (Windows NT 10.0; Win64; x64) AppleWebKit/537.36 (KHTML, like Gecko) Chrome/98.0.4758.102 Safari/537.36",xpyriment,legacy,legacy,0,uniform,0,0,0,0,24,24,24,0,0,65,65,65,65,65,0,65,0,,,,,,0,,25-01-22,25-01-22,13:27:50,Fri Feb 25 2022 13:27:50 GMT+0100 (Central European Standard Time),The main experiment item,yes,0,0,C:/Users/rrics/Documents/!!ResearchBMECOGSCI/gnet,0,0,0,prototype1.png,no,mono,no,18,no,black,no,no,768,1138,3.5.6,legacy,xpyriment,osweb,1.3.13,0,space,space,space,,19539,26668,19539,,2,legacy,680,1280,24,720,24,0,0,1280,1645792110427,1024,2,48000,-16,experiment,prototype4.png,0,even,Win32,116,138063,135061,116,116,588098,589613,583096,139565,583096,116,,,,,,visual_patterns,0,0,0,yes,1366
undefined,undefined,undefined,undefined,white,no,Mozilla,Netscape,"5.0 (Windows NT 10.0; Win64; x64) AppleWebKit/537.36 (KHTML, like Gecko) Chrome/98.0.4758.102 Safari/537.36",xpyriment,legacy,legacy,0,uniform,0,0,0,0,24,24,24,0,0,66,66,66,66,66,0,66,0,,,,,,0,,25-01-22,25-01-22,13:27:50,Fri Feb 25 2022 13:27:50 GMT+0100 (Central European Standard Time),The main experiment item,yes,0,0,C:/Users/rrics/Documents/!!ResearchBMECOGSCI/gnet,0,0,0,prototype1.png,no,mono,no,18,no,black,no,no,768,1138,3.5.6,legacy,xpyriment,osweb,1.3.13,0,space,space,space,,19539,26668,19539,,2,legacy,680,1280,24,720,24,0,0,1280,1645792110427,1024,2,48000,-16,experiment,p2sarrshacol2.png,0,even,Win32,116,138063,135061,116,116,594622,596136,589621,139565,589621,116,,,,,,visual_patterns,0,0,0,yes,1366
undefined,undefined,undefined,undefined,white,no,Mozilla,Netscape,"5.0 (Windows NT 10.0; Win64; x64) AppleWebKit/537.36 (KHTML, like Gecko) Chrome/98.0.4758.102 Safari/537.36",xpyriment,legacy,legacy,0,uniform,0,0,0,0,24,24,24,0,0,67,67,67,67,67,0,67,0,,,,,,0,,25-01-22,25-01-22,13:27:50,Fri Feb 25 2022 13:27:50 GMT+0100 (Central European Standard Time),The main experiment item,yes,0,0,C:/Users/rrics/Documents/!!ResearchBMECOGSCI/gnet,0,0,0,prototype1.png,no,mono,no,18,no,black,no,no,768,1138,3.5.6,legacy,xpyriment,osweb,1.3.13,0,space,space,space,,19539,26668,19539,,2,legacy,680,1280,24,720,24,0,0,1280,1645792110427,1024,2,48000,-16,experiment,p1sarr2.png,0,even,Win32,116,138063,135061,116,116,601145,602659,596144,139565,596144,116,,,,,,visual_patterns,0,0,0,yes,1366
undefined,undefined,undefined,undefined,white,no,Mozilla,Netscape,"5.0 (Windows NT 10.0; Win64; x64) AppleWebKit/537.36 (KHTML, like Gecko) Chrome/98.0.4758.102 Safari/537.36",xpyriment,legacy,legacy,0,uniform,0,0,0,0,24,24,24,0,0,68,68,68,68,68,0,68,0,,,,,,0,,25-01-22,25-01-22,13:27:50,Fri Feb 25 2022 13:27:50 GMT+0100 (Central European Standard Time),The main experiment item,yes,0,0,C:/Users/rrics/Documents/!!ResearchBMECOGSCI/gnet,0,0,0,prototype1.png,no,mono,no,18,no,black,no,no,768,1138,3.5.6,legacy,xpyriment,osweb,1.3.13,0,space,space,space,,19539,26668,19539,,2,legacy,680,1280,24,720,24,0,0,1280,1645792110427,1024,2,48000,-16,experiment,p6sarr2.png,0,even,Win32,116,138063,135061,116,116,607670,609182,602668,139565,602668,116,,,,,,visual_patterns,0,0,0,yes,1366
undefined,undefined,undefined,undefined,white,no,Mozilla,Netscape,"5.0 (Windows NT 10.0; Win64; x64) AppleWebKit/537.36 (KHTML, like Gecko) Chrome/98.0.4758.102 Safari/537.36",xpyriment,legacy,legacy,0,uniform,0,0,0,0,24,24,24,0,0,69,69,69,69,69,0,69,0,,,,,,0,,25-01-22,25-01-22,13:27:50,Fri Feb 25 2022 13:27:50 GMT+0100 (Central European Standard Time),The main experiment item,yes,0,0,C:/Users/rrics/Documents/!!ResearchBMECOGSCI/gnet,0,0,0,prototype1.png,no,mono,no,18,no,black,no,no,768,1138,3.5.6,legacy,xpyriment,osweb,1.3.13,0,space,space,space,,19539,26668,19539,,2,legacy,680,1280,24,720,24,0,0,1280,1645792110427,1024,2,48000,-16,experiment,prototype2.png,0,even,Win32,116,138063,135061,116,116,614199,615705,609198,139565,609198,116,,,,,,visual_patterns,0,0,0,yes,1366
undefined,undefined,undefined,undefined,white,no,Mozilla,Netscape,"5.0 (Windows NT 10.0; Win64; x64) AppleWebKit/537.36 (KHTML, like Gecko) Chrome/98.0.4758.102 Safari/537.36",xpyriment,legacy,legacy,0,uniform,0,0,0,0,24,24,24,0,0,70,70,70,70,70,0,70,0,,,,,,0,,25-01-22,25-01-22,13:27:50,Fri Feb 25 2022 13:27:50 GMT+0100 (Central European Standard Time),The main experiment item,yes,0,0,C:/Users/rrics/Documents/!!ResearchBMECOGSCI/gnet,0,0,0,prototype1.png,no,mono,no,18,no,black,no,no,768,1138,3.5.6,legacy,xpyriment,osweb,1.3.13,0,space,space,space,,19539,26668,19539,,2,legacy,680,1280,24,720,24,0,0,1280,1645792110427,1024,2,48000,-16,experiment,p1sarrshacol1.png,0,even,Win32,116,138063,135061,116,116,620714,622229,615714,139565,615714,116,,,,,,visual_patterns,0,0,0,yes,1366
undefined,undefined,undefined,undefined,white,no,Mozilla,Netscape,"5.0 (Windows NT 10.0; Win64; x64) AppleWebKit/537.36 (KHTML, like Gecko) Chrome/98.0.4758.102 Safari/537.36",xpyriment,legacy,legacy,0,uniform,0,0,0,0,24,24,24,0,0,71,71,71,71,71,0,71,0,,,,,,0,,25-01-22,25-01-22,13:27:50,Fri Feb 25 2022 13:27:50 GMT+0100 (Central European Standard Time),The main experiment item,yes,0,0,C:/Users/rrics/Documents/!!ResearchBMECOGSCI/gnet,0,0,0,prototype1.png,no,mono,no,18,no,black,no,no,768,1138,3.5.6,legacy,xpyriment,osweb,1.3.13,0,space,space,space,,19539,26668,19539,,2,legacy,680,1280,24,720,24,0,0,1280,1645792110427,1024,2,48000,-16,experiment,prototype1.png,0,even,Win32,116,138063,135061,116,116,627238,628752,622235,139565,622235,116,,,,,,visual_patterns,0,0,0,yes,1366
undefined,undefined,undefined,undefined,white,no,Mozilla,Netscape,"5.0 (Windows NT 10.0; Win64; x64) AppleWebKit/537.36 (KHTML, like Gecko) Chrome/98.0.4758.102 Safari/537.36",xpyriment,legacy,legacy,0,uniform,0,0,0,0,24,24,24,0,0,72,72,72,72,72,0,72,0,,,,,,0,,25-01-22,25-01-22,13:27:50,Fri Feb 25 2022 13:27:50 GMT+0100 (Central European Standard Time),The main experiment item,yes,0,0,C:/Users/rrics/Documents/!!ResearchBMECOGSCI/gnet,0,0,0,prototype1.png,no,mono,no,18,no,black,no,no,768,1138,3.5.6,legacy,xpyriment,osweb,1.3.13,0,space,space,space,,19539,26668,19539,,2,legacy,680,1280,24,720,24,0,0,1280,1645792110427,1024,2,48000,-16,experiment,prototype5.png,0,even,Win32,116,138063,135061,116,116,633763,635275,628759,139565,628759,116,,,,,,visual_patterns,0,0,0,yes,1366
undefined,undefined,undefined,undefined,white,no,Mozilla,Netscape,"5.0 (Windows NT 10.0; Win64; x64) AppleWebKit/537.36 (KHTML, like Gecko) Chrome/98.0.4758.102 Safari/537.36",xpyriment,legacy,legacy,0,uniform,0,0,0,0,24,24,24,0,0,73,73,73,73,73,0,73,0,,,,,,0,,25-01-22,25-01-22,13:27:50,Fri Feb 25 2022 13:27:50 GMT+0100 (Central European Standard Time),The main experiment item,yes,0,0,C:/Users/rrics/Documents/!!ResearchBMECOGSCI/gnet,0,0,0,prototype1.png,no,mono,no,18,no,black,no,no,768,1138,3.5.6,legacy,xpyriment,osweb,1.3.13,0,space,space,space,,19539,26668,19539,,2,legacy,680,1280,24,720,24,0,0,1280,1645792110427,1024,2,48000,-16,experiment,prototype3.png,0,even,Win32,116,138063,135061,116,116,640284,641798,635281,139565,635281,116,,,,,,visual_patterns,0,0,0,yes,1366
undefined,undefined,undefined,undefined,white,no,Mozilla,Netscape,"5.0 (Windows NT 10.0; Win64; x64) AppleWebKit/537.36 (KHTML, like Gecko) Chrome/98.0.4758.102 Safari/537.36",xpyriment,legacy,legacy,0,uniform,0,0,0,0,24,24,24,0,0,74,74,74,74,74,0,74,0,,,,,,0,,25-01-22,25-01-22,13:27:50,Fri Feb 25 2022 13:27:50 GMT+0100 (Central European Standard Time),The main experiment item,yes,0,0,C:/Users/rrics/Documents/!!ResearchBMECOGSCI/gnet,0,0,0,prototype1.png,no,mono,no,18,no,black,no,no,768,1138,3.5.6,legacy,xpyriment,osweb,1.3.13,0,space,space,space,,19539,26668,19539,,2,legacy,680,1280,24,720,24,0,0,1280,1645792110427,1024,2,48000,-16,experiment,prototype2.png,0,even,Win32,116,138063,135061,116,116,646807,648321,641805,139565,641805,116,,,,,,visual_patterns,0,0,0,yes,1366
undefined,undefined,undefined,undefined,white,no,Mozilla,Netscape,"5.0 (Windows NT 10.0; Win64; x64) AppleWebKit/537.36 (KHTML, like Gecko) Chrome/98.0.4758.102 Safari/537.36",xpyriment,legacy,legacy,0,uniform,0,0,0,0,24,24,24,0,0,74,74,74,74,74,0,74,0,0,0,0,0,0,0,0,25-01-22,25-01-22,13:27:50,Fri Feb 25 2022 13:27:50 GMT+0100 (Central European Standard Time),The main experiment item,yes,0,0,C:/Users/rrics/Documents/!!ResearchBMECOGSCI/gnet,0,0,0,prototype1.png,no,mono,no,18,no,black,no,no,768,1138,3.5.6,legacy,xpyriment,osweb,1.3.13,0,space,space,space,space,33398,26668,19539,33398,2,legacy,680,1280,24,720,24,0,0,1280,1645792110427,1024,2,48000,-16,experiment,p5sarrsha3.png,0,even,Win32,116,138063,135061,116,116,646807,648321,641805,139565,641805,116,684737,686242,681740,648323,681740,visual_patterns,0,0,0,yes,1366
undefined,undefined,undefined,undefined,white,no,Mozilla,Netscape,"5.0 (Windows NT 10.0; Win64; x64) AppleWebKit/537.36 (KHTML, like Gecko) Chrome/98.0.4758.102 Safari/537.36",xpyriment,legacy,legacy,0,uniform,0,0,0,0,24,24,24,0,0,74,74,74,74,74,0,74,0,1,1,1,1,1,0,1,25-01-22,25-01-22,13:27:50,Fri Feb 25 2022 13:27:50 GMT+0100 (Central European Standard Time),The main experiment item,yes,0,0,C:/Users/rrics/Documents/!!ResearchBMECOGSCI/gnet,0,0,0,prototype1.png,no,mono,no,18,no,black,no,no,768,1138,3.5.6,legacy,xpyriment,osweb,1.3.13,0,space,space,space,space,33398,26668,19539,33398,2,legacy,680,1280,24,720,24,0,0,1280,1645792110427,1024,2,48000,-16,experiment,p2sarrshacol1.png,0,even,Win32,116,138063,135061,116,116,646807,648321,641805,139565,641805,116,689253,690764,686251,648323,686251,visual_patterns,0,0,0,yes,1366
undefined,undefined,undefined,undefined,white,no,Mozilla,Netscape,"5.0 (Windows NT 10.0; Win64; x64) AppleWebKit/537.36 (KHTML, like Gecko) Chrome/98.0.4758.102 Safari/537.36",xpyriment,legacy,legacy,0,uniform,0,0,0,0,24,24,24,0,0,74,74,74,74,74,0,74,0,2,2,2,2,2,0,2,25-01-22,25-01-22,13:27:50,Fri Feb 25 2022 13:27:50 GMT+0100 (Central European Standard Time),The main experiment item,yes,0,0,C:/Users/rrics/Documents/!!ResearchBMECOGSCI/gnet,0,0,0,prototype1.png,no,mono,no,18,no,black,no,no,768,1138,3.5.6,legacy,xpyriment,osweb,1.3.13,0,space,space,space,space,33398,26668,19539,33398,2,legacy,680,1280,24,720,24,0,0,1280,1645792110427,1024,2,48000,-16,experiment,p4sarr4.png,0,even,Win32,116,138063,135061,116,116,646807,648321,641805,139565,641805,116,693776,695285,690773,648323,690773,visual_patterns,0,0,0,yes,1366
undefined,undefined,undefined,undefined,white,no,Mozilla,Netscape,"5.0 (Windows NT 10.0; Win64; x64) AppleWebKit/537.36 (KHTML, like Gecko) Chrome/98.0.4758.102 Safari/537.36",xpyriment,legacy,legacy,0,uniform,0,0,0,0,24,24,24,0,0,74,74,74,74,74,0,74,0,3,3,3,3,3,0,3,25-01-22,25-01-22,13:27:50,Fri Feb 25 2022 13:27:50 GMT+0100 (Central European Standard Time),The main experiment item,yes,0,0,C:/Users/rrics/Documents/!!ResearchBMECOGSCI/gnet,0,0,0,prototype1.png,no,mono,no,18,no,black,no,no,768,1138,3.5.6,legacy,xpyriment,osweb,1.3.13,0,space,space,space,space,33398,26668,19539,33398,2,legacy,680,1280,24,720,24,0,0,1280,1645792110427,1024,2,48000,-16,experiment,p5sarrsha2.png,0,even,Win32,116,138063,135061,116,116,646807,648321,641805,139565,641805,116,698294,699806,695293,648323,695293,visual_patterns,0,0,0,yes,1366
undefined,undefined,undefined,undefined,white,no,Mozilla,Netscape,"5.0 (Windows NT 10.0; Win64; x64) AppleWebKit/537.36 (KHTML, like Gecko) Chrome/98.0.4758.102 Safari/537.36",xpyriment,legacy,legacy,0,uniform,0,0,0,0,24,24,24,0,0,74,74,74,74,74,0,74,0,4,4,4,4,4,0,4,25-01-22,25-01-22,13:27:50,Fri Feb 25 2022 13:27:50 GMT+0100 (Central European Standard Time),The main experiment item,yes,0,0,C:/Users/rrics/Documents/!!ResearchBMECOGSCI/gnet,0,0,0,prototype1.png,no,mono,no,18,no,black,no,no,768,1138,3.5.6,legacy,xpyriment,osweb,1.3.13,0,space,space,space,space,33398,26668,19539,33398,2,legacy,680,1280,24,720,24,0,0,1280,1645792110427,1024,2,48000,-16,experiment,p7sarr2.png,0,even,Win32,116,138063,135061,116,116,646807,648321,641805,139565,641805,116,702829,704344,699825,648323,699825,visual_patterns,0,0,0,yes,1366
undefined,undefined,undefined,undefined,white,no,Mozilla,Netscape,"5.0 (Windows NT 10.0; Win64; x64) AppleWebKit/537.36 (KHTML, like Gecko) Chrome/98.0.4758.102 Safari/537.36",xpyriment,legacy,legacy,0,uniform,0,0,0,0,24,24,24,0,0,74,74,74,74,74,0,74,0,5,5,5,5,5,0,5,25-01-22,25-01-22,13:27:50,Fri Feb 25 2022 13:27:50 GMT+0100 (Central European Standard Time),The main experiment item,yes,0,0,C:/Users/rrics/Documents/!!ResearchBMECOGSCI/gnet,0,0,0,prototype1.png,no,mono,no,18,no,black,no,no,768,1138,3.5.6,legacy,xpyriment,osweb,1.3.13,0,space,space,space,space,33398,26668,19539,33398,2,legacy,680,1280,24,720,24,0,0,1280,1645792110427,1024,2,48000,-16,experiment,p1sarrsha4.png,0,even,Win32,116,138063,135061,116,116,646807,648321,641805,139565,641805,116,707356,708865,704354,648323,704354,visual_patterns,0,0,0,yes,1366
undefined,undefined,undefined,undefined,white,no,Mozilla,Netscape,"5.0 (Windows NT 10.0; Win64; x64) AppleWebKit/537.36 (KHTML, like Gecko) Chrome/98.0.4758.102 Safari/537.36",xpyriment,legacy,legacy,0,uniform,0,0,0,0,24,24,24,0,0,74,74,74,74,74,0,74,0,6,6,6,6,6,0,6,25-01-22,25-01-22,13:27:50,Fri Feb 25 2022 13:27:50 GMT+0100 (Central European Standard Time),The main experiment item,yes,0,0,C:/Users/rrics/Documents/!!ResearchBMECOGSCI/gnet,0,0,0,prototype1.png,no,mono,no,18,no,black,no,no,768,1138,3.5.6,legacy,xpyriment,osweb,1.3.13,0,space,space,space,space,33398,26668,19539,33398,2,legacy,680,1280,24,720,24,0,0,1280,1645792110427,1024,2,48000,-16,experiment,p3sarrcol2.png,0,even,Win32,116,138063,135061,116,116,646807,648321,641805,139565,641805,116,711876,713386,708873,648323,708873,visual_patterns,0,0,0,yes,1366
undefined,undefined,undefined,undefined,white,no,Mozilla,Netscape,"5.0 (Windows NT 10.0; Win64; x64) AppleWebKit/537.36 (KHTML, like Gecko) Chrome/98.0.4758.102 Safari/537.36",xpyriment,legacy,legacy,0,uniform,0,0,0,0,24,24,24,0,0,74,74,74,74,74,0,74,0,7,7,7,7,7,0,7,25-01-22,25-01-22,13:27:50,Fri Feb 25 2022 13:27:50 GMT+0100 (Central European Standard Time),The main experiment item,yes,0,0,C:/Users/rrics/Documents/!!ResearchBMECOGSCI/gnet,0,0,0,prototype1.png,no,mono,no,18,no,black,no,no,768,1138,3.5.6,legacy,xpyriment,osweb,1.3.13,0,space,space,space,space,33398,26668,19539,33398,2,legacy,680,1280,24,720,24,0,0,1280,1645792110427,1024,2,48000,-16,experiment,p3sarrcol3.png,0,even,Win32,116,138063,135061,116,116,646807,648321,641805,139565,641805,116,716395,717907,713396,648323,713395,visual_patterns,0,0,0,yes,1366
undefined,undefined,undefined,undefined,white,no,Mozilla,Netscape,"5.0 (Windows NT 10.0; Win64; x64) AppleWebKit/537.36 (KHTML, like Gecko) Chrome/98.0.4758.102 Safari/537.36",xpyriment,legacy,legacy,0,uniform,0,0,0,0,24,24,24,0,0,74,74,74,74,74,0,74,0,8,8,8,8,8,0,8,25-01-22,25-01-22,13:27:50,Fri Feb 25 2022 13:27:50 GMT+0100 (Central European Standard Time),The main experiment item,yes,0,0,C:/Users/rrics/Documents/!!ResearchBMECOGSCI/gnet,0,0,0,prototype1.png,no,mono,no,18,no,black,no,no,768,1138,3.5.6,legacy,xpyriment,osweb,1.3.13,0,space,space,space,space,33398,26668,19539,33398,2,legacy,680,1280,24,720,24,0,0,1280,1645792110427,1024,2,48000,-16,experiment,p1sarrsha1.png,0,even,Win32,116,138063,135061,116,116,646807,648321,641805,139565,641805,116,720917,722429,717916,648323,717916,visual_patterns,0,0,0,yes,1366
undefined,undefined,undefined,undefined,white,no,Mozilla,Netscape,"5.0 (Windows NT 10.0; Win64; x64) AppleWebKit/537.36 (KHTML, like Gecko) Chrome/98.0.4758.102 Safari/537.36",xpyriment,legacy,legacy,0,uniform,0,0,0,0,24,24,24,0,0,74,74,74,74,74,0,74,0,9,9,9,9,9,0,9,25-01-22,25-01-22,13:27:50,Fri Feb 25 2022 13:27:50 GMT+0100 (Central European Standard Time),The main experiment item,yes,0,0,C:/Users/rrics/Documents/!!ResearchBMECOGSCI/gnet,0,0,0,prototype1.png,no,mono,no,18,no,black,no,no,768,1138,3.5.6,legacy,xpyriment,osweb,1.3.13,0,space,space,space,space,33398,26668,19539,33398,2,legacy,680,1280,24,720,24,0,0,1280,1645792110427,1024,2,48000,-16,experiment,p4sarr1.png,0,even,Win32,116,138063,135061,116,116,646807,648321,641805,139565,641805,116,725450,726966,722449,648323,722448,visual_patterns,0,0,0,yes,1366
undefined,undefined,undefined,undefined,white,no,Mozilla,Netscape,"5.0 (Windows NT 10.0; Win64; x64) AppleWebKit/537.36 (KHTML, like Gecko) Chrome/98.0.4758.102 Safari/537.36",xpyriment,legacy,legacy,0,uniform,0,0,0,0,24,24,24,0,0,74,74,74,74,74,0,74,0,10,10,10,10,10,0,10,25-01-22,25-01-22,13:27:50,Fri Feb 25 2022 13:27:50 GMT+0100 (Central European Standard Time),The main experiment item,yes,0,0,C:/Users/rrics/Documents/!!ResearchBMECOGSCI/gnet,0,0,0,prototype1.png,no,mono,no,18,no,black,no,no,768,1138,3.5.6,legacy,xpyriment,osweb,1.3.13,0,space,space,space,space,33398,26668,19539,33398,2,legacy,680,1280,24,720,24,0,0,1280,1645792110427,1024,2,48000,-16,experiment,p9sarr2.png,0,even,Win32,116,138063,135061,116,116,646807,648321,641805,139565,641805,116,729976,731488,726975,648323,726975,visual_patterns,0,0,0,yes,1366
undefined,undefined,undefined,undefined,white,no,Mozilla,Netscape,"5.0 (Windows NT 10.0; Win64; x64) AppleWebKit/537.36 (KHTML, like Gecko) Chrome/98.0.4758.102 Safari/537.36",xpyriment,legacy,legacy,0,uniform,0,0,0,0,24,24,24,0,0,74,74,74,74,74,0,74,0,11,11,11,11,11,0,11,25-01-22,25-01-22,13:27:50,Fri Feb 25 2022 13:27:50 GMT+0100 (Central European Standard Time),The main experiment item,yes,0,0,C:/Users/rrics/Documents/!!ResearchBMECOGSCI/gnet,0,0,0,prototype1.png,no,mono,no,18,no,black,no,no,768,1138,3.5.6,legacy,xpyriment,osweb,1.3.13,0,space,space,space,space,33398,26668,19539,33398,2,legacy,680,1280,24,720,24,0,0,1280,1645792110427,1024,2,48000,-16,experiment,p1sarr2.png,0,even,Win32,116,138063,135061,116,116,646807,648321,641805,139565,641805,116,734498,736008,731496,648323,731496,visual_patterns,0,0,0,yes,1366
undefined,undefined,undefined,undefined,white,no,Mozilla,Netscape,"5.0 (Windows NT 10.0; Win64; x64) AppleWebKit/537.36 (KHTML, like Gecko) Chrome/98.0.4758.102 Safari/537.36",xpyriment,legacy,legacy,0,uniform,0,0,0,0,24,24,24,0,0,74,74,74,74,74,0,74,0,12,12,12,12,12,0,12,25-01-22,25-01-22,13:27:50,Fri Feb 25 2022 13:27:50 GMT+0100 (Central European Standard Time),The main experiment item,yes,0,0,C:/Users/rrics/Documents/!!ResearchBMECOGSCI/gnet,0,0,0,prototype1.png,no,mono,no,18,no,black,no,no,768,1138,3.5.6,legacy,xpyriment,osweb,1.3.13,0,space,space,space,space,33398,26668,19539,33398,2,legacy,680,1280,24,720,24,0,0,1280,1645792110427,1024,2,48000,-16,experiment,p3sarrcol4.png,0,even,Win32,116,138063,135061,116,116,646807,648321,641805,139565,641805,116,739021,740530,736018,648323,736018,visual_patterns,0,0,0,yes,1366
undefined,undefined,undefined,undefined,white,no,Mozilla,Netscape,"5.0 (Windows NT 10.0; Win64; x64) AppleWebKit/537.36 (KHTML, like Gecko) Chrome/98.0.4758.102 Safari/537.36",xpyriment,legacy,legacy,0,uniform,0,0,0,0,24,24,24,0,0,74,74,74,74,74,0,74,0,13,13,13,13,13,0,13,25-01-22,25-01-22,13:27:50,Fri Feb 25 2022 13:27:50 GMT+0100 (Central European Standard Time),The main experiment item,yes,0,0,C:/Users/rrics/Documents/!!ResearchBMECOGSCI/gnet,0,0,0,prototype1.png,no,mono,no,18,no,black,no,no,768,1138,3.5.6,legacy,xpyriment,osweb,1.3.13,0,space,space,space,space,33398,26668,19539,33398,2,legacy,680,1280,24,720,24,0,0,1280,1645792110427,1024,2,48000,-16,experiment,p2sarrshacol2.png,0,even,Win32,116,138063,135061,116,116,646807,648321,641805,139565,641805,116,743541,745051,740539,648323,740539,visual_patterns,0,0,0,yes,1366
undefined,undefined,undefined,undefined,white,no,Mozilla,Netscape,"5.0 (Windows NT 10.0; Win64; x64) AppleWebKit/537.36 (KHTML, like Gecko) Chrome/98.0.4758.102 Safari/537.36",xpyriment,legacy,legacy,0,uniform,0,0,0,0,24,24,24,0,0,74,74,74,74,74,0,74,0,14,14,14,14,14,0,14,25-01-22,25-01-22,13:27:50,Fri Feb 25 2022 13:27:50 GMT+0100 (Central European Standard Time),The main experiment item,yes,0,0,C:/Users/rrics/Documents/!!ResearchBMECOGSCI/gnet,0,0,0,prototype1.png,no,mono,no,18,no,black,no,no,768,1138,3.5.6,legacy,xpyriment,osweb,1.3.13,0,space,space,space,space,33398,26668,19539,33398,2,legacy,680,1280,24,720,24,0,0,1280,1645792110427,1024,2,48000,-16,experiment,p6sarr1.png,0,even,Win32,116,138063,135061,116,116,646807,648321,641805,139565,641805,116,748063,749572,745060,648323,745060,visual_patterns,0,0,0,yes,1366
undefined,undefined,undefined,undefined,white,no,Mozilla,Netscape,"5.0 (Windows NT 10.0; Win64; x64) AppleWebKit/537.36 (KHTML, like Gecko) Chrome/98.0.4758.102 Safari/537.36",xpyriment,legacy,legacy,0,uniform,0,0,0,0,24,24,24,0,0,74,74,74,74,74,0,74,0,15,15,15,15,15,0,15,25-01-22,25-01-22,13:27:50,Fri Feb 25 2022 13:27:50 GMT+0100 (Central European Standard Time),The main experiment item,yes,0,0,C:/Users/rrics/Documents/!!ResearchBMECOGSCI/gnet,0,0,0,prototype1.png,no,mono,no,18,no,black,no,no,768,1138,3.5.6,legacy,xpyriment,osweb,1.3.13,0,space,space,space,space,33398,26668,19539,33398,2,legacy,680,1280,24,720,24,0,0,1280,1645792110427,1024,2,48000,-16,experiment,p4sarrshacol3.png,0,even,Win32,116,138063,135061,116,116,646807,648321,641805,139565,641805,116,752584,754093,749584,648323,749584,visual_patterns,0,0,0,yes,1366
undefined,undefined,undefined,undefined,white,no,Mozilla,Netscape,"5.0 (Windows NT 10.0; Win64; x64) AppleWebKit/537.36 (KHTML, like Gecko) Chrome/98.0.4758.102 Safari/537.36",xpyriment,legacy,legacy,0,uniform,0,0,0,0,24,24,24,0,0,74,74,74,74,74,0,74,0,16,16,16,16,16,0,16,25-01-22,25-01-22,13:27:50,Fri Feb 25 2022 13:27:50 GMT+0100 (Central European Standard Time),The main experiment item,yes,0,0,C:/Users/rrics/Documents/!!ResearchBMECOGSCI/gnet,0,0,0,prototype1.png,no,mono,no,18,no,black,no,no,768,1138,3.5.6,legacy,xpyriment,osweb,1.3.13,0,space,space,space,space,33398,26668,19539,33398,2,legacy,680,1280,24,720,24,0,0,1280,1645792110427,1024,2,48000,-16,experiment,p4sarrshacol4.png,0,even,Win32,116,138063,135061,116,116,646807,648321,641805,139565,641805,116,757104,758615,754103,648323,754102,visual_patterns,0,0,0,yes,1366
undefined,undefined,undefined,undefined,white,no,Mozilla,Netscape,"5.0 (Windows NT 10.0; Win64; x64) AppleWebKit/537.36 (KHTML, like Gecko) Chrome/98.0.4758.102 Safari/537.36",xpyriment,legacy,legacy,0,uniform,0,0,0,0,24,24,24,0,0,74,74,74,74,74,0,74,0,17,17,17,17,17,0,17,25-01-22,25-01-22,13:27:50,Fri Feb 25 2022 13:27:50 GMT+0100 (Central European Standard Time),The main experiment item,yes,0,0,C:/Users/rrics/Documents/!!ResearchBMECOGSCI/gnet,0,0,0,prototype1.png,no,mono,no,18,no,black,no,no,768,1138,3.5.6,legacy,xpyriment,osweb,1.3.13,0,space,space,space,space,33398,26668,19539,33398,2,legacy,680,1280,24,720,24,0,0,1280,1645792110427,1024,2,48000,-16,experiment,p2sarrcol1.png,0,even,Win32,116,138063,135061,116,116,646807,648321,641805,139565,641805,116,761624,763136,758624,648323,758624,visual_patterns,0,0,0,yes,1366
undefined,undefined,undefined,undefined,white,no,Mozilla,Netscape,"5.0 (Windows NT 10.0; Win64; x64) AppleWebKit/537.36 (KHTML, like Gecko) Chrome/98.0.4758.102 Safari/537.36",xpyriment,legacy,legacy,0,uniform,0,0,0,0,24,24,24,0,0,74,74,74,74,74,0,74,0,18,18,18,18,18,0,18,25-01-22,25-01-22,13:27:50,Fri Feb 25 2022 13:27:50 GMT+0100 (Central European Standard Time),The main experiment item,yes,0,0,C:/Users/rrics/Documents/!!ResearchBMECOGSCI/gnet,0,0,0,prototype1.png,no,mono,no,18,no,black,no,no,768,1138,3.5.6,legacy,xpyriment,osweb,1.3.13,0,space,space,space,space,33398,26668,19539,33398,2,legacy,680,1280,24,720,24,0,0,1280,1645792110427,1024,2,48000,-16,experiment,p1sarr4.png,0,even,Win32,116,138063,135061,116,116,646807,648321,641805,139565,641805,116,766146,767658,763146,648323,763146,visual_patterns,0,0,0,yes,1366
undefined,undefined,undefined,undefined,white,no,Mozilla,Netscape,"5.0 (Windows NT 10.0; Win64; x64) AppleWebKit/537.36 (KHTML, like Gecko) Chrome/98.0.4758.102 Safari/537.36",xpyriment,legacy,legacy,0,uniform,0,0,0,0,24,24,24,0,0,74,74,74,74,74,0,74,0,19,19,19,19,19,0,19,25-01-22,25-01-22,13:27:50,Fri Feb 25 2022 13:27:50 GMT+0100 (Central European Standard Time),The main experiment item,yes,0,0,C:/Users/rrics/Documents/!!ResearchBMECOGSCI/gnet,0,0,0,prototype1.png,no,mono,no,18,no,black,no,no,768,1138,3.5.6,legacy,xpyriment,osweb,1.3.13,0,space,space,space,space,33398,26668,19539,33398,2,legacy,680,1280,24,720,24,0,0,1280,1645792110427,1024,2,48000,-16,experiment,p10sarr1.png,0,even,Win32,116,138063,135061,116,116,646807,648321,641805,139565,641805,116,770666,772178,767666,648323,767666,visual_patterns,0,0,0,yes,1366
undefined,undefined,undefined,undefined,white,no,Mozilla,Netscape,"5.0 (Windows NT 10.0; Win64; x64) AppleWebKit/537.36 (KHTML, like Gecko) Chrome/98.0.4758.102 Safari/537.36",xpyriment,legacy,legacy,0,uniform,0,0,0,0,24,24,24,0,0,74,74,74,74,74,0,74,0,20,20,20,20,20,0,20,25-01-22,25-01-22,13:27:50,Fri Feb 25 2022 13:27:50 GMT+0100 (Central European Standard Time),The main experiment item,yes,0,0,C:/Users/rrics/Documents/!!ResearchBMECOGSCI/gnet,0,0,0,prototype1.png,no,mono,no,18,no,black,no,no,768,1138,3.5.6,legacy,xpyriment,osweb,1.3.13,0,space,space,space,space,33398,26668,19539,33398,2,legacy,680,1280,24,720,24,0,0,1280,1645792110427,1024,2,48000,-16,experiment,p8sarr3.png,0,even,Win32,116,138063,135061,116,116,646807,648321,641805,139565,641805,116,775189,776699,772188,648323,772187,visual_patterns,0,0,0,yes,1366
undefined,undefined,undefined,undefined,white,no,Mozilla,Netscape,"5.0 (Windows NT 10.0; Win64; x64) AppleWebKit/537.36 (KHTML, like Gecko) Chrome/98.0.4758.102 Safari/537.36",xpyriment,legacy,legacy,0,uniform,0,0,0,0,24,24,24,0,0,74,74,74,74,74,0,74,0,21,21,21,21,21,0,21,25-01-22,25-01-22,13:27:50,Fri Feb 25 2022 13:27:50 GMT+0100 (Central European Standard Time),The main experiment item,yes,0,0,C:/Users/rrics/Documents/!!ResearchBMECOGSCI/gnet,0,0,0,prototype1.png,no,mono,no,18,no,black,no,no,768,1138,3.5.6,legacy,xpyriment,osweb,1.3.13,0,space,space,space,space,33398,26668,19539,33398,2,legacy,680,1280,24,720,24,0,0,1280,1645792110427,1024,2,48000,-16,experiment,p9sarr4.png,0,even,Win32,116,138063,135061,116,116,646807,648321,641805,139565,641805,116,779710,781220,776709,648323,776709,visual_patterns,0,0,0,yes,1366
undefined,undefined,undefined,undefined,white,no,Mozilla,Netscape,"5.0 (Windows NT 10.0; Win64; x64) AppleWebKit/537.36 (KHTML, like Gecko) Chrome/98.0.4758.102 Safari/537.36",xpyriment,legacy,legacy,0,uniform,0,0,0,0,24,24,24,0,0,74,74,74,74,74,0,74,0,22,22,22,22,22,0,22,25-01-22,25-01-22,13:27:50,Fri Feb 25 2022 13:27:50 GMT+0100 (Central European Standard Time),The main experiment item,yes,0,0,C:/Users/rrics/Documents/!!ResearchBMECOGSCI/gnet,0,0,0,prototype1.png,no,mono,no,18,no,black,no,no,768,1138,3.5.6,legacy,xpyriment,osweb,1.3.13,0,space,space,space,space,33398,26668,19539,33398,2,legacy,680,1280,24,720,24,0,0,1280,1645792110427,1024,2,48000,-16,experiment,p5sarrcol2.png,0,even,Win32,116,138063,135061,116,116,646807,648321,641805,139565,641805,116,784231,785742,781230,648323,781230,visual_patterns,0,0,0,yes,1366
undefined,undefined,undefined,undefined,white,no,Mozilla,Netscape,"5.0 (Windows NT 10.0; Win64; x64) AppleWebKit/537.36 (KHTML, like Gecko) Chrome/98.0.4758.102 Safari/537.36",xpyriment,legacy,legacy,0,uniform,0,0,0,0,24,24,24,0,0,74,74,74,74,74,0,74,0,23,23,23,23,23,0,23,25-01-22,25-01-22,13:27:50,Fri Feb 25 2022 13:27:50 GMT+0100 (Central European Standard Time),The main experiment item,yes,0,0,C:/Users/rrics/Documents/!!ResearchBMECOGSCI/gnet,0,0,0,prototype1.png,no,mono,no,18,no,black,no,no,768,1138,3.5.6,legacy,xpyriment,osweb,1.3.13,0,space,space,space,space,33398,26668,19539,33398,2,legacy,680,1280,24,720,24,0,0,1280,1645792110427,1024,2,48000,-16,experiment,p7sarr4.png,0,even,Win32,116,138063,135061,116,116,646807,648321,641805,139565,641805,116,788752,790263,785751,648323,785751,visual_patterns,0,0,0,yes,1366
undefined,undefined,undefined,undefined,white,no,Mozilla,Netscape,"5.0 (Windows NT 10.0; Win64; x64) AppleWebKit/537.36 (KHTML, like Gecko) Chrome/98.0.4758.102 Safari/537.36",xpyriment,legacy,legacy,0,uniform,0,0,0,0,24,24,24,0,0,74,74,74,74,74,0,74,0,24,24,24,24,24,0,24,25-01-22,25-01-22,13:27:50,Fri Feb 25 2022 13:27:50 GMT+0100 (Central European Standard Time),The main experiment item,yes,0,0,C:/Users/rrics/Documents/!!ResearchBMECOGSCI/gnet,0,0,0,prototype1.png,no,mono,no,18,no,black,no,no,768,1138,3.5.6,legacy,xpyriment,osweb,1.3.13,0,space,space,space,space,33398,26668,19539,33398,2,legacy,680,1280,24,720,24,0,0,1280,1645792110427,1024,2,48000,-16,experiment,p3sarrsha3.png,0,even,Win32,116,138063,135061,116,116,646807,648321,641805,139565,641805,116,793282,794784,790283,648323,790283,visual_patterns,0,0,0,yes,1366
undefined,undefined,undefined,undefined,white,no,Mozilla,Netscape,"5.0 (Windows NT 10.0; Win64; x64) AppleWebKit/537.36 (KHTML, like Gecko) Chrome/98.0.4758.102 Safari/537.36",xpyriment,legacy,legacy,0,uniform,0,0,0,0,24,24,24,0,0,74,74,74,74,74,0,74,0,25,25,25,25,25,0,25,25-01-22,25-01-22,13:27:50,Fri Feb 25 2022 13:27:50 GMT+0100 (Central European Standard Time),The main experiment item,yes,0,0,C:/Users/rrics/Documents/!!ResearchBMECOGSCI/gnet,0,0,0,prototype1.png,no,mono,no,18,no,black,no,no,768,1138,3.5.6,legacy,xpyriment,osweb,1.3.13,0,space,space,space,space,33398,26668,19539,33398,2,legacy,680,1280,24,720,24,0,0,1280,1645792110427,1024,2,48000,-16,experiment,p8sarr4.png,0,even,Win32,116,138063,135061,116,116,646807,648321,641805,139565,641805,116,797796,799305,794794,648323,794794,visual_patterns,0,0,0,yes,1366
undefined,undefined,undefined,undefined,white,no,Mozilla,Netscape,"5.0 (Windows NT 10.0; Win64; x64) AppleWebKit/537.36 (KHTML, like Gecko) Chrome/98.0.4758.102 Safari/537.36",xpyriment,legacy,legacy,0,uniform,0,0,0,0,24,24,24,0,0,74,74,74,74,74,0,74,0,26,26,26,26,26,0,26,25-01-22,25-01-22,13:27:50,Fri Feb 25 2022 13:27:50 GMT+0100 (Central European Standard Time),The main experiment item,yes,0,0,C:/Users/rrics/Documents/!!ResearchBMECOGSCI/gnet,0,0,0,prototype1.png,no,mono,no,18,no,black,no,no,768,1138,3.5.6,legacy,xpyriment,osweb,1.3.13,0,space,space,space,space,33398,26668,19539,33398,2,legacy,680,1280,24,720,24,0,0,1280,1645792110427,1024,2,48000,-16,experiment,p2sarrshacol4.png,0,even,Win32,116,138063,135061,116,116,646807,648321,641805,139565,641805,116,802314,803826,799314,648323,799314,visual_patterns,0,0,0,yes,1366
undefined,undefined,undefined,undefined,white,no,Mozilla,Netscape,"5.0 (Windows NT 10.0; Win64; x64) AppleWebKit/537.36 (KHTML, like Gecko) Chrome/98.0.4758.102 Safari/537.36",xpyriment,legacy,legacy,0,uniform,0,0,0,0,24,24,24,0,0,74,74,74,74,74,0,74,0,27,27,27,27,27,0,27,25-01-22,25-01-22,13:27:50,Fri Feb 25 2022 13:27:50 GMT+0100 (Central European Standard Time),The main experiment item,yes,0,0,C:/Users/rrics/Documents/!!ResearchBMECOGSCI/gnet,0,0,0,prototype1.png,no,mono,no,18,no,black,no,no,768,1138,3.5.6,legacy,xpyriment,osweb,1.3.13,0,space,space,space,space,33398,26668,19539,33398,2,legacy,680,1280,24,720,24,0,0,1280,1645792110427,1024,2,48000,-16,experiment,p4sarrshacol1.png,0,even,Win32,116,138063,135061,116,116,646807,648321,641805,139565,641805,116,806835,808348,803835,648323,803835,visual_patterns,0,0,0,yes,1366
undefined,undefined,undefined,undefined,white,no,Mozilla,Netscape,"5.0 (Windows NT 10.0; Win64; x64) AppleWebKit/537.36 (KHTML, like Gecko) Chrome/98.0.4758.102 Safari/537.36",xpyriment,legacy,legacy,0,uniform,0,0,0,0,24,24,24,0,0,74,74,74,74,74,0,74,0,28,28,28,28,28,0,28,25-01-22,25-01-22,13:27:50,Fri Feb 25 2022 13:27:50 GMT+0100 (Central European Standard Time),The main experiment item,yes,0,0,C:/Users/rrics/Documents/!!ResearchBMECOGSCI/gnet,0,0,0,prototype1.png,no,mono,no,18,no,black,no,no,768,1138,3.5.6,legacy,xpyriment,osweb,1.3.13,0,space,space,space,space,33398,26668,19539,33398,2,legacy,680,1280,24,720,24,0,0,1280,1645792110427,1024,2,48000,-16,experiment,p1sarrshacol3.png,0,even,Win32,116,138063,135061,116,116,646807,648321,641805,139565,641805,116,811362,812869,808358,648323,808358,visual_patterns,0,0,0,yes,1366
undefined,undefined,undefined,undefined,white,no,Mozilla,Netscape,"5.0 (Windows NT 10.0; Win64; x64) AppleWebKit/537.36 (KHTML, like Gecko) Chrome/98.0.4758.102 Safari/537.36",xpyriment,legacy,legacy,0,uniform,0,0,0,0,24,24,24,0,0,74,74,74,74,74,0,74,0,29,29,29,29,29,0,29,25-01-22,25-01-22,13:27:50,Fri Feb 25 2022 13:27:50 GMT+0100 (Central European Standard Time),The main experiment item,yes,0,0,C:/Users/rrics/Documents/!!ResearchBMECOGSCI/gnet,0,0,0,prototype1.png,no,mono,no,18,no,black,no,no,768,1138,3.5.6,legacy,xpyriment,osweb,1.3.13,0,space,space,space,space,33398,26668,19539,33398,2,legacy,680,1280,24,720,24,0,0,1280,1645792110427,1024,2,48000,-16,experiment,p2sarrsha1.png,0,even,Win32,116,138063,135061,116,116,646807,648321,641805,139565,641805,116,815890,817407,812886,648323,812886,visual_patterns,0,0,0,yes,1366
undefined,undefined,undefined,undefined,white,no,Mozilla,Netscape,"5.0 (Windows NT 10.0; Win64; x64) AppleWebKit/537.36 (KHTML, like Gecko) Chrome/98.0.4758.102 Safari/537.36",xpyriment,legacy,legacy,0,uniform,0,0,0,0,24,24,24,0,0,74,74,74,74,74,0,74,0,30,30,30,30,30,0,30,25-01-22,25-01-22,13:27:50,Fri Feb 25 2022 13:27:50 GMT+0100 (Central European Standard Time),The main experiment item,yes,0,0,C:/Users/rrics/Documents/!!ResearchBMECOGSCI/gnet,0,0,0,prototype1.png,no,mono,no,18,no,black,no,no,768,1138,3.5.6,legacy,xpyriment,osweb,1.3.13,0,space,space,space,space,33398,26668,19539,33398,2,legacy,680,1280,24,720,24,0,0,1280,1645792110427,1024,2,48000,-16,experiment,p3sarr2.png,0,even,Win32,116,138063,135061,116,116,646807,648321,641805,139565,641805,116,820415,821928,817416,648323,817416,visual_patterns,0,0,0,yes,1366
undefined,undefined,undefined,undefined,white,no,Mozilla,Netscape,"5.0 (Windows NT 10.0; Win64; x64) AppleWebKit/537.36 (KHTML, like Gecko) Chrome/98.0.4758.102 Safari/537.36",xpyriment,legacy,legacy,0,uniform,0,0,0,0,24,24,24,0,0,74,74,74,74,74,0,74,0,31,31,31,31,31,0,31,25-01-22,25-01-22,13:27:50,Fri Feb 25 2022 13:27:50 GMT+0100 (Central European Standard Time),The main experiment item,yes,0,0,C:/Users/rrics/Documents/!!ResearchBMECOGSCI/gnet,0,0,0,prototype1.png,no,mono,no,18,no,black,no,no,768,1138,3.5.6,legacy,xpyriment,osweb,1.3.13,0,space,space,space,space,33398,26668,19539,33398,2,legacy,680,1280,24,720,24,0,0,1280,1645792110427,1024,2,48000,-16,experiment,p3sarrshacol3.png,0,even,Win32,116,138063,135061,116,116,646807,648321,641805,139565,641805,116,824935,826449,821937,648323,821937,visual_patterns,0,0,0,yes,1366
undefined,undefined,undefined,undefined,white,no,Mozilla,Netscape,"5.0 (Windows NT 10.0; Win64; x64) AppleWebKit/537.36 (KHTML, like Gecko) Chrome/98.0.4758.102 Safari/537.36",xpyriment,legacy,legacy,0,uniform,0,0,0,0,24,24,24,0,0,74,74,74,74,74,0,74,0,32,32,32,32,32,0,32,25-01-22,25-01-22,13:27:50,Fri Feb 25 2022 13:27:50 GMT+0100 (Central European Standard Time),The main experiment item,yes,0,0,C:/Users/rrics/Documents/!!ResearchBMECOGSCI/gnet,0,0,0,prototype1.png,no,mono,no,18,no,black,no,no,768,1138,3.5.6,legacy,xpyriment,osweb,1.3.13,0,space,space,space,space,33398,26668,19539,33398,2,legacy,680,1280,24,720,24,0,0,1280,1645792110427,1024,2,48000,-16,experiment,p2sarrcol4.png,0,even,Win32,116,138063,135061,116,116,646807,648321,641805,139565,641805,116,829458,830970,826458,648323,826458,visual_patterns,0,0,0,yes,1366
undefined,undefined,undefined,undefined,white,no,Mozilla,Netscape,"5.0 (Windows NT 10.0; Win64; x64) AppleWebKit/537.36 (KHTML, like Gecko) Chrome/98.0.4758.102 Safari/537.36",xpyriment,legacy,legacy,0,uniform,0,0,0,0,24,24,24,0,0,74,74,74,74,74,0,74,0,33,33,33,33,33,0,33,25-01-22,25-01-22,13:27:50,Fri Feb 25 2022 13:27:50 GMT+0100 (Central European Standard Time),The main experiment item,yes,0,0,C:/Users/rrics/Documents/!!ResearchBMECOGSCI/gnet,0,0,0,prototype1.png,no,mono,no,18,no,black,no,no,768,1138,3.5.6,legacy,xpyriment,osweb,1.3.13,0,space,space,space,space,33398,26668,19539,33398,2,legacy,680,1280,24,720,24,0,0,1280,1645792110427,1024,2,48000,-16,experiment,p5sarrcol1.png,0,even,Win32,116,138063,135061,116,116,646807,648321,641805,139565,641805,116,833983,835491,830981,648323,830981,visual_patterns,0,0,0,yes,1366
undefined,undefined,undefined,undefined,white,no,Mozilla,Netscape,"5.0 (Windows NT 10.0; Win64; x64) AppleWebKit/537.36 (KHTML, like Gecko) Chrome/98.0.4758.102 Safari/537.36",xpyriment,legacy,legacy,0,uniform,0,0,0,0,24,24,24,0,0,74,74,74,74,74,0,74,0,34,34,34,34,34,0,34,25-01-22,25-01-22,13:27:50,Fri Feb 25 2022 13:27:50 GMT+0100 (Central European Standard Time),The main experiment item,yes,0,0,C:/Users/rrics/Documents/!!ResearchBMECOGSCI/gnet,0,0,0,prototype1.png,no,mono,no,18,no,black,no,no,768,1138,3.5.6,legacy,xpyriment,osweb,1.3.13,0,space,space,space,space,33398,26668,19539,33398,2,legacy,680,1280,24,720,24,0,0,1280,1645792110427,1024,2,48000,-16,experiment,p8sarr2.png,0,even,Win32,116,138063,135061,116,116,646807,648321,641805,139565,641805,116,838509,840013,835509,648323,835509,visual_patterns,0,0,0,yes,1366
undefined,undefined,undefined,undefined,white,no,Mozilla,Netscape,"5.0 (Windows NT 10.0; Win64; x64) AppleWebKit/537.36 (KHTML, like Gecko) Chrome/98.0.4758.102 Safari/537.36",xpyriment,legacy,legacy,0,uniform,0,0,0,0,24,24,24,0,0,74,74,74,74,74,0,74,0,35,35,35,35,35,0,35,25-01-22,25-01-22,13:27:50,Fri Feb 25 2022 13:27:50 GMT+0100 (Central European Standard Time),The main experiment item,yes,0,0,C:/Users/rrics/Documents/!!ResearchBMECOGSCI/gnet,0,0,0,prototype1.png,no,mono,no,18,no,black,no,no,768,1138,3.5.6,legacy,xpyriment,osweb,1.3.13,0,space,space,space,space,33398,26668,19539,33398,2,legacy,680,1280,24,720,24,0,0,1280,1645792110427,1024,2,48000,-16,experiment,p5sarr3.png,0,even,Win32,116,138063,135061,116,116,646807,648321,641805,139565,641805,116,843022,844534,840023,648323,840023,visual_patterns,0,0,0,yes,1366
undefined,undefined,undefined,undefined,white,no,Mozilla,Netscape,"5.0 (Windows NT 10.0; Win64; x64) AppleWebKit/537.36 (KHTML, like Gecko) Chrome/98.0.4758.102 Safari/537.36",xpyriment,legacy,legacy,0,uniform,0,0,0,0,24,24,24,0,0,74,74,74,74,74,0,74,0,36,36,36,36,36,0,36,25-01-22,25-01-22,13:27:50,Fri Feb 25 2022 13:27:50 GMT+0100 (Central European Standard Time),The main experiment item,yes,0,0,C:/Users/rrics/Documents/!!ResearchBMECOGSCI/gnet,0,0,0,prototype1.png,no,mono,no,18,no,black,no,no,768,1138,3.5.6,legacy,xpyriment,osweb,1.3.13,0,space,space,space,space,33398,26668,19539,33398,2,legacy,680,1280,24,720,24,0,0,1280,1645792110427,1024,2,48000,-16,experiment,p7sarr1.png,0,even,Win32,116,138063,135061,116,116,646807,648321,641805,139565,641805,116,847545,849055,844542,648323,844542,visual_patterns,0,0,0,yes,1366
undefined,undefined,undefined,undefined,white,no,Mozilla,Netscape,"5.0 (Windows NT 10.0; Win64; x64) AppleWebKit/537.36 (KHTML, like Gecko) Chrome/98.0.4758.102 Safari/537.36",xpyriment,legacy,legacy,0,uniform,0,0,0,0,24,24,24,0,0,74,74,74,74,74,0,74,0,37,37,37,37,37,0,37,25-01-22,25-01-22,13:27:50,Fri Feb 25 2022 13:27:50 GMT+0100 (Central European Standard Time),The main experiment item,yes,0,0,C:/Users/rrics/Documents/!!ResearchBMECOGSCI/gnet,0,0,0,prototype1.png,no,mono,no,18,no,black,no,no,768,1138,3.5.6,legacy,xpyriment,osweb,1.3.13,0,space,space,space,space,33398,26668,19539,33398,2,legacy,680,1280,24,720,24,0,0,1280,1645792110427,1024,2,48000,-16,experiment,p1sarrcol4.png,0,even,Win32,116,138063,135061,116,116,646807,648321,641805,139565,641805,116,852063,853576,849064,648323,849063,visual_patterns,0,0,0,yes,1366
undefined,undefined,undefined,undefined,white,no,Mozilla,Netscape,"5.0 (Windows NT 10.0; Win64; x64) AppleWebKit/537.36 (KHTML, like Gecko) Chrome/98.0.4758.102 Safari/537.36",xpyriment,legacy,legacy,0,uniform,0,0,0,0,24,24,24,0,0,74,74,74,74,74,0,74,0,38,38,38,38,38,0,38,25-01-22,25-01-22,13:27:50,Fri Feb 25 2022 13:27:50 GMT+0100 (Central European Standard Time),The main experiment item,yes,0,0,C:/Users/rrics/Documents/!!ResearchBMECOGSCI/gnet,0,0,0,prototype1.png,no,mono,no,18,no,black,no,no,768,1138,3.5.6,legacy,xpyriment,osweb,1.3.13,0,space,space,space,space,33398,26668,19539,33398,2,legacy,680,1280,24,720,24,0,0,1280,1645792110427,1024,2,48000,-16,experiment,p3sarrsha4.png,0,even,Win32,116,138063,135061,116,116,646807,648321,641805,139565,641805,116,856585,858097,853585,648323,853585,visual_patterns,0,0,0,yes,1366
undefined,undefined,undefined,undefined,white,no,Mozilla,Netscape,"5.0 (Windows NT 10.0; Win64; x64) AppleWebKit/537.36 (KHTML, like Gecko) Chrome/98.0.4758.102 Safari/537.36",xpyriment,legacy,legacy,0,uniform,0,0,0,0,24,24,24,0,0,74,74,74,74,74,0,74,0,39,39,39,39,39,0,39,25-01-22,25-01-22,13:27:50,Fri Feb 25 2022 13:27:50 GMT+0100 (Central European Standard Time),The main experiment item,yes,0,0,C:/Users/rrics/Documents/!!ResearchBMECOGSCI/gnet,0,0,0,prototype1.png,no,mono,no,18,no,black,no,no,768,1138,3.5.6,legacy,xpyriment,osweb,1.3.13,0,space,space,space,space,33398,26668,19539,33398,2,legacy,680,1280,24,720,24,0,0,1280,1645792110427,1024,2,48000,-16,experiment,p3sarr1.png,0,even,Win32,116,138063,135061,116,116,646807,648321,641805,139565,641805,116,861109,862619,858106,648323,858106,visual_patterns,0,0,0,yes,1366
undefined,undefined,undefined,undefined,white,no,Mozilla,Netscape,"5.0 (Windows NT 10.0; Win64; x64) AppleWebKit/537.36 (KHTML, like Gecko) Chrome/98.0.4758.102 Safari/537.36",xpyriment,legacy,legacy,0,uniform,0,0,0,0,24,24,24,0,0,74,74,74,74,74,0,74,0,40,40,40,40,40,0,40,25-01-22,25-01-22,13:27:50,Fri Feb 25 2022 13:27:50 GMT+0100 (Central European Standard Time),The main experiment item,yes,0,0,C:/Users/rrics/Documents/!!ResearchBMECOGSCI/gnet,0,0,0,prototype1.png,no,mono,no,18,no,black,no,no,768,1138,3.5.6,legacy,xpyriment,osweb,1.3.13,0,space,space,space,space,33398,26668,19539,33398,2,legacy,680,1280,24,720,24,0,0,1280,1645792110427,1024,2,48000,-16,experiment,p2sarrsha3.png,0,even,Win32,116,138063,135061,116,116,646807,648321,641805,139565,641805,116,865629,867140,862628,648323,862628,visual_patterns,0,0,0,yes,1366
undefined,undefined,undefined,undefined,white,no,Mozilla,Netscape,"5.0 (Windows NT 10.0; Win64; x64) AppleWebKit/537.36 (KHTML, like Gecko) Chrome/98.0.4758.102 Safari/537.36",xpyriment,legacy,legacy,0,uniform,0,0,0,0,24,24,24,0,0,74,74,74,74,74,0,74,0,41,41,41,41,41,0,41,25-01-22,25-01-22,13:27:50,Fri Feb 25 2022 13:27:50 GMT+0100 (Central European Standard Time),The main experiment item,yes,0,0,C:/Users/rrics/Documents/!!ResearchBMECOGSCI/gnet,0,0,0,prototype1.png,no,mono,no,18,no,black,no,no,768,1138,3.5.6,legacy,xpyriment,osweb,1.3.13,0,space,space,space,space,33398,26668,19539,33398,2,legacy,680,1280,24,720,24,0,0,1280,1645792110427,1024,2,48000,-16,experiment,p9sarr3.png,0,even,Win32,116,138063,135061,116,116,646807,648321,641805,139565,641805,116,870151,871661,867149,648323,867149,visual_patterns,0,0,0,yes,1366
undefined,undefined,undefined,undefined,white,no,Mozilla,Netscape,"5.0 (Windows NT 10.0; Win64; x64) AppleWebKit/537.36 (KHTML, like Gecko) Chrome/98.0.4758.102 Safari/537.36",xpyriment,legacy,legacy,0,uniform,0,0,0,0,24,24,24,0,0,74,74,74,74,74,0,74,0,42,42,42,42,42,0,42,25-01-22,25-01-22,13:27:50,Fri Feb 25 2022 13:27:50 GMT+0100 (Central European Standard Time),The main experiment item,yes,0,0,C:/Users/rrics/Documents/!!ResearchBMECOGSCI/gnet,0,0,0,prototype1.png,no,mono,no,18,no,black,no,no,768,1138,3.5.6,legacy,xpyriment,osweb,1.3.13,0,space,space,space,space,33398,26668,19539,33398,2,legacy,680,1280,24,720,24,0,0,1280,1645792110427,1024,2,48000,-16,experiment,p10sarr4.png,0,even,Win32,116,138063,135061,116,116,646807,648321,641805,139565,641805,116,874670,876181,871670,648323,871670,visual_patterns,0,0,0,yes,1366
undefined,undefined,undefined,undefined,white,no,Mozilla,Netscape,"5.0 (Windows NT 10.0; Win64; x64) AppleWebKit/537.36 (KHTML, like Gecko) Chrome/98.0.4758.102 Safari/537.36",xpyriment,legacy,legacy,0,uniform,0,0,0,0,24,24,24,0,0,74,74,74,74,74,0,74,0,43,43,43,43,43,0,43,25-01-22,25-01-22,13:27:50,Fri Feb 25 2022 13:27:50 GMT+0100 (Central European Standard Time),The main experiment item,yes,0,0,C:/Users/rrics/Documents/!!ResearchBMECOGSCI/gnet,0,0,0,prototype1.png,no,mono,no,18,no,black,no,no,768,1138,3.5.6,legacy,xpyriment,osweb,1.3.13,0,space,space,space,space,33398,26668,19539,33398,2,legacy,680,1280,24,720,24,0,0,1280,1645792110427,1024,2,48000,-16,experiment,p4sarrcol1.png,0,even,Win32,116,138063,135061,116,116,646807,648321,641805,139565,641805,116,879190,880703,876188,648323,876188,visual_patterns,0,0,0,yes,1366
undefined,undefined,undefined,undefined,white,no,Mozilla,Netscape,"5.0 (Windows NT 10.0; Win64; x64) AppleWebKit/537.36 (KHTML, like Gecko) Chrome/98.0.4758.102 Safari/537.36",xpyriment,legacy,legacy,0,uniform,0,0,0,0,24,24,24,0,0,74,74,74,74,74,0,74,0,44,44,44,44,44,0,44,25-01-22,25-01-22,13:27:50,Fri Feb 25 2022 13:27:50 GMT+0100 (Central European Standard Time),The main experiment item,yes,0,0,C:/Users/rrics/Documents/!!ResearchBMECOGSCI/gnet,0,0,0,prototype1.png,no,mono,no,18,no,black,no,no,768,1138,3.5.6,legacy,xpyriment,osweb,1.3.13,0,space,space,space,space,33398,26668,19539,33398,2,legacy,680,1280,24,720,24,0,0,1280,1645792110427,1024,2,48000,-16,experiment,p5sarrshacol4.png,0,even,Win32,116,138063,135061,116,116,646807,648321,641805,139565,641805,116,883722,885224,880722,648323,880722,visual_patterns,0,0,0,yes,1366
undefined,undefined,undefined,undefined,white,no,Mozilla,Netscape,"5.0 (Windows NT 10.0; Win64; x64) AppleWebKit/537.36 (KHTML, like Gecko) Chrome/98.0.4758.102 Safari/537.36",xpyriment,legacy,legacy,0,uniform,0,0,0,0,24,24,24,0,0,74,74,74,74,74,0,74,0,45,45,45,45,45,0,45,25-01-22,25-01-22,13:27:50,Fri Feb 25 2022 13:27:50 GMT+0100 (Central European Standard Time),The main experiment item,yes,0,0,C:/Users/rrics/Documents/!!ResearchBMECOGSCI/gnet,0,0,0,prototype1.png,no,mono,no,18,no,black,no,no,768,1138,3.5.6,legacy,xpyriment,osweb,1.3.13,0,space,space,space,space,33398,26668,19539,33398,2,legacy,680,1280,24,720,24,0,0,1280,1645792110427,1024,2,48000,-16,experiment,p3sarr3.png,0,even,Win32,116,138063,135061,116,116,646807,648321,641805,139565,641805,116,888237,889746,885234,648323,885234,visual_patterns,0,0,0,yes,1366
undefined,undefined,undefined,undefined,white,no,Mozilla,Netscape,"5.0 (Windows NT 10.0; Win64; x64) AppleWebKit/537.36 (KHTML, like Gecko) Chrome/98.0.4758.102 Safari/537.36",xpyriment,legacy,legacy,0,uniform,0,0,0,0,24,24,24,0,0,74,74,74,74,74,0,74,0,46,46,46,46,46,0,46,25-01-22,25-01-22,13:27:50,Fri Feb 25 2022 13:27:50 GMT+0100 (Central European Standard Time),The main experiment item,yes,0,0,C:/Users/rrics/Documents/!!ResearchBMECOGSCI/gnet,0,0,0,prototype1.png,no,mono,no,18,no,black,no,no,768,1138,3.5.6,legacy,xpyriment,osweb,1.3.13,0,space,space,space,space,33398,26668,19539,33398,2,legacy,680,1280,24,720,24,0,0,1280,1645792110427,1024,2,48000,-16,experiment,p2sarr3.png,0,even,Win32,116,138063,135061,116,116,646807,648321,641805,139565,641805,116,892756,894266,889755,648323,889755,visual_patterns,0,0,0,yes,1366
