acc,accuracy,average_response_time,avg_rt,background,bidi,browser_codename,browser_name,browser_version,canvas_backend,clock_backend,color_backend,compensation,coordinates,count_end,count_experiment,count_osweb,count_prestudy,count_prestudy_isi,count_prestudy_sequence,count_prestudy_stimpres,count_start,count_study,count_study_coroutines,count_study_isi,count_study_logger,count_study_response,count_study_sequence,count_study_start,count_study_stimpres,count_test,count_test_coroutines,count_test_isi,count_test_logger,count_test_response,count_test_sequence,count_test_start,count_test_stimpres,date_startdate,date_startdateUTC,date_starttime,datetime,description,disable_garbage_collection,experiment_debug,experiment_parameters,experiment_path,experiment_pilot,experiment_taskname,experiment_taskversion,fampict,font_bold,font_family,font_italic,font_size,font_underline,foreground,form_clicks,fullscreen,height,jatosStudyResultId,jatosVersion,keyboard_backend,mouse_backend,opensesame_codename,opensesame_version,repeat_cycle,response,response_start,response_study_start,response_test_start,response_time,response_time_start,response_time_study_start,response_time_test_start,round_decimals,sampler_backend,screen_availableHeight,screen_availableWidth,screen_colorDepth,screen_height,screen_pixelDepth,screen_screenX,screen_screenY,screen_width,sessionid,sound_buf_size,sound_channels,sound_freq,sound_sample_size,start,stim,subject_nr,subject_parity,system_os,time_prestudy,time_prestudy_isi,time_prestudy_stimpres,time_start,time_study,time_study_isi,time_study_logger,time_study_response,time_study_start,time_study_stimpres,time_test,time_test_isi,time_test_logger,time_test_response,time_test_start,time_test_stimpres,title,total_correct,total_response_time,total_responses,uniform_coordinates,width
undefined,undefined,undefined,undefined,white,no,Mozilla,Netscape,"5.0 (Windows NT 10.0; Win64; x64) AppleWebKit/537.36 (KHTML, like Gecko) Chrome/98.0.4758.102 Safari/537.36",xpyriment,legacy,legacy,0,uniform,0,0,0,0,24,24,24,0,0,0,0,0,0,0,0,0,0,,,,,,0,,25-01-22,25-01-22,21:00:58,Fri Feb 25 2022 21:00:58 GMT+0100 (közép-európai téli idő),The main experiment item,yes,0,0,C:/Users/rrics/Documents/!!ResearchBMECOGSCI/gnet,0,0,0,prototype2.png,no,mono,no,18,no,black,no,no,768,1140,3.5.6,legacy,xpyriment,osweb,1.3.13,0,space,space,space,,21859,29526,21859,,2,legacy,824,1536,24,864,24,0,0,1536,1645819297128,1024,2,48000,-16,experiment,p6sarr1.png,0,even,Win32,126,141363,138350,126,126,169763,171268,164762,142879,164762,126,,,,,,visual_patterns,0,0,0,yes,1366
undefined,undefined,undefined,undefined,white,no,Mozilla,Netscape,"5.0 (Windows NT 10.0; Win64; x64) AppleWebKit/537.36 (KHTML, like Gecko) Chrome/98.0.4758.102 Safari/537.36",xpyriment,legacy,legacy,0,uniform,0,0,0,0,24,24,24,0,0,1,1,1,1,1,0,1,0,,,,,,0,,25-01-22,25-01-22,21:00:58,Fri Feb 25 2022 21:00:58 GMT+0100 (közép-európai téli idő),The main experiment item,yes,0,0,C:/Users/rrics/Documents/!!ResearchBMECOGSCI/gnet,0,0,0,prototype2.png,no,mono,no,18,no,black,no,no,768,1140,3.5.6,legacy,xpyriment,osweb,1.3.13,0,space,space,space,,21859,29526,21859,,2,legacy,824,1536,24,864,24,0,0,1536,1645819297128,1024,2,48000,-16,experiment,prototype3.png,0,even,Win32,126,141363,138350,126,126,176280,177794,171279,142879,171279,126,,,,,,visual_patterns,0,0,0,yes,1366
undefined,undefined,undefined,undefined,white,no,Mozilla,Netscape,"5.0 (Windows NT 10.0; Win64; x64) AppleWebKit/537.36 (KHTML, like Gecko) Chrome/98.0.4758.102 Safari/537.36",xpyriment,legacy,legacy,0,uniform,0,0,0,0,24,24,24,0,0,2,2,2,2,2,0,2,0,,,,,,0,,25-01-22,25-01-22,21:00:58,Fri Feb 25 2022 21:00:58 GMT+0100 (közép-európai téli idő),The main experiment item,yes,0,0,C:/Users/rrics/Documents/!!ResearchBMECOGSCI/gnet,0,0,0,prototype2.png,no,mono,no,18,no,black,no,no,768,1140,3.5.6,legacy,xpyriment,osweb,1.3.13,0,space,space,space,,21859,29526,21859,,2,legacy,824,1536,24,864,24,0,0,1536,1645819297128,1024,2,48000,-16,experiment,p3sarr1.png,0,even,Win32,126,141363,138350,126,126,182804,184305,177805,142879,177805,126,,,,,,visual_patterns,0,0,0,yes,1366
undefined,undefined,undefined,undefined,white,no,Mozilla,Netscape,"5.0 (Windows NT 10.0; Win64; x64) AppleWebKit/537.36 (KHTML, like Gecko) Chrome/98.0.4758.102 Safari/537.36",xpyriment,legacy,legacy,0,uniform,0,0,0,0,24,24,24,0,0,3,3,3,3,3,0,3,0,,,,,,0,,25-01-22,25-01-22,21:00:58,Fri Feb 25 2022 21:00:58 GMT+0100 (közép-európai téli idő),The main experiment item,yes,0,0,C:/Users/rrics/Documents/!!ResearchBMECOGSCI/gnet,0,0,0,prototype2.png,no,mono,no,18,no,black,no,no,768,1140,3.5.6,legacy,xpyriment,osweb,1.3.13,0,space,space,space,,21859,29526,21859,,2,legacy,824,1536,24,864,24,0,0,1536,1645819297128,1024,2,48000,-16,experiment,p9sarr2.png,0,even,Win32,126,141363,138350,126,126,189318,190832,184316,142879,184316,126,,,,,,visual_patterns,0,0,0,yes,1366
undefined,undefined,undefined,undefined,white,no,Mozilla,Netscape,"5.0 (Windows NT 10.0; Win64; x64) AppleWebKit/537.36 (KHTML, like Gecko) Chrome/98.0.4758.102 Safari/537.36",xpyriment,legacy,legacy,0,uniform,0,0,0,0,24,24,24,0,0,4,4,4,4,4,0,4,0,,,,,,0,,25-01-22,25-01-22,21:00:58,Fri Feb 25 2022 21:00:58 GMT+0100 (közép-európai téli idő),The main experiment item,yes,0,0,C:/Users/rrics/Documents/!!ResearchBMECOGSCI/gnet,0,0,0,prototype2.png,no,mono,no,18,no,black,no,no,768,1140,3.5.6,legacy,xpyriment,osweb,1.3.13,0,space,space,space,,21859,29526,21859,,2,legacy,824,1536,24,864,24,0,0,1536,1645819297128,1024,2,48000,-16,experiment,p4sarr2.png,0,even,Win32,126,141363,138350,126,126,195845,197360,190844,142879,190843,126,,,,,,visual_patterns,0,0,0,yes,1366
undefined,undefined,undefined,undefined,white,no,Mozilla,Netscape,"5.0 (Windows NT 10.0; Win64; x64) AppleWebKit/537.36 (KHTML, like Gecko) Chrome/98.0.4758.102 Safari/537.36",xpyriment,legacy,legacy,0,uniform,0,0,0,0,24,24,24,0,0,5,5,5,5,5,0,5,0,,,,,,0,,25-01-22,25-01-22,21:00:58,Fri Feb 25 2022 21:00:58 GMT+0100 (közép-európai téli idő),The main experiment item,yes,0,0,C:/Users/rrics/Documents/!!ResearchBMECOGSCI/gnet,0,0,0,prototype2.png,no,mono,no,18,no,black,no,no,768,1140,3.5.6,legacy,xpyriment,osweb,1.3.13,0,space,space,space,,21859,29526,21859,,2,legacy,824,1536,24,864,24,0,0,1536,1645819297128,1024,2,48000,-16,experiment,p4sarrshacol2.png,0,even,Win32,126,141363,138350,126,126,202372,203887,197370,142879,197370,126,,,,,,visual_patterns,0,0,0,yes,1366
undefined,undefined,undefined,undefined,white,no,Mozilla,Netscape,"5.0 (Windows NT 10.0; Win64; x64) AppleWebKit/537.36 (KHTML, like Gecko) Chrome/98.0.4758.102 Safari/537.36",xpyriment,legacy,legacy,0,uniform,0,0,0,0,24,24,24,0,0,6,6,6,6,6,0,6,0,,,,,,0,,25-01-22,25-01-22,21:00:58,Fri Feb 25 2022 21:00:58 GMT+0100 (közép-európai téli idő),The main experiment item,yes,0,0,C:/Users/rrics/Documents/!!ResearchBMECOGSCI/gnet,0,0,0,prototype2.png,no,mono,no,18,no,black,no,no,768,1140,3.5.6,legacy,xpyriment,osweb,1.3.13,0,space,space,space,,21859,29526,21859,,2,legacy,824,1536,24,864,24,0,0,1536,1645819297128,1024,2,48000,-16,experiment,p5sarrsha2.png,0,even,Win32,126,141363,138350,126,126,208895,210397,203897,142879,203897,126,,,,,,visual_patterns,0,0,0,yes,1366
undefined,undefined,undefined,undefined,white,no,Mozilla,Netscape,"5.0 (Windows NT 10.0; Win64; x64) AppleWebKit/537.36 (KHTML, like Gecko) Chrome/98.0.4758.102 Safari/537.36",xpyriment,legacy,legacy,0,uniform,0,0,0,0,24,24,24,0,0,7,7,7,7,7,0,7,0,,,,,,0,,25-01-22,25-01-22,21:00:58,Fri Feb 25 2022 21:00:58 GMT+0100 (közép-európai téli idő),The main experiment item,yes,0,0,C:/Users/rrics/Documents/!!ResearchBMECOGSCI/gnet,0,0,0,prototype2.png,no,mono,no,18,no,black,no,no,768,1140,3.5.6,legacy,xpyriment,osweb,1.3.13,0,space,space,space,,21859,29526,21859,,2,legacy,824,1536,24,864,24,0,0,1536,1645819297128,1024,2,48000,-16,experiment,p2sarr1.png,0,even,Win32,126,141363,138350,126,126,215409,216924,210407,142879,210407,126,,,,,,visual_patterns,0,0,0,yes,1366
undefined,undefined,undefined,undefined,white,no,Mozilla,Netscape,"5.0 (Windows NT 10.0; Win64; x64) AppleWebKit/537.36 (KHTML, like Gecko) Chrome/98.0.4758.102 Safari/537.36",xpyriment,legacy,legacy,0,uniform,0,0,0,0,24,24,24,0,0,8,8,8,8,8,0,8,0,,,,,,0,,25-01-22,25-01-22,21:00:58,Fri Feb 25 2022 21:00:58 GMT+0100 (közép-európai téli idő),The main experiment item,yes,0,0,C:/Users/rrics/Documents/!!ResearchBMECOGSCI/gnet,0,0,0,prototype2.png,no,mono,no,18,no,black,no,no,768,1140,3.5.6,legacy,xpyriment,osweb,1.3.13,0,space,space,space,,21859,29526,21859,,2,legacy,824,1536,24,864,24,0,0,1536,1645819297128,1024,2,48000,-16,experiment,prototype4.png,0,even,Win32,126,141363,138350,126,126,221933,223435,216931,142879,216931,126,,,,,,visual_patterns,0,0,0,yes,1366
undefined,undefined,undefined,undefined,white,no,Mozilla,Netscape,"5.0 (Windows NT 10.0; Win64; x64) AppleWebKit/537.36 (KHTML, like Gecko) Chrome/98.0.4758.102 Safari/537.36",xpyriment,legacy,legacy,0,uniform,0,0,0,0,24,24,24,0,0,9,9,9,9,9,0,9,0,,,,,,0,,25-01-22,25-01-22,21:00:58,Fri Feb 25 2022 21:00:58 GMT+0100 (közép-európai téli idő),The main experiment item,yes,0,0,C:/Users/rrics/Documents/!!ResearchBMECOGSCI/gnet,0,0,0,prototype2.png,no,mono,no,18,no,black,no,no,768,1140,3.5.6,legacy,xpyriment,osweb,1.3.13,0,space,space,space,,21859,29526,21859,,2,legacy,824,1536,24,864,24,0,0,1536,1645819297128,1024,2,48000,-16,experiment,p5sarrsha1.png,0,even,Win32,126,141363,138350,126,126,228448,229962,223443,142879,223443,126,,,,,,visual_patterns,0,0,0,yes,1366
undefined,undefined,undefined,undefined,white,no,Mozilla,Netscape,"5.0 (Windows NT 10.0; Win64; x64) AppleWebKit/537.36 (KHTML, like Gecko) Chrome/98.0.4758.102 Safari/537.36",xpyriment,legacy,legacy,0,uniform,0,0,0,0,24,24,24,0,0,10,10,10,10,10,0,10,0,,,,,,0,,25-01-22,25-01-22,21:00:58,Fri Feb 25 2022 21:00:58 GMT+0100 (közép-európai téli idő),The main experiment item,yes,0,0,C:/Users/rrics/Documents/!!ResearchBMECOGSCI/gnet,0,0,0,prototype2.png,no,mono,no,18,no,black,no,no,768,1140,3.5.6,legacy,xpyriment,osweb,1.3.13,0,space,space,space,,21859,29526,21859,,2,legacy,824,1536,24,864,24,0,0,1536,1645819297128,1024,2,48000,-16,experiment,p5sarrcol1.png,0,even,Win32,126,141363,138350,126,126,234970,236473,229972,142879,229972,126,,,,,,visual_patterns,0,0,0,yes,1366
undefined,undefined,undefined,undefined,white,no,Mozilla,Netscape,"5.0 (Windows NT 10.0; Win64; x64) AppleWebKit/537.36 (KHTML, like Gecko) Chrome/98.0.4758.102 Safari/537.36",xpyriment,legacy,legacy,0,uniform,0,0,0,0,24,24,24,0,0,11,11,11,11,11,0,11,0,,,,,,0,,25-01-22,25-01-22,21:00:58,Fri Feb 25 2022 21:00:58 GMT+0100 (közép-európai téli idő),The main experiment item,yes,0,0,C:/Users/rrics/Documents/!!ResearchBMECOGSCI/gnet,0,0,0,prototype2.png,no,mono,no,18,no,black,no,no,768,1140,3.5.6,legacy,xpyriment,osweb,1.3.13,0,space,space,space,,21859,29526,21859,,2,legacy,824,1536,24,864,24,0,0,1536,1645819297128,1024,2,48000,-16,experiment,p8sarr2.png,0,even,Win32,126,141363,138350,126,126,241482,242983,236482,142879,236482,126,,,,,,visual_patterns,0,0,0,yes,1366
undefined,undefined,undefined,undefined,white,no,Mozilla,Netscape,"5.0 (Windows NT 10.0; Win64; x64) AppleWebKit/537.36 (KHTML, like Gecko) Chrome/98.0.4758.102 Safari/537.36",xpyriment,legacy,legacy,0,uniform,0,0,0,0,24,24,24,0,0,12,12,12,12,12,0,12,0,,,,,,0,,25-01-22,25-01-22,21:00:58,Fri Feb 25 2022 21:00:58 GMT+0100 (közép-európai téli idő),The main experiment item,yes,0,0,C:/Users/rrics/Documents/!!ResearchBMECOGSCI/gnet,0,0,0,prototype2.png,no,mono,no,18,no,black,no,no,768,1140,3.5.6,legacy,xpyriment,osweb,1.3.13,0,space,space,space,,21859,29526,21859,,2,legacy,824,1536,24,864,24,0,0,1536,1645819297128,1024,2,48000,-16,experiment,p5sarrshacol2.png,0,even,Win32,126,141363,138350,126,126,247994,249510,242991,142879,242991,126,,,,,,visual_patterns,0,0,0,yes,1366
undefined,undefined,undefined,undefined,white,no,Mozilla,Netscape,"5.0 (Windows NT 10.0; Win64; x64) AppleWebKit/537.36 (KHTML, like Gecko) Chrome/98.0.4758.102 Safari/537.36",xpyriment,legacy,legacy,0,uniform,0,0,0,0,24,24,24,0,0,13,13,13,13,13,0,13,0,,,,,,0,,25-01-22,25-01-22,21:00:58,Fri Feb 25 2022 21:00:58 GMT+0100 (közép-európai téli idő),The main experiment item,yes,0,0,C:/Users/rrics/Documents/!!ResearchBMECOGSCI/gnet,0,0,0,prototype2.png,no,mono,no,18,no,black,no,no,768,1140,3.5.6,legacy,xpyriment,osweb,1.3.13,0,space,space,space,,21859,29526,21859,,2,legacy,824,1536,24,864,24,0,0,1536,1645819297128,1024,2,48000,-16,experiment,p8sarr1.png,0,even,Win32,126,141363,138350,126,126,254530,256038,249531,142879,249531,126,,,,,,visual_patterns,0,0,0,yes,1366
undefined,undefined,undefined,undefined,white,no,Mozilla,Netscape,"5.0 (Windows NT 10.0; Win64; x64) AppleWebKit/537.36 (KHTML, like Gecko) Chrome/98.0.4758.102 Safari/537.36",xpyriment,legacy,legacy,0,uniform,0,0,0,0,24,24,24,0,0,14,14,14,14,14,0,14,0,,,,,,0,,25-01-22,25-01-22,21:00:58,Fri Feb 25 2022 21:00:58 GMT+0100 (közép-európai téli idő),The main experiment item,yes,0,0,C:/Users/rrics/Documents/!!ResearchBMECOGSCI/gnet,0,0,0,prototype2.png,no,mono,no,18,no,black,no,no,768,1140,3.5.6,legacy,xpyriment,osweb,1.3.13,0,space,space,space,,21859,29526,21859,,2,legacy,824,1536,24,864,24,0,0,1536,1645819297128,1024,2,48000,-16,experiment,p3sarrcol1.png,0,even,Win32,126,141363,138350,126,126,261048,262565,256046,142879,256046,126,,,,,,visual_patterns,0,0,0,yes,1366
undefined,undefined,undefined,undefined,white,no,Mozilla,Netscape,"5.0 (Windows NT 10.0; Win64; x64) AppleWebKit/537.36 (KHTML, like Gecko) Chrome/98.0.4758.102 Safari/537.36",xpyriment,legacy,legacy,0,uniform,0,0,0,0,24,24,24,0,0,15,15,15,15,15,0,15,0,,,,,,0,,25-01-22,25-01-22,21:00:58,Fri Feb 25 2022 21:00:58 GMT+0100 (közép-európai téli idő),The main experiment item,yes,0,0,C:/Users/rrics/Documents/!!ResearchBMECOGSCI/gnet,0,0,0,prototype2.png,no,mono,no,18,no,black,no,no,768,1140,3.5.6,legacy,xpyriment,osweb,1.3.13,0,space,space,space,,21859,29526,21859,,2,legacy,824,1536,24,864,24,0,0,1536,1645819297128,1024,2,48000,-16,experiment,prototype1.png,0,even,Win32,126,141363,138350,126,126,267576,269092,262572,142879,262572,126,,,,,,visual_patterns,0,0,0,yes,1366
undefined,undefined,undefined,undefined,white,no,Mozilla,Netscape,"5.0 (Windows NT 10.0; Win64; x64) AppleWebKit/537.36 (KHTML, like Gecko) Chrome/98.0.4758.102 Safari/537.36",xpyriment,legacy,legacy,0,uniform,0,0,0,0,24,24,24,0,0,16,16,16,16,16,0,16,0,,,,,,0,,25-01-22,25-01-22,21:00:58,Fri Feb 25 2022 21:00:58 GMT+0100 (közép-európai téli idő),The main experiment item,yes,0,0,C:/Users/rrics/Documents/!!ResearchBMECOGSCI/gnet,0,0,0,prototype2.png,no,mono,no,18,no,black,no,no,768,1140,3.5.6,legacy,xpyriment,osweb,1.3.13,0,space,space,space,,21859,29526,21859,,2,legacy,824,1536,24,864,24,0,0,1536,1645819297128,1024,2,48000,-16,experiment,p2sarr2.png,0,even,Win32,126,141363,138350,126,126,274101,275603,269101,142879,269101,126,,,,,,visual_patterns,0,0,0,yes,1366
undefined,undefined,undefined,undefined,white,no,Mozilla,Netscape,"5.0 (Windows NT 10.0; Win64; x64) AppleWebKit/537.36 (KHTML, like Gecko) Chrome/98.0.4758.102 Safari/537.36",xpyriment,legacy,legacy,0,uniform,0,0,0,0,24,24,24,0,0,17,17,17,17,17,0,17,0,,,,,,0,,25-01-22,25-01-22,21:00:58,Fri Feb 25 2022 21:00:58 GMT+0100 (közép-európai téli idő),The main experiment item,yes,0,0,C:/Users/rrics/Documents/!!ResearchBMECOGSCI/gnet,0,0,0,prototype2.png,no,mono,no,18,no,black,no,no,768,1140,3.5.6,legacy,xpyriment,osweb,1.3.13,0,space,space,space,,21859,29526,21859,,2,legacy,824,1536,24,864,24,0,0,1536,1645819297128,1024,2,48000,-16,experiment,p3sarrsha2.png,0,even,Win32,126,141363,138350,126,126,280610,282113,275611,142879,275611,126,,,,,,visual_patterns,0,0,0,yes,1366
undefined,undefined,undefined,undefined,white,no,Mozilla,Netscape,"5.0 (Windows NT 10.0; Win64; x64) AppleWebKit/537.36 (KHTML, like Gecko) Chrome/98.0.4758.102 Safari/537.36",xpyriment,legacy,legacy,0,uniform,0,0,0,0,24,24,24,0,0,18,18,18,18,18,0,18,0,,,,,,0,,25-01-22,25-01-22,21:00:58,Fri Feb 25 2022 21:00:58 GMT+0100 (közép-európai téli idő),The main experiment item,yes,0,0,C:/Users/rrics/Documents/!!ResearchBMECOGSCI/gnet,0,0,0,prototype2.png,no,mono,no,18,no,black,no,no,768,1140,3.5.6,legacy,xpyriment,osweb,1.3.13,0,space,space,space,,21859,29526,21859,,2,legacy,824,1536,24,864,24,0,0,1536,1645819297128,1024,2,48000,-16,experiment,prototype4.png,0,even,Win32,126,141363,138350,126,126,287123,288624,282119,142879,282119,126,,,,,,visual_patterns,0,0,0,yes,1366
undefined,undefined,undefined,undefined,white,no,Mozilla,Netscape,"5.0 (Windows NT 10.0; Win64; x64) AppleWebKit/537.36 (KHTML, like Gecko) Chrome/98.0.4758.102 Safari/537.36",xpyriment,legacy,legacy,0,uniform,0,0,0,0,24,24,24,0,0,19,19,19,19,19,0,19,0,,,,,,0,,25-01-22,25-01-22,21:00:58,Fri Feb 25 2022 21:00:58 GMT+0100 (közép-európai téli idő),The main experiment item,yes,0,0,C:/Users/rrics/Documents/!!ResearchBMECOGSCI/gnet,0,0,0,prototype2.png,no,mono,no,18,no,black,no,no,768,1140,3.5.6,legacy,xpyriment,osweb,1.3.13,0,space,space,space,,21859,29526,21859,,2,legacy,824,1536,24,864,24,0,0,1536,1645819297128,1024,2,48000,-16,experiment,p3sarrsha1.png,0,even,Win32,126,141363,138350,126,126,293637,295151,288634,142879,288634,126,,,,,,visual_patterns,0,0,0,yes,1366
undefined,undefined,undefined,undefined,white,no,Mozilla,Netscape,"5.0 (Windows NT 10.0; Win64; x64) AppleWebKit/537.36 (KHTML, like Gecko) Chrome/98.0.4758.102 Safari/537.36",xpyriment,legacy,legacy,0,uniform,0,0,0,0,24,24,24,0,0,20,20,20,20,20,0,20,0,,,,,,0,,25-01-22,25-01-22,21:00:58,Fri Feb 25 2022 21:00:58 GMT+0100 (közép-európai téli idő),The main experiment item,yes,0,0,C:/Users/rrics/Documents/!!ResearchBMECOGSCI/gnet,0,0,0,prototype2.png,no,mono,no,18,no,black,no,no,768,1140,3.5.6,legacy,xpyriment,osweb,1.3.13,0,space,space,space,,21859,29526,21859,,2,legacy,824,1536,24,864,24,0,0,1536,1645819297128,1024,2,48000,-16,experiment,prototype2.png,0,even,Win32,126,141363,138350,126,126,300159,301662,295159,142879,295159,126,,,,,,visual_patterns,0,0,0,yes,1366
undefined,undefined,undefined,undefined,white,no,Mozilla,Netscape,"5.0 (Windows NT 10.0; Win64; x64) AppleWebKit/537.36 (KHTML, like Gecko) Chrome/98.0.4758.102 Safari/537.36",xpyriment,legacy,legacy,0,uniform,0,0,0,0,24,24,24,0,0,21,21,21,21,21,0,21,0,,,,,,0,,25-01-22,25-01-22,21:00:58,Fri Feb 25 2022 21:00:58 GMT+0100 (közép-európai téli idő),The main experiment item,yes,0,0,C:/Users/rrics/Documents/!!ResearchBMECOGSCI/gnet,0,0,0,prototype2.png,no,mono,no,18,no,black,no,no,768,1140,3.5.6,legacy,xpyriment,osweb,1.3.13,0,space,space,space,,21859,29526,21859,,2,legacy,824,1536,24,864,24,0,0,1536,1645819297128,1024,2,48000,-16,experiment,p4sarrcol2.png,0,even,Win32,126,141363,138350,126,126,306671,308172,301673,142879,301673,126,,,,,,visual_patterns,0,0,0,yes,1366
undefined,undefined,undefined,undefined,white,no,Mozilla,Netscape,"5.0 (Windows NT 10.0; Win64; x64) AppleWebKit/537.36 (KHTML, like Gecko) Chrome/98.0.4758.102 Safari/537.36",xpyriment,legacy,legacy,0,uniform,0,0,0,0,24,24,24,0,0,22,22,22,22,22,0,22,0,,,,,,0,,25-01-22,25-01-22,21:00:58,Fri Feb 25 2022 21:00:58 GMT+0100 (közép-európai téli idő),The main experiment item,yes,0,0,C:/Users/rrics/Documents/!!ResearchBMECOGSCI/gnet,0,0,0,prototype2.png,no,mono,no,18,no,black,no,no,768,1140,3.5.6,legacy,xpyriment,osweb,1.3.13,0,space,space,space,,21859,29526,21859,,2,legacy,824,1536,24,864,24,0,0,1536,1645819297128,1024,2,48000,-16,experiment,p5sarrshacol1.png,0,even,Win32,126,141363,138350,126,126,313180,314683,308180,142879,308180,126,,,,,,visual_patterns,0,0,0,yes,1366
undefined,undefined,undefined,undefined,white,no,Mozilla,Netscape,"5.0 (Windows NT 10.0; Win64; x64) AppleWebKit/537.36 (KHTML, like Gecko) Chrome/98.0.4758.102 Safari/537.36",xpyriment,legacy,legacy,0,uniform,0,0,0,0,24,24,24,0,0,23,23,23,23,23,0,23,0,,,,,,0,,25-01-22,25-01-22,21:00:58,Fri Feb 25 2022 21:00:58 GMT+0100 (közép-európai téli idő),The main experiment item,yes,0,0,C:/Users/rrics/Documents/!!ResearchBMECOGSCI/gnet,0,0,0,prototype2.png,no,mono,no,18,no,black,no,no,768,1140,3.5.6,legacy,xpyriment,osweb,1.3.13,0,space,space,space,,21859,29526,21859,,2,legacy,824,1536,24,864,24,0,0,1536,1645819297128,1024,2,48000,-16,experiment,prototype2.png,0,even,Win32,126,141363,138350,126,126,319712,321227,314707,142879,314707,126,,,,,,visual_patterns,0,0,0,yes,1366
undefined,undefined,undefined,undefined,white,no,Mozilla,Netscape,"5.0 (Windows NT 10.0; Win64; x64) AppleWebKit/537.36 (KHTML, like Gecko) Chrome/98.0.4758.102 Safari/537.36",xpyriment,legacy,legacy,0,uniform,0,0,0,0,24,24,24,0,0,24,24,24,24,24,0,24,0,,,,,,0,,25-01-22,25-01-22,21:00:58,Fri Feb 25 2022 21:00:58 GMT+0100 (közép-európai téli idő),The main experiment item,yes,0,0,C:/Users/rrics/Documents/!!ResearchBMECOGSCI/gnet,0,0,0,prototype2.png,no,mono,no,18,no,black,no,no,768,1140,3.5.6,legacy,xpyriment,osweb,1.3.13,0,space,space,space,,21859,29526,21859,,2,legacy,824,1536,24,864,24,0,0,1536,1645819297128,1024,2,48000,-16,experiment,p4sarrsha2.png,0,even,Win32,126,141363,138350,126,126,326239,327754,321238,142879,321238,126,,,,,,visual_patterns,0,0,0,yes,1366
undefined,undefined,undefined,undefined,white,no,Mozilla,Netscape,"5.0 (Windows NT 10.0; Win64; x64) AppleWebKit/537.36 (KHTML, like Gecko) Chrome/98.0.4758.102 Safari/537.36",xpyriment,legacy,legacy,0,uniform,0,0,0,0,24,24,24,0,0,25,25,25,25,25,0,25,0,,,,,,0,,25-01-22,25-01-22,21:00:58,Fri Feb 25 2022 21:00:58 GMT+0100 (közép-európai téli idő),The main experiment item,yes,0,0,C:/Users/rrics/Documents/!!ResearchBMECOGSCI/gnet,0,0,0,prototype2.png,no,mono,no,18,no,black,no,no,768,1140,3.5.6,legacy,xpyriment,osweb,1.3.13,0,space,space,space,,21859,29526,21859,,2,legacy,824,1536,24,864,24,0,0,1536,1645819297128,1024,2,48000,-16,experiment,p9sarr1.png,0,even,Win32,126,141363,138350,126,126,332761,334264,327761,142879,327761,126,,,,,,visual_patterns,0,0,0,yes,1366
undefined,undefined,undefined,undefined,white,no,Mozilla,Netscape,"5.0 (Windows NT 10.0; Win64; x64) AppleWebKit/537.36 (KHTML, like Gecko) Chrome/98.0.4758.102 Safari/537.36",xpyriment,legacy,legacy,0,uniform,0,0,0,0,24,24,24,0,0,26,26,26,26,26,0,26,0,,,,,,0,,25-01-22,25-01-22,21:00:58,Fri Feb 25 2022 21:00:58 GMT+0100 (közép-európai téli idő),The main experiment item,yes,0,0,C:/Users/rrics/Documents/!!ResearchBMECOGSCI/gnet,0,0,0,prototype2.png,no,mono,no,18,no,black,no,no,768,1140,3.5.6,legacy,xpyriment,osweb,1.3.13,0,space,space,space,,21859,29526,21859,,2,legacy,824,1536,24,864,24,0,0,1536,1645819297128,1024,2,48000,-16,experiment,prototype1.png,0,even,Win32,126,141363,138350,126,126,339276,340792,334272,142879,334272,126,,,,,,visual_patterns,0,0,0,yes,1366
undefined,undefined,undefined,undefined,white,no,Mozilla,Netscape,"5.0 (Windows NT 10.0; Win64; x64) AppleWebKit/537.36 (KHTML, like Gecko) Chrome/98.0.4758.102 Safari/537.36",xpyriment,legacy,legacy,0,uniform,0,0,0,0,24,24,24,0,0,27,27,27,27,27,0,27,0,,,,,,0,,25-01-22,25-01-22,21:00:58,Fri Feb 25 2022 21:00:58 GMT+0100 (közép-európai téli idő),The main experiment item,yes,0,0,C:/Users/rrics/Documents/!!ResearchBMECOGSCI/gnet,0,0,0,prototype2.png,no,mono,no,18,no,black,no,no,768,1140,3.5.6,legacy,xpyriment,osweb,1.3.13,0,space,space,space,,21859,29526,21859,,2,legacy,824,1536,24,864,24,0,0,1536,1645819297128,1024,2,48000,-16,experiment,p4sarrcol1.png,0,even,Win32,126,141363,138350,126,126,345804,347319,340802,142879,340802,126,,,,,,visual_patterns,0,0,0,yes,1366
undefined,undefined,undefined,undefined,white,no,Mozilla,Netscape,"5.0 (Windows NT 10.0; Win64; x64) AppleWebKit/537.36 (KHTML, like Gecko) Chrome/98.0.4758.102 Safari/537.36",xpyriment,legacy,legacy,0,uniform,0,0,0,0,24,24,24,0,0,28,28,28,28,28,0,28,0,,,,,,0,,25-01-22,25-01-22,21:00:58,Fri Feb 25 2022 21:00:58 GMT+0100 (közép-európai téli idő),The main experiment item,yes,0,0,C:/Users/rrics/Documents/!!ResearchBMECOGSCI/gnet,0,0,0,prototype2.png,no,mono,no,18,no,black,no,no,768,1140,3.5.6,legacy,xpyriment,osweb,1.3.13,0,space,space,space,,21859,29526,21859,,2,legacy,824,1536,24,864,24,0,0,1536,1645819297128,1024,2,48000,-16,experiment,prototype4.png,0,even,Win32,126,141363,138350,126,126,352338,353846,347335,142879,347334,126,,,,,,visual_patterns,0,0,0,yes,1366
undefined,undefined,undefined,undefined,white,no,Mozilla,Netscape,"5.0 (Windows NT 10.0; Win64; x64) AppleWebKit/537.36 (KHTML, like Gecko) Chrome/98.0.4758.102 Safari/537.36",xpyriment,legacy,legacy,0,uniform,0,0,0,0,24,24,24,0,0,29,29,29,29,29,0,29,0,,,,,,0,,25-01-22,25-01-22,21:00:58,Fri Feb 25 2022 21:00:58 GMT+0100 (közép-európai téli idő),The main experiment item,yes,0,0,C:/Users/rrics/Documents/!!ResearchBMECOGSCI/gnet,0,0,0,prototype2.png,no,mono,no,18,no,black,no,no,768,1140,3.5.6,legacy,xpyriment,osweb,1.3.13,0,space,space,space,,21859,29526,21859,,2,legacy,824,1536,24,864,24,0,0,1536,1645819297128,1024,2,48000,-16,experiment,prototype5.png,0,even,Win32,126,141363,138350,126,126,358854,360357,353854,142879,353854,126,,,,,,visual_patterns,0,0,0,yes,1366
undefined,undefined,undefined,undefined,white,no,Mozilla,Netscape,"5.0 (Windows NT 10.0; Win64; x64) AppleWebKit/537.36 (KHTML, like Gecko) Chrome/98.0.4758.102 Safari/537.36",xpyriment,legacy,legacy,0,uniform,0,0,0,0,24,24,24,0,0,30,30,30,30,30,0,30,0,,,,,,0,,25-01-22,25-01-22,21:00:58,Fri Feb 25 2022 21:00:58 GMT+0100 (közép-európai téli idő),The main experiment item,yes,0,0,C:/Users/rrics/Documents/!!ResearchBMECOGSCI/gnet,0,0,0,prototype2.png,no,mono,no,18,no,black,no,no,768,1140,3.5.6,legacy,xpyriment,osweb,1.3.13,0,space,space,space,,21859,29526,21859,,2,legacy,824,1536,24,864,24,0,0,1536,1645819297128,1024,2,48000,-16,experiment,p5sarrcol2.png,0,even,Win32,126,141363,138350,126,126,365369,366884,360366,142879,360366,126,,,,,,visual_patterns,0,0,0,yes,1366
undefined,undefined,undefined,undefined,white,no,Mozilla,Netscape,"5.0 (Windows NT 10.0; Win64; x64) AppleWebKit/537.36 (KHTML, like Gecko) Chrome/98.0.4758.102 Safari/537.36",xpyriment,legacy,legacy,0,uniform,0,0,0,0,24,24,24,0,0,31,31,31,31,31,0,31,0,,,,,,0,,25-01-22,25-01-22,21:00:58,Fri Feb 25 2022 21:00:58 GMT+0100 (közép-európai téli idő),The main experiment item,yes,0,0,C:/Users/rrics/Documents/!!ResearchBMECOGSCI/gnet,0,0,0,prototype2.png,no,mono,no,18,no,black,no,no,768,1140,3.5.6,legacy,xpyriment,osweb,1.3.13,0,space,space,space,,21859,29526,21859,,2,legacy,824,1536,24,864,24,0,0,1536,1645819297128,1024,2,48000,-16,experiment,p2sarrsha2.png,0,even,Win32,126,141363,138350,126,126,371897,373411,366895,142879,366895,126,,,,,,visual_patterns,0,0,0,yes,1366
undefined,undefined,undefined,undefined,white,no,Mozilla,Netscape,"5.0 (Windows NT 10.0; Win64; x64) AppleWebKit/537.36 (KHTML, like Gecko) Chrome/98.0.4758.102 Safari/537.36",xpyriment,legacy,legacy,0,uniform,0,0,0,0,24,24,24,0,0,32,32,32,32,32,0,32,0,,,,,,0,,25-01-22,25-01-22,21:00:58,Fri Feb 25 2022 21:00:58 GMT+0100 (közép-európai téli idő),The main experiment item,yes,0,0,C:/Users/rrics/Documents/!!ResearchBMECOGSCI/gnet,0,0,0,prototype2.png,no,mono,no,18,no,black,no,no,768,1140,3.5.6,legacy,xpyriment,osweb,1.3.13,0,space,space,space,,21859,29526,21859,,2,legacy,824,1536,24,864,24,0,0,1536,1645819297128,1024,2,48000,-16,experiment,p5sarr1.png,0,even,Win32,126,141363,138350,126,126,378418,379922,373419,142879,373419,126,,,,,,visual_patterns,0,0,0,yes,1366
undefined,undefined,undefined,undefined,white,no,Mozilla,Netscape,"5.0 (Windows NT 10.0; Win64; x64) AppleWebKit/537.36 (KHTML, like Gecko) Chrome/98.0.4758.102 Safari/537.36",xpyriment,legacy,legacy,0,uniform,0,0,0,0,24,24,24,0,0,33,33,33,33,33,0,33,0,,,,,,0,,25-01-22,25-01-22,21:00:58,Fri Feb 25 2022 21:00:58 GMT+0100 (közép-európai téli idő),The main experiment item,yes,0,0,C:/Users/rrics/Documents/!!ResearchBMECOGSCI/gnet,0,0,0,prototype2.png,no,mono,no,18,no,black,no,no,768,1140,3.5.6,legacy,xpyriment,osweb,1.3.13,0,space,space,space,,21859,29526,21859,,2,legacy,824,1536,24,864,24,0,0,1536,1645819297128,1024,2,48000,-16,experiment,p3sarrshacol1.png,0,even,Win32,126,141363,138350,126,126,384928,386433,379929,142879,379929,126,,,,,,visual_patterns,0,0,0,yes,1366
undefined,undefined,undefined,undefined,white,no,Mozilla,Netscape,"5.0 (Windows NT 10.0; Win64; x64) AppleWebKit/537.36 (KHTML, like Gecko) Chrome/98.0.4758.102 Safari/537.36",xpyriment,legacy,legacy,0,uniform,0,0,0,0,24,24,24,0,0,34,34,34,34,34,0,34,0,,,,,,0,,25-01-22,25-01-22,21:00:58,Fri Feb 25 2022 21:00:58 GMT+0100 (közép-európai téli idő),The main experiment item,yes,0,0,C:/Users/rrics/Documents/!!ResearchBMECOGSCI/gnet,0,0,0,prototype2.png,no,mono,no,18,no,black,no,no,768,1140,3.5.6,legacy,xpyriment,osweb,1.3.13,0,space,space,space,,21859,29526,21859,,2,legacy,824,1536,24,864,24,0,0,1536,1645819297128,1024,2,48000,-16,experiment,prototype1.png,0,even,Win32,126,141363,138350,126,126,391444,392960,386440,142879,386440,126,,,,,,visual_patterns,0,0,0,yes,1366
undefined,undefined,undefined,undefined,white,no,Mozilla,Netscape,"5.0 (Windows NT 10.0; Win64; x64) AppleWebKit/537.36 (KHTML, like Gecko) Chrome/98.0.4758.102 Safari/537.36",xpyriment,legacy,legacy,0,uniform,0,0,0,0,24,24,24,0,0,35,35,35,35,35,0,35,0,,,,,,0,,25-01-22,25-01-22,21:00:58,Fri Feb 25 2022 21:00:58 GMT+0100 (közép-európai téli idő),The main experiment item,yes,0,0,C:/Users/rrics/Documents/!!ResearchBMECOGSCI/gnet,0,0,0,prototype2.png,no,mono,no,18,no,black,no,no,768,1140,3.5.6,legacy,xpyriment,osweb,1.3.13,0,space,space,space,,21859,29526,21859,,2,legacy,824,1536,24,864,24,0,0,1536,1645819297128,1024,2,48000,-16,experiment,p4sarrshacol1.png,0,even,Win32,126,141363,138350,126,126,397972,399487,392969,142879,392969,126,,,,,,visual_patterns,0,0,0,yes,1366
undefined,undefined,undefined,undefined,white,no,Mozilla,Netscape,"5.0 (Windows NT 10.0; Win64; x64) AppleWebKit/537.36 (KHTML, like Gecko) Chrome/98.0.4758.102 Safari/537.36",xpyriment,legacy,legacy,0,uniform,0,0,0,0,24,24,24,0,0,36,36,36,36,36,0,36,0,,,,,,0,,25-01-22,25-01-22,21:00:58,Fri Feb 25 2022 21:00:58 GMT+0100 (közép-európai téli idő),The main experiment item,yes,0,0,C:/Users/rrics/Documents/!!ResearchBMECOGSCI/gnet,0,0,0,prototype2.png,no,mono,no,18,no,black,no,no,768,1140,3.5.6,legacy,xpyriment,osweb,1.3.13,0,space,space,space,,21859,29526,21859,,2,legacy,824,1536,24,864,24,0,0,1536,1645819297128,1024,2,48000,-16,experiment,prototype3.png,0,even,Win32,126,141363,138350,126,126,404494,405997,399493,142879,399493,126,,,,,,visual_patterns,0,0,0,yes,1366
undefined,undefined,undefined,undefined,white,no,Mozilla,Netscape,"5.0 (Windows NT 10.0; Win64; x64) AppleWebKit/537.36 (KHTML, like Gecko) Chrome/98.0.4758.102 Safari/537.36",xpyriment,legacy,legacy,0,uniform,0,0,0,0,24,24,24,0,0,37,37,37,37,37,0,37,0,,,,,,0,,25-01-22,25-01-22,21:00:58,Fri Feb 25 2022 21:00:58 GMT+0100 (közép-európai téli idő),The main experiment item,yes,0,0,C:/Users/rrics/Documents/!!ResearchBMECOGSCI/gnet,0,0,0,prototype2.png,no,mono,no,18,no,black,no,no,768,1140,3.5.6,legacy,xpyriment,osweb,1.3.13,0,space,space,space,,21859,29526,21859,,2,legacy,824,1536,24,864,24,0,0,1536,1645819297128,1024,2,48000,-16,experiment,prototype3.png,0,even,Win32,126,141363,138350,126,126,411010,412525,406006,142879,406006,126,,,,,,visual_patterns,0,0,0,yes,1366
undefined,undefined,undefined,undefined,white,no,Mozilla,Netscape,"5.0 (Windows NT 10.0; Win64; x64) AppleWebKit/537.36 (KHTML, like Gecko) Chrome/98.0.4758.102 Safari/537.36",xpyriment,legacy,legacy,0,uniform,0,0,0,0,24,24,24,0,0,38,38,38,38,38,0,38,0,,,,,,0,,25-01-22,25-01-22,21:00:58,Fri Feb 25 2022 21:00:58 GMT+0100 (közép-európai téli idő),The main experiment item,yes,0,0,C:/Users/rrics/Documents/!!ResearchBMECOGSCI/gnet,0,0,0,prototype2.png,no,mono,no,18,no,black,no,no,768,1140,3.5.6,legacy,xpyriment,osweb,1.3.13,0,space,space,space,,21859,29526,21859,,2,legacy,824,1536,24,864,24,0,0,1536,1645819297128,1024,2,48000,-16,experiment,p7sarr1.png,0,even,Win32,126,141363,138350,126,126,417537,419052,412531,142879,412531,126,,,,,,visual_patterns,0,0,0,yes,1366
undefined,undefined,undefined,undefined,white,no,Mozilla,Netscape,"5.0 (Windows NT 10.0; Win64; x64) AppleWebKit/537.36 (KHTML, like Gecko) Chrome/98.0.4758.102 Safari/537.36",xpyriment,legacy,legacy,0,uniform,0,0,0,0,24,24,24,0,0,39,39,39,39,39,0,39,0,,,,,,0,,25-01-22,25-01-22,21:00:58,Fri Feb 25 2022 21:00:58 GMT+0100 (közép-európai téli idő),The main experiment item,yes,0,0,C:/Users/rrics/Documents/!!ResearchBMECOGSCI/gnet,0,0,0,prototype2.png,no,mono,no,18,no,black,no,no,768,1140,3.5.6,legacy,xpyriment,osweb,1.3.13,0,space,space,space,,21859,29526,21859,,2,legacy,824,1536,24,864,24,0,0,1536,1645819297128,1024,2,48000,-16,experiment,p1sarrsha1.png,0,even,Win32,126,141363,138350,126,126,424064,425579,419060,142879,419060,126,,,,,,visual_patterns,0,0,0,yes,1366
undefined,undefined,undefined,undefined,white,no,Mozilla,Netscape,"5.0 (Windows NT 10.0; Win64; x64) AppleWebKit/537.36 (KHTML, like Gecko) Chrome/98.0.4758.102 Safari/537.36",xpyriment,legacy,legacy,0,uniform,0,0,0,0,24,24,24,0,0,40,40,40,40,40,0,40,0,,,,,,0,,25-01-22,25-01-22,21:00:58,Fri Feb 25 2022 21:00:58 GMT+0100 (közép-európai téli idő),The main experiment item,yes,0,0,C:/Users/rrics/Documents/!!ResearchBMECOGSCI/gnet,0,0,0,prototype2.png,no,mono,no,18,no,black,no,no,768,1140,3.5.6,legacy,xpyriment,osweb,1.3.13,0,space,space,space,,21859,29526,21859,,2,legacy,824,1536,24,864,24,0,0,1536,1645819297128,1024,2,48000,-16,experiment,prototype5.png,0,even,Win32,126,141363,138350,126,126,430588,432090,425586,142879,425586,126,,,,,,visual_patterns,0,0,0,yes,1366
undefined,undefined,undefined,undefined,white,no,Mozilla,Netscape,"5.0 (Windows NT 10.0; Win64; x64) AppleWebKit/537.36 (KHTML, like Gecko) Chrome/98.0.4758.102 Safari/537.36",xpyriment,legacy,legacy,0,uniform,0,0,0,0,24,24,24,0,0,41,41,41,41,41,0,41,0,,,,,,0,,25-01-22,25-01-22,21:00:58,Fri Feb 25 2022 21:00:58 GMT+0100 (közép-európai téli idő),The main experiment item,yes,0,0,C:/Users/rrics/Documents/!!ResearchBMECOGSCI/gnet,0,0,0,prototype2.png,no,mono,no,18,no,black,no,no,768,1140,3.5.6,legacy,xpyriment,osweb,1.3.13,0,space,space,space,,21859,29526,21859,,2,legacy,824,1536,24,864,24,0,0,1536,1645819297128,1024,2,48000,-16,experiment,p3sarrshacol2.png,0,even,Win32,126,141363,138350,126,126,437102,438617,432098,142879,432098,126,,,,,,visual_patterns,0,0,0,yes,1366
undefined,undefined,undefined,undefined,white,no,Mozilla,Netscape,"5.0 (Windows NT 10.0; Win64; x64) AppleWebKit/537.36 (KHTML, like Gecko) Chrome/98.0.4758.102 Safari/537.36",xpyriment,legacy,legacy,0,uniform,0,0,0,0,24,24,24,0,0,42,42,42,42,42,0,42,0,,,,,,0,,25-01-22,25-01-22,21:00:58,Fri Feb 25 2022 21:00:58 GMT+0100 (közép-európai téli idő),The main experiment item,yes,0,0,C:/Users/rrics/Documents/!!ResearchBMECOGSCI/gnet,0,0,0,prototype2.png,no,mono,no,18,no,black,no,no,768,1140,3.5.6,legacy,xpyriment,osweb,1.3.13,0,space,space,space,,21859,29526,21859,,2,legacy,824,1536,24,864,24,0,0,1536,1645819297128,1024,2,48000,-16,experiment,p3sarrcol2.png,0,even,Win32,126,141363,138350,126,126,443626,445127,438626,142879,438626,126,,,,,,visual_patterns,0,0,0,yes,1366
undefined,undefined,undefined,undefined,white,no,Mozilla,Netscape,"5.0 (Windows NT 10.0; Win64; x64) AppleWebKit/537.36 (KHTML, like Gecko) Chrome/98.0.4758.102 Safari/537.36",xpyriment,legacy,legacy,0,uniform,0,0,0,0,24,24,24,0,0,43,43,43,43,43,0,43,0,,,,,,0,,25-01-22,25-01-22,21:00:58,Fri Feb 25 2022 21:00:58 GMT+0100 (közép-európai téli idő),The main experiment item,yes,0,0,C:/Users/rrics/Documents/!!ResearchBMECOGSCI/gnet,0,0,0,prototype2.png,no,mono,no,18,no,black,no,no,768,1140,3.5.6,legacy,xpyriment,osweb,1.3.13,0,space,space,space,,21859,29526,21859,,2,legacy,824,1536,24,864,24,0,0,1536,1645819297128,1024,2,48000,-16,experiment,p3sarr2.png,0,even,Win32,126,141363,138350,126,126,450156,451671,445153,142879,445153,126,,,,,,visual_patterns,0,0,0,yes,1366
undefined,undefined,undefined,undefined,white,no,Mozilla,Netscape,"5.0 (Windows NT 10.0; Win64; x64) AppleWebKit/537.36 (KHTML, like Gecko) Chrome/98.0.4758.102 Safari/537.36",xpyriment,legacy,legacy,0,uniform,0,0,0,0,24,24,24,0,0,44,44,44,44,44,0,44,0,,,,,,0,,25-01-22,25-01-22,21:00:58,Fri Feb 25 2022 21:00:58 GMT+0100 (közép-európai téli idő),The main experiment item,yes,0,0,C:/Users/rrics/Documents/!!ResearchBMECOGSCI/gnet,0,0,0,prototype2.png,no,mono,no,18,no,black,no,no,768,1140,3.5.6,legacy,xpyriment,osweb,1.3.13,0,space,space,space,,21859,29526,21859,,2,legacy,824,1536,24,864,24,0,0,1536,1645819297128,1024,2,48000,-16,experiment,p2sarrsha1.png,0,even,Win32,126,141363,138350,126,126,456684,458198,451681,142879,451681,126,,,,,,visual_patterns,0,0,0,yes,1366
undefined,undefined,undefined,undefined,white,no,Mozilla,Netscape,"5.0 (Windows NT 10.0; Win64; x64) AppleWebKit/537.36 (KHTML, like Gecko) Chrome/98.0.4758.102 Safari/537.36",xpyriment,legacy,legacy,0,uniform,0,0,0,0,24,24,24,0,0,45,45,45,45,45,0,45,0,,,,,,0,,25-01-22,25-01-22,21:00:58,Fri Feb 25 2022 21:00:58 GMT+0100 (közép-európai téli idő),The main experiment item,yes,0,0,C:/Users/rrics/Documents/!!ResearchBMECOGSCI/gnet,0,0,0,prototype2.png,no,mono,no,18,no,black,no,no,768,1140,3.5.6,legacy,xpyriment,osweb,1.3.13,0,space,space,space,,21859,29526,21859,,2,legacy,824,1536,24,864,24,0,0,1536,1645819297128,1024,2,48000,-16,experiment,p4sarrsha1.png,0,even,Win32,126,141363,138350,126,126,463208,464709,458205,142879,458205,126,,,,,,visual_patterns,0,0,0,yes,1366
undefined,undefined,undefined,undefined,white,no,Mozilla,Netscape,"5.0 (Windows NT 10.0; Win64; x64) AppleWebKit/537.36 (KHTML, like Gecko) Chrome/98.0.4758.102 Safari/537.36",xpyriment,legacy,legacy,0,uniform,0,0,0,0,24,24,24,0,0,46,46,46,46,46,0,46,0,,,,,,0,,25-01-22,25-01-22,21:00:58,Fri Feb 25 2022 21:00:58 GMT+0100 (közép-európai téli idő),The main experiment item,yes,0,0,C:/Users/rrics/Documents/!!ResearchBMECOGSCI/gnet,0,0,0,prototype2.png,no,mono,no,18,no,black,no,no,768,1140,3.5.6,legacy,xpyriment,osweb,1.3.13,0,space,space,space,,21859,29526,21859,,2,legacy,824,1536,24,864,24,0,0,1536,1645819297128,1024,2,48000,-16,experiment,p1sarrcol1.png,0,even,Win32,126,141363,138350,126,126,469721,471236,464719,142879,464719,126,,,,,,visual_patterns,0,0,0,yes,1366
undefined,undefined,undefined,undefined,white,no,Mozilla,Netscape,"5.0 (Windows NT 10.0; Win64; x64) AppleWebKit/537.36 (KHTML, like Gecko) Chrome/98.0.4758.102 Safari/537.36",xpyriment,legacy,legacy,0,uniform,0,0,0,0,24,24,24,0,0,47,47,47,47,47,0,47,0,,,,,,0,,25-01-22,25-01-22,21:00:58,Fri Feb 25 2022 21:00:58 GMT+0100 (közép-európai téli idő),The main experiment item,yes,0,0,C:/Users/rrics/Documents/!!ResearchBMECOGSCI/gnet,0,0,0,prototype2.png,no,mono,no,18,no,black,no,no,768,1140,3.5.6,legacy,xpyriment,osweb,1.3.13,0,space,space,space,,21859,29526,21859,,2,legacy,824,1536,24,864,24,0,0,1536,1645819297128,1024,2,48000,-16,experiment,p1sarrsha2.png,0,even,Win32,126,141363,138350,126,126,476249,477763,471245,142879,471245,126,,,,,,visual_patterns,0,0,0,yes,1366
undefined,undefined,undefined,undefined,white,no,Mozilla,Netscape,"5.0 (Windows NT 10.0; Win64; x64) AppleWebKit/537.36 (KHTML, like Gecko) Chrome/98.0.4758.102 Safari/537.36",xpyriment,legacy,legacy,0,uniform,0,0,0,0,24,24,24,0,0,48,48,48,48,48,0,48,0,,,,,,0,,25-01-22,25-01-22,21:00:58,Fri Feb 25 2022 21:00:58 GMT+0100 (közép-európai téli idő),The main experiment item,yes,0,0,C:/Users/rrics/Documents/!!ResearchBMECOGSCI/gnet,0,0,0,prototype2.png,no,mono,no,18,no,black,no,no,768,1140,3.5.6,legacy,xpyriment,osweb,1.3.13,0,space,space,space,,21859,29526,21859,,2,legacy,824,1536,24,864,24,0,0,1536,1645819297128,1024,2,48000,-16,experiment,p7sarr2.png,0,even,Win32,126,141363,138350,126,126,482786,484291,477780,142879,477780,126,,,,,,visual_patterns,0,0,0,yes,1366
undefined,undefined,undefined,undefined,white,no,Mozilla,Netscape,"5.0 (Windows NT 10.0; Win64; x64) AppleWebKit/537.36 (KHTML, like Gecko) Chrome/98.0.4758.102 Safari/537.36",xpyriment,legacy,legacy,0,uniform,0,0,0,0,24,24,24,0,0,49,49,49,49,49,0,49,0,,,,,,0,,25-01-22,25-01-22,21:00:58,Fri Feb 25 2022 21:00:58 GMT+0100 (közép-európai téli idő),The main experiment item,yes,0,0,C:/Users/rrics/Documents/!!ResearchBMECOGSCI/gnet,0,0,0,prototype2.png,no,mono,no,18,no,black,no,no,768,1140,3.5.6,legacy,xpyriment,osweb,1.3.13,0,space,space,space,,21859,29526,21859,,2,legacy,824,1536,24,864,24,0,0,1536,1645819297128,1024,2,48000,-16,experiment,p4sarr1.png,0,even,Win32,126,141363,138350,126,126,489303,490817,484299,142879,484299,126,,,,,,visual_patterns,0,0,0,yes,1366
undefined,undefined,undefined,undefined,white,no,Mozilla,Netscape,"5.0 (Windows NT 10.0; Win64; x64) AppleWebKit/537.36 (KHTML, like Gecko) Chrome/98.0.4758.102 Safari/537.36",xpyriment,legacy,legacy,0,uniform,0,0,0,0,24,24,24,0,0,50,50,50,50,50,0,50,0,,,,,,0,,25-01-22,25-01-22,21:00:58,Fri Feb 25 2022 21:00:58 GMT+0100 (közép-európai téli idő),The main experiment item,yes,0,0,C:/Users/rrics/Documents/!!ResearchBMECOGSCI/gnet,0,0,0,prototype2.png,no,mono,no,18,no,black,no,no,768,1140,3.5.6,legacy,xpyriment,osweb,1.3.13,0,space,space,space,,21859,29526,21859,,2,legacy,824,1536,24,864,24,0,0,1536,1645819297128,1024,2,48000,-16,experiment,p10sarr1.png,0,even,Win32,126,141363,138350,126,126,495824,497328,490823,142879,490823,126,,,,,,visual_patterns,0,0,0,yes,1366
undefined,undefined,undefined,undefined,white,no,Mozilla,Netscape,"5.0 (Windows NT 10.0; Win64; x64) AppleWebKit/537.36 (KHTML, like Gecko) Chrome/98.0.4758.102 Safari/537.36",xpyriment,legacy,legacy,0,uniform,0,0,0,0,24,24,24,0,0,51,51,51,51,51,0,51,0,,,,,,0,,25-01-22,25-01-22,21:00:58,Fri Feb 25 2022 21:00:58 GMT+0100 (közép-európai téli idő),The main experiment item,yes,0,0,C:/Users/rrics/Documents/!!ResearchBMECOGSCI/gnet,0,0,0,prototype2.png,no,mono,no,18,no,black,no,no,768,1140,3.5.6,legacy,xpyriment,osweb,1.3.13,0,space,space,space,,21859,29526,21859,,2,legacy,824,1536,24,864,24,0,0,1536,1645819297128,1024,2,48000,-16,experiment,prototype3.png,0,even,Win32,126,141363,138350,126,126,502341,503856,497335,142879,497335,126,,,,,,visual_patterns,0,0,0,yes,1366
undefined,undefined,undefined,undefined,white,no,Mozilla,Netscape,"5.0 (Windows NT 10.0; Win64; x64) AppleWebKit/537.36 (KHTML, like Gecko) Chrome/98.0.4758.102 Safari/537.36",xpyriment,legacy,legacy,0,uniform,0,0,0,0,24,24,24,0,0,52,52,52,52,52,0,52,0,,,,,,0,,25-01-22,25-01-22,21:00:58,Fri Feb 25 2022 21:00:58 GMT+0100 (közép-európai téli idő),The main experiment item,yes,0,0,C:/Users/rrics/Documents/!!ResearchBMECOGSCI/gnet,0,0,0,prototype2.png,no,mono,no,18,no,black,no,no,768,1140,3.5.6,legacy,xpyriment,osweb,1.3.13,0,space,space,space,,21859,29526,21859,,2,legacy,824,1536,24,864,24,0,0,1536,1645819297128,1024,2,48000,-16,experiment,p1sarr1.png,0,even,Win32,126,141363,138350,126,126,508863,510366,503867,142879,503867,126,,,,,,visual_patterns,0,0,0,yes,1366
undefined,undefined,undefined,undefined,white,no,Mozilla,Netscape,"5.0 (Windows NT 10.0; Win64; x64) AppleWebKit/537.36 (KHTML, like Gecko) Chrome/98.0.4758.102 Safari/537.36",xpyriment,legacy,legacy,0,uniform,0,0,0,0,24,24,24,0,0,53,53,53,53,53,0,53,0,,,,,,0,,25-01-22,25-01-22,21:00:58,Fri Feb 25 2022 21:00:58 GMT+0100 (közép-európai téli idő),The main experiment item,yes,0,0,C:/Users/rrics/Documents/!!ResearchBMECOGSCI/gnet,0,0,0,prototype2.png,no,mono,no,18,no,black,no,no,768,1140,3.5.6,legacy,xpyriment,osweb,1.3.13,0,space,space,space,,21859,29526,21859,,2,legacy,824,1536,24,864,24,0,0,1536,1645819297128,1024,2,48000,-16,experiment,p1sarrcol2.png,0,even,Win32,126,141363,138350,126,126,515389,516893,510382,142879,510382,126,,,,,,visual_patterns,0,0,0,yes,1366
undefined,undefined,undefined,undefined,white,no,Mozilla,Netscape,"5.0 (Windows NT 10.0; Win64; x64) AppleWebKit/537.36 (KHTML, like Gecko) Chrome/98.0.4758.102 Safari/537.36",xpyriment,legacy,legacy,0,uniform,0,0,0,0,24,24,24,0,0,54,54,54,54,54,0,54,0,,,,,,0,,25-01-22,25-01-22,21:00:58,Fri Feb 25 2022 21:00:58 GMT+0100 (közép-európai téli idő),The main experiment item,yes,0,0,C:/Users/rrics/Documents/!!ResearchBMECOGSCI/gnet,0,0,0,prototype2.png,no,mono,no,18,no,black,no,no,768,1140,3.5.6,legacy,xpyriment,osweb,1.3.13,0,space,space,space,,21859,29526,21859,,2,legacy,824,1536,24,864,24,0,0,1536,1645819297128,1024,2,48000,-16,experiment,p2sarrcol2.png,0,even,Win32,126,141363,138350,126,126,521903,523404,516902,142879,516902,126,,,,,,visual_patterns,0,0,0,yes,1366
undefined,undefined,undefined,undefined,white,no,Mozilla,Netscape,"5.0 (Windows NT 10.0; Win64; x64) AppleWebKit/537.36 (KHTML, like Gecko) Chrome/98.0.4758.102 Safari/537.36",xpyriment,legacy,legacy,0,uniform,0,0,0,0,24,24,24,0,0,55,55,55,55,55,0,55,0,,,,,,0,,25-01-22,25-01-22,21:00:58,Fri Feb 25 2022 21:00:58 GMT+0100 (közép-európai téli idő),The main experiment item,yes,0,0,C:/Users/rrics/Documents/!!ResearchBMECOGSCI/gnet,0,0,0,prototype2.png,no,mono,no,18,no,black,no,no,768,1140,3.5.6,legacy,xpyriment,osweb,1.3.13,0,space,space,space,,21859,29526,21859,,2,legacy,824,1536,24,864,24,0,0,1536,1645819297128,1024,2,48000,-16,experiment,prototype4.png,0,even,Win32,126,141363,138350,126,126,528414,529915,523412,142879,523412,126,,,,,,visual_patterns,0,0,0,yes,1366
undefined,undefined,undefined,undefined,white,no,Mozilla,Netscape,"5.0 (Windows NT 10.0; Win64; x64) AppleWebKit/537.36 (KHTML, like Gecko) Chrome/98.0.4758.102 Safari/537.36",xpyriment,legacy,legacy,0,uniform,0,0,0,0,24,24,24,0,0,56,56,56,56,56,0,56,0,,,,,,0,,25-01-22,25-01-22,21:00:58,Fri Feb 25 2022 21:00:58 GMT+0100 (közép-európai téli idő),The main experiment item,yes,0,0,C:/Users/rrics/Documents/!!ResearchBMECOGSCI/gnet,0,0,0,prototype2.png,no,mono,no,18,no,black,no,no,768,1140,3.5.6,legacy,xpyriment,osweb,1.3.13,0,space,space,space,,21859,29526,21859,,2,legacy,824,1536,24,864,24,0,0,1536,1645819297128,1024,2,48000,-16,experiment,p2sarrshacol1.png,0,even,Win32,126,141363,138350,126,126,534927,536442,529925,142879,529925,126,,,,,,visual_patterns,0,0,0,yes,1366
undefined,undefined,undefined,undefined,white,no,Mozilla,Netscape,"5.0 (Windows NT 10.0; Win64; x64) AppleWebKit/537.36 (KHTML, like Gecko) Chrome/98.0.4758.102 Safari/537.36",xpyriment,legacy,legacy,0,uniform,0,0,0,0,24,24,24,0,0,57,57,57,57,57,0,57,0,,,,,,0,,25-01-22,25-01-22,21:00:58,Fri Feb 25 2022 21:00:58 GMT+0100 (közép-európai téli idő),The main experiment item,yes,0,0,C:/Users/rrics/Documents/!!ResearchBMECOGSCI/gnet,0,0,0,prototype2.png,no,mono,no,18,no,black,no,no,768,1140,3.5.6,legacy,xpyriment,osweb,1.3.13,0,space,space,space,,21859,29526,21859,,2,legacy,824,1536,24,864,24,0,0,1536,1645819297128,1024,2,48000,-16,experiment,prototype5.png,0,even,Win32,126,141363,138350,126,126,541450,542952,536449,142879,536449,126,,,,,,visual_patterns,0,0,0,yes,1366
undefined,undefined,undefined,undefined,white,no,Mozilla,Netscape,"5.0 (Windows NT 10.0; Win64; x64) AppleWebKit/537.36 (KHTML, like Gecko) Chrome/98.0.4758.102 Safari/537.36",xpyriment,legacy,legacy,0,uniform,0,0,0,0,24,24,24,0,0,58,58,58,58,58,0,58,0,,,,,,0,,25-01-22,25-01-22,21:00:58,Fri Feb 25 2022 21:00:58 GMT+0100 (közép-európai téli idő),The main experiment item,yes,0,0,C:/Users/rrics/Documents/!!ResearchBMECOGSCI/gnet,0,0,0,prototype2.png,no,mono,no,18,no,black,no,no,768,1140,3.5.6,legacy,xpyriment,osweb,1.3.13,0,space,space,space,,21859,29526,21859,,2,legacy,824,1536,24,864,24,0,0,1536,1645819297128,1024,2,48000,-16,experiment,prototype2.png,0,even,Win32,126,141363,138350,126,126,547960,549463,542959,142879,542959,126,,,,,,visual_patterns,0,0,0,yes,1366
undefined,undefined,undefined,undefined,white,no,Mozilla,Netscape,"5.0 (Windows NT 10.0; Win64; x64) AppleWebKit/537.36 (KHTML, like Gecko) Chrome/98.0.4758.102 Safari/537.36",xpyriment,legacy,legacy,0,uniform,0,0,0,0,24,24,24,0,0,59,59,59,59,59,0,59,0,,,,,,0,,25-01-22,25-01-22,21:00:58,Fri Feb 25 2022 21:00:58 GMT+0100 (közép-európai téli idő),The main experiment item,yes,0,0,C:/Users/rrics/Documents/!!ResearchBMECOGSCI/gnet,0,0,0,prototype2.png,no,mono,no,18,no,black,no,no,768,1140,3.5.6,legacy,xpyriment,osweb,1.3.13,0,space,space,space,,21859,29526,21859,,2,legacy,824,1536,24,864,24,0,0,1536,1645819297128,1024,2,48000,-16,experiment,prototype5.png,0,even,Win32,126,141363,138350,126,126,554475,555990,549471,142879,549471,126,,,,,,visual_patterns,0,0,0,yes,1366
undefined,undefined,undefined,undefined,white,no,Mozilla,Netscape,"5.0 (Windows NT 10.0; Win64; x64) AppleWebKit/537.36 (KHTML, like Gecko) Chrome/98.0.4758.102 Safari/537.36",xpyriment,legacy,legacy,0,uniform,0,0,0,0,24,24,24,0,0,60,60,60,60,60,0,60,0,,,,,,0,,25-01-22,25-01-22,21:00:58,Fri Feb 25 2022 21:00:58 GMT+0100 (közép-európai téli idő),The main experiment item,yes,0,0,C:/Users/rrics/Documents/!!ResearchBMECOGSCI/gnet,0,0,0,prototype2.png,no,mono,no,18,no,black,no,no,768,1140,3.5.6,legacy,xpyriment,osweb,1.3.13,0,space,space,space,,21859,29526,21859,,2,legacy,824,1536,24,864,24,0,0,1536,1645819297128,1024,2,48000,-16,experiment,p1sarrshacol2.png,0,even,Win32,126,141363,138350,126,126,561003,562517,556000,142879,556000,126,,,,,,visual_patterns,0,0,0,yes,1366
undefined,undefined,undefined,undefined,white,no,Mozilla,Netscape,"5.0 (Windows NT 10.0; Win64; x64) AppleWebKit/537.36 (KHTML, like Gecko) Chrome/98.0.4758.102 Safari/537.36",xpyriment,legacy,legacy,0,uniform,0,0,0,0,24,24,24,0,0,61,61,61,61,61,0,61,0,,,,,,0,,25-01-22,25-01-22,21:00:58,Fri Feb 25 2022 21:00:58 GMT+0100 (közép-európai téli idő),The main experiment item,yes,0,0,C:/Users/rrics/Documents/!!ResearchBMECOGSCI/gnet,0,0,0,prototype2.png,no,mono,no,18,no,black,no,no,768,1140,3.5.6,legacy,xpyriment,osweb,1.3.13,0,space,space,space,,21859,29526,21859,,2,legacy,824,1536,24,864,24,0,0,1536,1645819297128,1024,2,48000,-16,experiment,p2sarrcol1.png,0,even,Win32,126,141363,138350,126,126,567530,569045,562524,142879,562524,126,,,,,,visual_patterns,0,0,0,yes,1366
undefined,undefined,undefined,undefined,white,no,Mozilla,Netscape,"5.0 (Windows NT 10.0; Win64; x64) AppleWebKit/537.36 (KHTML, like Gecko) Chrome/98.0.4758.102 Safari/537.36",xpyriment,legacy,legacy,0,uniform,0,0,0,0,24,24,24,0,0,62,62,62,62,62,0,62,0,,,,,,0,,25-01-22,25-01-22,21:00:58,Fri Feb 25 2022 21:00:58 GMT+0100 (közép-európai téli idő),The main experiment item,yes,0,0,C:/Users/rrics/Documents/!!ResearchBMECOGSCI/gnet,0,0,0,prototype2.png,no,mono,no,18,no,black,no,no,768,1140,3.5.6,legacy,xpyriment,osweb,1.3.13,0,space,space,space,,21859,29526,21859,,2,legacy,824,1536,24,864,24,0,0,1536,1645819297128,1024,2,48000,-16,experiment,p5sarr2.png,0,even,Win32,126,141363,138350,126,126,574057,575572,569053,142879,569053,126,,,,,,visual_patterns,0,0,0,yes,1366
undefined,undefined,undefined,undefined,white,no,Mozilla,Netscape,"5.0 (Windows NT 10.0; Win64; x64) AppleWebKit/537.36 (KHTML, like Gecko) Chrome/98.0.4758.102 Safari/537.36",xpyriment,legacy,legacy,0,uniform,0,0,0,0,24,24,24,0,0,63,63,63,63,63,0,63,0,,,,,,0,,25-01-22,25-01-22,21:00:58,Fri Feb 25 2022 21:00:58 GMT+0100 (közép-európai téli idő),The main experiment item,yes,0,0,C:/Users/rrics/Documents/!!ResearchBMECOGSCI/gnet,0,0,0,prototype2.png,no,mono,no,18,no,black,no,no,768,1140,3.5.6,legacy,xpyriment,osweb,1.3.13,0,space,space,space,,21859,29526,21859,,2,legacy,824,1536,24,864,24,0,0,1536,1645819297128,1024,2,48000,-16,experiment,p10sarr2.png,0,even,Win32,126,141363,138350,126,126,580600,582116,575597,142879,575597,126,,,,,,visual_patterns,0,0,0,yes,1366
undefined,undefined,undefined,undefined,white,no,Mozilla,Netscape,"5.0 (Windows NT 10.0; Win64; x64) AppleWebKit/537.36 (KHTML, like Gecko) Chrome/98.0.4758.102 Safari/537.36",xpyriment,legacy,legacy,0,uniform,0,0,0,0,24,24,24,0,0,64,64,64,64,64,0,64,0,,,,,,0,,25-01-22,25-01-22,21:00:58,Fri Feb 25 2022 21:00:58 GMT+0100 (közép-európai téli idő),The main experiment item,yes,0,0,C:/Users/rrics/Documents/!!ResearchBMECOGSCI/gnet,0,0,0,prototype2.png,no,mono,no,18,no,black,no,no,768,1140,3.5.6,legacy,xpyriment,osweb,1.3.13,0,space,space,space,,21859,29526,21859,,2,legacy,824,1536,24,864,24,0,0,1536,1645819297128,1024,2,48000,-16,experiment,prototype1.png,0,even,Win32,126,141363,138350,126,126,587123,588626,582122,142879,582122,126,,,,,,visual_patterns,0,0,0,yes,1366
undefined,undefined,undefined,undefined,white,no,Mozilla,Netscape,"5.0 (Windows NT 10.0; Win64; x64) AppleWebKit/537.36 (KHTML, like Gecko) Chrome/98.0.4758.102 Safari/537.36",xpyriment,legacy,legacy,0,uniform,0,0,0,0,24,24,24,0,0,65,65,65,65,65,0,65,0,,,,,,0,,25-01-22,25-01-22,21:00:58,Fri Feb 25 2022 21:00:58 GMT+0100 (közép-európai téli idő),The main experiment item,yes,0,0,C:/Users/rrics/Documents/!!ResearchBMECOGSCI/gnet,0,0,0,prototype2.png,no,mono,no,18,no,black,no,no,768,1140,3.5.6,legacy,xpyriment,osweb,1.3.13,0,space,space,space,,21859,29526,21859,,2,legacy,824,1536,24,864,24,0,0,1536,1645819297128,1024,2,48000,-16,experiment,prototype4.png,0,even,Win32,126,141363,138350,126,126,593639,595154,588633,142879,588633,126,,,,,,visual_patterns,0,0,0,yes,1366
undefined,undefined,undefined,undefined,white,no,Mozilla,Netscape,"5.0 (Windows NT 10.0; Win64; x64) AppleWebKit/537.36 (KHTML, like Gecko) Chrome/98.0.4758.102 Safari/537.36",xpyriment,legacy,legacy,0,uniform,0,0,0,0,24,24,24,0,0,66,66,66,66,66,0,66,0,,,,,,0,,25-01-22,25-01-22,21:00:58,Fri Feb 25 2022 21:00:58 GMT+0100 (közép-európai téli idő),The main experiment item,yes,0,0,C:/Users/rrics/Documents/!!ResearchBMECOGSCI/gnet,0,0,0,prototype2.png,no,mono,no,18,no,black,no,no,768,1140,3.5.6,legacy,xpyriment,osweb,1.3.13,0,space,space,space,,21859,29526,21859,,2,legacy,824,1536,24,864,24,0,0,1536,1645819297128,1024,2,48000,-16,experiment,p2sarrshacol2.png,0,even,Win32,126,141363,138350,126,126,600165,601681,595163,142879,595163,126,,,,,,visual_patterns,0,0,0,yes,1366
undefined,undefined,undefined,undefined,white,no,Mozilla,Netscape,"5.0 (Windows NT 10.0; Win64; x64) AppleWebKit/537.36 (KHTML, like Gecko) Chrome/98.0.4758.102 Safari/537.36",xpyriment,legacy,legacy,0,uniform,0,0,0,0,24,24,24,0,0,67,67,67,67,67,0,67,0,,,,,,0,,25-01-22,25-01-22,21:00:58,Fri Feb 25 2022 21:00:58 GMT+0100 (közép-európai téli idő),The main experiment item,yes,0,0,C:/Users/rrics/Documents/!!ResearchBMECOGSCI/gnet,0,0,0,prototype2.png,no,mono,no,18,no,black,no,no,768,1140,3.5.6,legacy,xpyriment,osweb,1.3.13,0,space,space,space,,21859,29526,21859,,2,legacy,824,1536,24,864,24,0,0,1536,1645819297128,1024,2,48000,-16,experiment,p1sarr2.png,0,even,Win32,126,141363,138350,126,126,606689,608191,601691,142879,601691,126,,,,,,visual_patterns,0,0,0,yes,1366
undefined,undefined,undefined,undefined,white,no,Mozilla,Netscape,"5.0 (Windows NT 10.0; Win64; x64) AppleWebKit/537.36 (KHTML, like Gecko) Chrome/98.0.4758.102 Safari/537.36",xpyriment,legacy,legacy,0,uniform,0,0,0,0,24,24,24,0,0,68,68,68,68,68,0,68,0,,,,,,0,,25-01-22,25-01-22,21:00:58,Fri Feb 25 2022 21:00:58 GMT+0100 (közép-európai téli idő),The main experiment item,yes,0,0,C:/Users/rrics/Documents/!!ResearchBMECOGSCI/gnet,0,0,0,prototype2.png,no,mono,no,18,no,black,no,no,768,1140,3.5.6,legacy,xpyriment,osweb,1.3.13,0,space,space,space,,21859,29526,21859,,2,legacy,824,1536,24,864,24,0,0,1536,1645819297128,1024,2,48000,-16,experiment,p6sarr2.png,0,even,Win32,126,141363,138350,126,126,613214,614719,608206,142879,608206,126,,,,,,visual_patterns,0,0,0,yes,1366
undefined,undefined,undefined,undefined,white,no,Mozilla,Netscape,"5.0 (Windows NT 10.0; Win64; x64) AppleWebKit/537.36 (KHTML, like Gecko) Chrome/98.0.4758.102 Safari/537.36",xpyriment,legacy,legacy,0,uniform,0,0,0,0,24,24,24,0,0,69,69,69,69,69,0,69,0,,,,,,0,,25-01-22,25-01-22,21:00:58,Fri Feb 25 2022 21:00:58 GMT+0100 (közép-európai téli idő),The main experiment item,yes,0,0,C:/Users/rrics/Documents/!!ResearchBMECOGSCI/gnet,0,0,0,prototype2.png,no,mono,no,18,no,black,no,no,768,1140,3.5.6,legacy,xpyriment,osweb,1.3.13,0,space,space,space,,21859,29526,21859,,2,legacy,824,1536,24,864,24,0,0,1536,1645819297128,1024,2,48000,-16,experiment,prototype2.png,0,even,Win32,126,141363,138350,126,126,619729,621246,614725,142879,614725,126,,,,,,visual_patterns,0,0,0,yes,1366
undefined,undefined,undefined,undefined,white,no,Mozilla,Netscape,"5.0 (Windows NT 10.0; Win64; x64) AppleWebKit/537.36 (KHTML, like Gecko) Chrome/98.0.4758.102 Safari/537.36",xpyriment,legacy,legacy,0,uniform,0,0,0,0,24,24,24,0,0,70,70,70,70,70,0,70,0,,,,,,0,,25-01-22,25-01-22,21:00:58,Fri Feb 25 2022 21:00:58 GMT+0100 (közép-európai téli idő),The main experiment item,yes,0,0,C:/Users/rrics/Documents/!!ResearchBMECOGSCI/gnet,0,0,0,prototype2.png,no,mono,no,18,no,black,no,no,768,1140,3.5.6,legacy,xpyriment,osweb,1.3.13,0,space,space,space,,21859,29526,21859,,2,legacy,824,1536,24,864,24,0,0,1536,1645819297128,1024,2,48000,-16,experiment,p1sarrshacol1.png,0,even,Win32,126,141363,138350,126,126,626257,627773,621253,142879,621253,126,,,,,,visual_patterns,0,0,0,yes,1366
undefined,undefined,undefined,undefined,white,no,Mozilla,Netscape,"5.0 (Windows NT 10.0; Win64; x64) AppleWebKit/537.36 (KHTML, like Gecko) Chrome/98.0.4758.102 Safari/537.36",xpyriment,legacy,legacy,0,uniform,0,0,0,0,24,24,24,0,0,71,71,71,71,71,0,71,0,,,,,,0,,25-01-22,25-01-22,21:00:58,Fri Feb 25 2022 21:00:58 GMT+0100 (közép-európai téli idő),The main experiment item,yes,0,0,C:/Users/rrics/Documents/!!ResearchBMECOGSCI/gnet,0,0,0,prototype2.png,no,mono,no,18,no,black,no,no,768,1140,3.5.6,legacy,xpyriment,osweb,1.3.13,0,space,space,space,,21859,29526,21859,,2,legacy,824,1536,24,864,24,0,0,1536,1645819297128,1024,2,48000,-16,experiment,prototype1.png,0,even,Win32,126,141363,138350,126,126,632786,634300,627781,142879,627781,126,,,,,,visual_patterns,0,0,0,yes,1366
undefined,undefined,undefined,undefined,white,no,Mozilla,Netscape,"5.0 (Windows NT 10.0; Win64; x64) AppleWebKit/537.36 (KHTML, like Gecko) Chrome/98.0.4758.102 Safari/537.36",xpyriment,legacy,legacy,0,uniform,0,0,0,0,24,24,24,0,0,72,72,72,72,72,0,72,0,,,,,,0,,25-01-22,25-01-22,21:00:58,Fri Feb 25 2022 21:00:58 GMT+0100 (közép-európai téli idő),The main experiment item,yes,0,0,C:/Users/rrics/Documents/!!ResearchBMECOGSCI/gnet,0,0,0,prototype2.png,no,mono,no,18,no,black,no,no,768,1140,3.5.6,legacy,xpyriment,osweb,1.3.13,0,space,space,space,,21859,29526,21859,,2,legacy,824,1536,24,864,24,0,0,1536,1645819297128,1024,2,48000,-16,experiment,prototype5.png,0,even,Win32,126,141363,138350,126,126,639312,640828,634308,142879,634308,126,,,,,,visual_patterns,0,0,0,yes,1366
undefined,undefined,undefined,undefined,white,no,Mozilla,Netscape,"5.0 (Windows NT 10.0; Win64; x64) AppleWebKit/537.36 (KHTML, like Gecko) Chrome/98.0.4758.102 Safari/537.36",xpyriment,legacy,legacy,0,uniform,0,0,0,0,24,24,24,0,0,73,73,73,73,73,0,73,0,,,,,,0,,25-01-22,25-01-22,21:00:58,Fri Feb 25 2022 21:00:58 GMT+0100 (közép-európai téli idő),The main experiment item,yes,0,0,C:/Users/rrics/Documents/!!ResearchBMECOGSCI/gnet,0,0,0,prototype2.png,no,mono,no,18,no,black,no,no,768,1140,3.5.6,legacy,xpyriment,osweb,1.3.13,0,space,space,space,,21859,29526,21859,,2,legacy,824,1536,24,864,24,0,0,1536,1645819297128,1024,2,48000,-16,experiment,prototype3.png,0,even,Win32,126,141363,138350,126,126,645854,647355,640850,142879,640850,126,,,,,,visual_patterns,0,0,0,yes,1366
undefined,undefined,undefined,undefined,white,no,Mozilla,Netscape,"5.0 (Windows NT 10.0; Win64; x64) AppleWebKit/537.36 (KHTML, like Gecko) Chrome/98.0.4758.102 Safari/537.36",xpyriment,legacy,legacy,0,uniform,0,0,0,0,24,24,24,0,0,74,74,74,74,74,0,74,0,,,,,,0,,25-01-22,25-01-22,21:00:58,Fri Feb 25 2022 21:00:58 GMT+0100 (közép-európai téli idő),The main experiment item,yes,0,0,C:/Users/rrics/Documents/!!ResearchBMECOGSCI/gnet,0,0,0,prototype2.png,no,mono,no,18,no,black,no,no,768,1140,3.5.6,legacy,xpyriment,osweb,1.3.13,0,space,space,space,,21859,29526,21859,,2,legacy,824,1536,24,864,24,0,0,1536,1645819297128,1024,2,48000,-16,experiment,prototype2.png,0,even,Win32,126,141363,138350,126,126,652362,653865,647362,142879,647362,126,,,,,,visual_patterns,0,0,0,yes,1366
undefined,undefined,undefined,undefined,white,no,Mozilla,Netscape,"5.0 (Windows NT 10.0; Win64; x64) AppleWebKit/537.36 (KHTML, like Gecko) Chrome/98.0.4758.102 Safari/537.36",xpyriment,legacy,legacy,0,uniform,0,0,0,0,24,24,24,0,0,74,74,74,74,74,0,74,0,0,0,0,0,0,0,0,25-01-22,25-01-22,21:00:58,Fri Feb 25 2022 21:00:58 GMT+0100 (közép-európai téli idő),The main experiment item,yes,0,0,C:/Users/rrics/Documents/!!ResearchBMECOGSCI/gnet,0,0,0,prototype2.png,no,mono,no,18,no,black,no,no,768,1140,3.5.6,legacy,xpyriment,osweb,1.3.13,0,space,space,space,space,29293,29526,21859,29293,2,legacy,824,1536,24,864,24,0,0,1536,1645819297128,1024,2,48000,-16,experiment,p5sarrsha3.png,0,even,Win32,126,141363,138350,126,126,652362,653865,647362,142879,647362,126,686200,687708,683201,653869,683201,visual_patterns,0,0,0,yes,1366
undefined,undefined,undefined,undefined,white,no,Mozilla,Netscape,"5.0 (Windows NT 10.0; Win64; x64) AppleWebKit/537.36 (KHTML, like Gecko) Chrome/98.0.4758.102 Safari/537.36",xpyriment,legacy,legacy,0,uniform,0,0,0,0,24,24,24,0,0,74,74,74,74,74,0,74,0,1,1,1,1,1,0,1,25-01-22,25-01-22,21:00:58,Fri Feb 25 2022 21:00:58 GMT+0100 (közép-európai téli idő),The main experiment item,yes,0,0,C:/Users/rrics/Documents/!!ResearchBMECOGSCI/gnet,0,0,0,prototype2.png,no,mono,no,18,no,black,no,no,768,1140,3.5.6,legacy,xpyriment,osweb,1.3.13,0,space,space,space,space,29293,29526,21859,29293,2,legacy,824,1536,24,864,24,0,0,1536,1645819297128,1024,2,48000,-16,experiment,p2sarrshacol1.png,0,even,Win32,126,141363,138350,126,126,652362,653865,647362,142879,647362,126,690719,692230,687715,653869,687715,visual_patterns,0,0,0,yes,1366
undefined,undefined,undefined,undefined,white,no,Mozilla,Netscape,"5.0 (Windows NT 10.0; Win64; x64) AppleWebKit/537.36 (KHTML, like Gecko) Chrome/98.0.4758.102 Safari/537.36",xpyriment,legacy,legacy,0,uniform,0,0,0,0,24,24,24,0,0,74,74,74,74,74,0,74,0,2,2,2,2,2,0,2,25-01-22,25-01-22,21:00:58,Fri Feb 25 2022 21:00:58 GMT+0100 (közép-európai téli idő),The main experiment item,yes,0,0,C:/Users/rrics/Documents/!!ResearchBMECOGSCI/gnet,0,0,0,prototype2.png,no,mono,no,18,no,black,no,no,768,1140,3.5.6,legacy,xpyriment,osweb,1.3.13,0,space,space,space,space,29293,29526,21859,29293,2,legacy,824,1536,24,864,24,0,0,1536,1645819297128,1024,2,48000,-16,experiment,p4sarr4.png,0,even,Win32,126,141363,138350,126,126,652362,653865,647362,142879,647362,126,695241,696742,692241,653869,692241,visual_patterns,0,0,0,yes,1366
undefined,undefined,undefined,undefined,white,no,Mozilla,Netscape,"5.0 (Windows NT 10.0; Win64; x64) AppleWebKit/537.36 (KHTML, like Gecko) Chrome/98.0.4758.102 Safari/537.36",xpyriment,legacy,legacy,0,uniform,0,0,0,0,24,24,24,0,0,74,74,74,74,74,0,74,0,3,3,3,3,3,0,3,25-01-22,25-01-22,21:00:58,Fri Feb 25 2022 21:00:58 GMT+0100 (közép-európai téli idő),The main experiment item,yes,0,0,C:/Users/rrics/Documents/!!ResearchBMECOGSCI/gnet,0,0,0,prototype2.png,no,mono,no,18,no,black,no,no,768,1140,3.5.6,legacy,xpyriment,osweb,1.3.13,0,space,space,space,space,29293,29526,21859,29293,2,legacy,824,1536,24,864,24,0,0,1536,1645819297128,1024,2,48000,-16,experiment,p5sarrsha2.png,0,even,Win32,126,141363,138350,126,126,652362,653865,647362,142879,647362,126,699756,701271,696751,653869,696751,visual_patterns,0,0,0,yes,1366
undefined,undefined,undefined,undefined,white,no,Mozilla,Netscape,"5.0 (Windows NT 10.0; Win64; x64) AppleWebKit/537.36 (KHTML, like Gecko) Chrome/98.0.4758.102 Safari/537.36",xpyriment,legacy,legacy,0,uniform,0,0,0,0,24,24,24,0,0,74,74,74,74,74,0,74,0,4,4,4,4,4,0,4,25-01-22,25-01-22,21:00:58,Fri Feb 25 2022 21:00:58 GMT+0100 (közép-európai téli idő),The main experiment item,yes,0,0,C:/Users/rrics/Documents/!!ResearchBMECOGSCI/gnet,0,0,0,prototype2.png,no,mono,no,18,no,black,no,no,768,1140,3.5.6,legacy,xpyriment,osweb,1.3.13,0,space,space,space,space,29293,29526,21859,29293,2,legacy,824,1536,24,864,24,0,0,1536,1645819297128,1024,2,48000,-16,experiment,p7sarr2.png,0,even,Win32,126,141363,138350,126,126,652362,653865,647362,142879,647362,126,704282,705783,701283,653869,701283,visual_patterns,0,0,0,yes,1366
undefined,undefined,undefined,undefined,white,no,Mozilla,Netscape,"5.0 (Windows NT 10.0; Win64; x64) AppleWebKit/537.36 (KHTML, like Gecko) Chrome/98.0.4758.102 Safari/537.36",xpyriment,legacy,legacy,0,uniform,0,0,0,0,24,24,24,0,0,74,74,74,74,74,0,74,0,5,5,5,5,5,0,5,25-01-22,25-01-22,21:00:58,Fri Feb 25 2022 21:00:58 GMT+0100 (közép-európai téli idő),The main experiment item,yes,0,0,C:/Users/rrics/Documents/!!ResearchBMECOGSCI/gnet,0,0,0,prototype2.png,no,mono,no,18,no,black,no,no,768,1140,3.5.6,legacy,xpyriment,osweb,1.3.13,0,space,space,space,space,29293,29526,21859,29293,2,legacy,824,1536,24,864,24,0,0,1536,1645819297128,1024,2,48000,-16,experiment,p1sarrsha4.png,0,even,Win32,126,141363,138350,126,126,652362,653865,647362,142879,647362,126,708794,710296,705796,653869,705796,visual_patterns,0,0,0,yes,1366
undefined,undefined,undefined,undefined,white,no,Mozilla,Netscape,"5.0 (Windows NT 10.0; Win64; x64) AppleWebKit/537.36 (KHTML, like Gecko) Chrome/98.0.4758.102 Safari/537.36",xpyriment,legacy,legacy,0,uniform,0,0,0,0,24,24,24,0,0,74,74,74,74,74,0,74,0,6,6,6,6,6,0,6,25-01-22,25-01-22,21:00:58,Fri Feb 25 2022 21:00:58 GMT+0100 (közép-európai téli idő),The main experiment item,yes,0,0,C:/Users/rrics/Documents/!!ResearchBMECOGSCI/gnet,0,0,0,prototype2.png,no,mono,no,18,no,black,no,no,768,1140,3.5.6,legacy,xpyriment,osweb,1.3.13,0,space,space,space,space,29293,29526,21859,29293,2,legacy,824,1536,24,864,24,0,0,1536,1645819297128,1024,2,48000,-16,experiment,p3sarrcol2.png,0,even,Win32,126,141363,138350,126,126,652362,653865,647362,142879,647362,126,713305,714808,710303,653869,710303,visual_patterns,0,0,0,yes,1366
undefined,undefined,undefined,undefined,white,no,Mozilla,Netscape,"5.0 (Windows NT 10.0; Win64; x64) AppleWebKit/537.36 (KHTML, like Gecko) Chrome/98.0.4758.102 Safari/537.36",xpyriment,legacy,legacy,0,uniform,0,0,0,0,24,24,24,0,0,74,74,74,74,74,0,74,0,7,7,7,7,7,0,7,25-01-22,25-01-22,21:00:58,Fri Feb 25 2022 21:00:58 GMT+0100 (közép-európai téli idő),The main experiment item,yes,0,0,C:/Users/rrics/Documents/!!ResearchBMECOGSCI/gnet,0,0,0,prototype2.png,no,mono,no,18,no,black,no,no,768,1140,3.5.6,legacy,xpyriment,osweb,1.3.13,0,space,space,space,space,29293,29526,21859,29293,2,legacy,824,1536,24,864,24,0,0,1536,1645819297128,1024,2,48000,-16,experiment,p3sarrcol3.png,0,even,Win32,126,141363,138350,126,126,652362,653865,647362,142879,647362,126,717821,719337,714821,653869,714821,visual_patterns,0,0,0,yes,1366
undefined,undefined,undefined,undefined,white,no,Mozilla,Netscape,"5.0 (Windows NT 10.0; Win64; x64) AppleWebKit/537.36 (KHTML, like Gecko) Chrome/98.0.4758.102 Safari/537.36",xpyriment,legacy,legacy,0,uniform,0,0,0,0,24,24,24,0,0,74,74,74,74,74,0,74,0,8,8,8,8,8,0,8,25-01-22,25-01-22,21:00:58,Fri Feb 25 2022 21:00:58 GMT+0100 (közép-európai téli idő),The main experiment item,yes,0,0,C:/Users/rrics/Documents/!!ResearchBMECOGSCI/gnet,0,0,0,prototype2.png,no,mono,no,18,no,black,no,no,768,1140,3.5.6,legacy,xpyriment,osweb,1.3.13,0,space,space,space,space,29293,29526,21859,29293,2,legacy,824,1536,24,864,24,0,0,1536,1645819297128,1024,2,48000,-16,experiment,p1sarrsha1.png,0,even,Win32,126,141363,138350,126,126,652362,653865,647362,142879,647362,126,722349,723850,719347,653869,719347,visual_patterns,0,0,0,yes,1366
undefined,undefined,undefined,undefined,white,no,Mozilla,Netscape,"5.0 (Windows NT 10.0; Win64; x64) AppleWebKit/537.36 (KHTML, like Gecko) Chrome/98.0.4758.102 Safari/537.36",xpyriment,legacy,legacy,0,uniform,0,0,0,0,24,24,24,0,0,74,74,74,74,74,0,74,0,9,9,9,9,9,0,9,25-01-22,25-01-22,21:00:58,Fri Feb 25 2022 21:00:58 GMT+0100 (közép-európai téli idő),The main experiment item,yes,0,0,C:/Users/rrics/Documents/!!ResearchBMECOGSCI/gnet,0,0,0,prototype2.png,no,mono,no,18,no,black,no,no,768,1140,3.5.6,legacy,xpyriment,osweb,1.3.13,0,space,space,space,space,29293,29526,21859,29293,2,legacy,824,1536,24,864,24,0,0,1536,1645819297128,1024,2,48000,-16,experiment,p4sarr1.png,0,even,Win32,126,141363,138350,126,126,652362,653865,647362,142879,647362,126,726861,728362,723859,653869,723859,visual_patterns,0,0,0,yes,1366
undefined,undefined,undefined,undefined,white,no,Mozilla,Netscape,"5.0 (Windows NT 10.0; Win64; x64) AppleWebKit/537.36 (KHTML, like Gecko) Chrome/98.0.4758.102 Safari/537.36",xpyriment,legacy,legacy,0,uniform,0,0,0,0,24,24,24,0,0,74,74,74,74,74,0,74,0,10,10,10,10,10,0,10,25-01-22,25-01-22,21:00:58,Fri Feb 25 2022 21:00:58 GMT+0100 (közép-európai téli idő),The main experiment item,yes,0,0,C:/Users/rrics/Documents/!!ResearchBMECOGSCI/gnet,0,0,0,prototype2.png,no,mono,no,18,no,black,no,no,768,1140,3.5.6,legacy,xpyriment,osweb,1.3.13,0,space,space,space,space,29293,29526,21859,29293,2,legacy,824,1536,24,864,24,0,0,1536,1645819297128,1024,2,48000,-16,experiment,p9sarr2.png,0,even,Win32,126,141363,138350,126,126,652362,653865,647362,142879,647362,126,731371,732875,728370,653869,728370,visual_patterns,0,0,0,yes,1366
undefined,undefined,undefined,undefined,white,no,Mozilla,Netscape,"5.0 (Windows NT 10.0; Win64; x64) AppleWebKit/537.36 (KHTML, like Gecko) Chrome/98.0.4758.102 Safari/537.36",xpyriment,legacy,legacy,0,uniform,0,0,0,0,24,24,24,0,0,74,74,74,74,74,0,74,0,11,11,11,11,11,0,11,25-01-22,25-01-22,21:00:58,Fri Feb 25 2022 21:00:58 GMT+0100 (közép-európai téli idő),The main experiment item,yes,0,0,C:/Users/rrics/Documents/!!ResearchBMECOGSCI/gnet,0,0,0,prototype2.png,no,mono,no,18,no,black,no,no,768,1140,3.5.6,legacy,xpyriment,osweb,1.3.13,0,space,space,space,space,29293,29526,21859,29293,2,legacy,824,1536,24,864,24,0,0,1536,1645819297128,1024,2,48000,-16,experiment,p1sarr2.png,0,even,Win32,126,141363,138350,126,126,652362,653865,647362,142879,647362,126,735886,737387,732882,653869,732882,visual_patterns,0,0,0,yes,1366
undefined,undefined,undefined,undefined,white,no,Mozilla,Netscape,"5.0 (Windows NT 10.0; Win64; x64) AppleWebKit/537.36 (KHTML, like Gecko) Chrome/98.0.4758.102 Safari/537.36",xpyriment,legacy,legacy,0,uniform,0,0,0,0,24,24,24,0,0,74,74,74,74,74,0,74,0,12,12,12,12,12,0,12,25-01-22,25-01-22,21:00:58,Fri Feb 25 2022 21:00:58 GMT+0100 (közép-európai téli idő),The main experiment item,yes,0,0,C:/Users/rrics/Documents/!!ResearchBMECOGSCI/gnet,0,0,0,prototype2.png,no,mono,no,18,no,black,no,no,768,1140,3.5.6,legacy,xpyriment,osweb,1.3.13,0,space,space,space,space,29293,29526,21859,29293,2,legacy,824,1536,24,864,24,0,0,1536,1645819297128,1024,2,48000,-16,experiment,p3sarrcol4.png,0,even,Win32,126,141363,138350,126,126,652362,653865,647362,142879,647362,126,740397,741900,737399,653869,737399,visual_patterns,0,0,0,yes,1366
undefined,undefined,undefined,undefined,white,no,Mozilla,Netscape,"5.0 (Windows NT 10.0; Win64; x64) AppleWebKit/537.36 (KHTML, like Gecko) Chrome/98.0.4758.102 Safari/537.36",xpyriment,legacy,legacy,0,uniform,0,0,0,0,24,24,24,0,0,74,74,74,74,74,0,74,0,13,13,13,13,13,0,13,25-01-22,25-01-22,21:00:58,Fri Feb 25 2022 21:00:58 GMT+0100 (közép-európai téli idő),The main experiment item,yes,0,0,C:/Users/rrics/Documents/!!ResearchBMECOGSCI/gnet,0,0,0,prototype2.png,no,mono,no,18,no,black,no,no,768,1140,3.5.6,legacy,xpyriment,osweb,1.3.13,0,space,space,space,space,29293,29526,21859,29293,2,legacy,824,1536,24,864,24,0,0,1536,1645819297128,1024,2,48000,-16,experiment,p2sarrshacol2.png,0,even,Win32,126,141363,138350,126,126,652362,653865,647362,142879,647362,126,744913,746429,741909,653869,741909,visual_patterns,0,0,0,yes,1366
undefined,undefined,undefined,undefined,white,no,Mozilla,Netscape,"5.0 (Windows NT 10.0; Win64; x64) AppleWebKit/537.36 (KHTML, like Gecko) Chrome/98.0.4758.102 Safari/537.36",xpyriment,legacy,legacy,0,uniform,0,0,0,0,24,24,24,0,0,74,74,74,74,74,0,74,0,14,14,14,14,14,0,14,25-01-22,25-01-22,21:00:58,Fri Feb 25 2022 21:00:58 GMT+0100 (közép-európai téli idő),The main experiment item,yes,0,0,C:/Users/rrics/Documents/!!ResearchBMECOGSCI/gnet,0,0,0,prototype2.png,no,mono,no,18,no,black,no,no,768,1140,3.5.6,legacy,xpyriment,osweb,1.3.13,0,space,space,space,space,29293,29526,21859,29293,2,legacy,824,1536,24,864,24,0,0,1536,1645819297128,1024,2,48000,-16,experiment,p6sarr1.png,0,even,Win32,126,141363,138350,126,126,652362,653865,647362,142879,647362,126,749438,750941,746437,653869,746437,visual_patterns,0,0,0,yes,1366
undefined,undefined,undefined,undefined,white,no,Mozilla,Netscape,"5.0 (Windows NT 10.0; Win64; x64) AppleWebKit/537.36 (KHTML, like Gecko) Chrome/98.0.4758.102 Safari/537.36",xpyriment,legacy,legacy,0,uniform,0,0,0,0,24,24,24,0,0,74,74,74,74,74,0,74,0,15,15,15,15,15,0,15,25-01-22,25-01-22,21:00:58,Fri Feb 25 2022 21:00:58 GMT+0100 (közép-európai téli idő),The main experiment item,yes,0,0,C:/Users/rrics/Documents/!!ResearchBMECOGSCI/gnet,0,0,0,prototype2.png,no,mono,no,18,no,black,no,no,768,1140,3.5.6,legacy,xpyriment,osweb,1.3.13,0,space,space,space,space,29293,29526,21859,29293,2,legacy,824,1536,24,864,24,0,0,1536,1645819297128,1024,2,48000,-16,experiment,p4sarrshacol3.png,0,even,Win32,126,141363,138350,126,126,652362,653865,647362,142879,647362,126,753955,755470,750951,653869,750951,visual_patterns,0,0,0,yes,1366
undefined,undefined,undefined,undefined,white,no,Mozilla,Netscape,"5.0 (Windows NT 10.0; Win64; x64) AppleWebKit/537.36 (KHTML, like Gecko) Chrome/98.0.4758.102 Safari/537.36",xpyriment,legacy,legacy,0,uniform,0,0,0,0,24,24,24,0,0,74,74,74,74,74,0,74,0,16,16,16,16,16,0,16,25-01-22,25-01-22,21:00:58,Fri Feb 25 2022 21:00:58 GMT+0100 (közép-európai téli idő),The main experiment item,yes,0,0,C:/Users/rrics/Documents/!!ResearchBMECOGSCI/gnet,0,0,0,prototype2.png,no,mono,no,18,no,black,no,no,768,1140,3.5.6,legacy,xpyriment,osweb,1.3.13,0,space,space,space,space,29293,29526,21859,29293,2,legacy,824,1536,24,864,24,0,0,1536,1645819297128,1024,2,48000,-16,experiment,p4sarrshacol4.png,0,even,Win32,126,141363,138350,126,126,652362,653865,647362,142879,647362,126,758479,759982,755479,653869,755479,visual_patterns,0,0,0,yes,1366
undefined,undefined,undefined,undefined,white,no,Mozilla,Netscape,"5.0 (Windows NT 10.0; Win64; x64) AppleWebKit/537.36 (KHTML, like Gecko) Chrome/98.0.4758.102 Safari/537.36",xpyriment,legacy,legacy,0,uniform,0,0,0,0,24,24,24,0,0,74,74,74,74,74,0,74,0,17,17,17,17,17,0,17,25-01-22,25-01-22,21:00:58,Fri Feb 25 2022 21:00:58 GMT+0100 (közép-európai téli idő),The main experiment item,yes,0,0,C:/Users/rrics/Documents/!!ResearchBMECOGSCI/gnet,0,0,0,prototype2.png,no,mono,no,18,no,black,no,no,768,1140,3.5.6,legacy,xpyriment,osweb,1.3.13,0,space,space,space,space,29293,29526,21859,29293,2,legacy,824,1536,24,864,24,0,0,1536,1645819297128,1024,2,48000,-16,experiment,p2sarrcol1.png,0,even,Win32,126,141363,138350,126,126,652362,653865,647362,142879,647362,126,762995,764511,759990,653869,759990,visual_patterns,0,0,0,yes,1366
undefined,undefined,undefined,undefined,white,no,Mozilla,Netscape,"5.0 (Windows NT 10.0; Win64; x64) AppleWebKit/537.36 (KHTML, like Gecko) Chrome/98.0.4758.102 Safari/537.36",xpyriment,legacy,legacy,0,uniform,0,0,0,0,24,24,24,0,0,74,74,74,74,74,0,74,0,18,18,18,18,18,0,18,25-01-22,25-01-22,21:00:58,Fri Feb 25 2022 21:00:58 GMT+0100 (közép-európai téli idő),The main experiment item,yes,0,0,C:/Users/rrics/Documents/!!ResearchBMECOGSCI/gnet,0,0,0,prototype2.png,no,mono,no,18,no,black,no,no,768,1140,3.5.6,legacy,xpyriment,osweb,1.3.13,0,space,space,space,space,29293,29526,21859,29293,2,legacy,824,1536,24,864,24,0,0,1536,1645819297128,1024,2,48000,-16,experiment,p1sarr4.png,0,even,Win32,126,141363,138350,126,126,652362,653865,647362,142879,647362,126,767524,769041,764523,653869,764523,visual_patterns,0,0,0,yes,1366
undefined,undefined,undefined,undefined,white,no,Mozilla,Netscape,"5.0 (Windows NT 10.0; Win64; x64) AppleWebKit/537.36 (KHTML, like Gecko) Chrome/98.0.4758.102 Safari/537.36",xpyriment,legacy,legacy,0,uniform,0,0,0,0,24,24,24,0,0,74,74,74,74,74,0,74,0,19,19,19,19,19,0,19,25-01-22,25-01-22,21:00:58,Fri Feb 25 2022 21:00:58 GMT+0100 (közép-európai téli idő),The main experiment item,yes,0,0,C:/Users/rrics/Documents/!!ResearchBMECOGSCI/gnet,0,0,0,prototype2.png,no,mono,no,18,no,black,no,no,768,1140,3.5.6,legacy,xpyriment,osweb,1.3.13,0,space,space,space,space,29293,29526,21859,29293,2,legacy,824,1536,24,864,24,0,0,1536,1645819297128,1024,2,48000,-16,experiment,p10sarr1.png,0,even,Win32,126,141363,138350,126,126,652362,653865,647362,142879,647362,126,772055,773570,769051,653869,769051,visual_patterns,0,0,0,yes,1366
undefined,undefined,undefined,undefined,white,no,Mozilla,Netscape,"5.0 (Windows NT 10.0; Win64; x64) AppleWebKit/537.36 (KHTML, like Gecko) Chrome/98.0.4758.102 Safari/537.36",xpyriment,legacy,legacy,0,uniform,0,0,0,0,24,24,24,0,0,74,74,74,74,74,0,74,0,20,20,20,20,20,0,20,25-01-22,25-01-22,21:00:58,Fri Feb 25 2022 21:00:58 GMT+0100 (közép-európai téli idő),The main experiment item,yes,0,0,C:/Users/rrics/Documents/!!ResearchBMECOGSCI/gnet,0,0,0,prototype2.png,no,mono,no,18,no,black,no,no,768,1140,3.5.6,legacy,xpyriment,osweb,1.3.13,0,space,space,space,space,29293,29526,21859,29293,2,legacy,824,1536,24,864,24,0,0,1536,1645819297128,1024,2,48000,-16,experiment,p8sarr3.png,0,even,Win32,126,141363,138350,126,126,652362,653865,647362,142879,647362,126,776584,778099,773579,653869,773579,visual_patterns,0,0,0,yes,1366
undefined,undefined,undefined,undefined,white,no,Mozilla,Netscape,"5.0 (Windows NT 10.0; Win64; x64) AppleWebKit/537.36 (KHTML, like Gecko) Chrome/98.0.4758.102 Safari/537.36",xpyriment,legacy,legacy,0,uniform,0,0,0,0,24,24,24,0,0,74,74,74,74,74,0,74,0,21,21,21,21,21,0,21,25-01-22,25-01-22,21:00:58,Fri Feb 25 2022 21:00:58 GMT+0100 (közép-európai téli idő),The main experiment item,yes,0,0,C:/Users/rrics/Documents/!!ResearchBMECOGSCI/gnet,0,0,0,prototype2.png,no,mono,no,18,no,black,no,no,768,1140,3.5.6,legacy,xpyriment,osweb,1.3.13,0,space,space,space,space,29293,29526,21859,29293,2,legacy,824,1536,24,864,24,0,0,1536,1645819297128,1024,2,48000,-16,experiment,p9sarr4.png,0,even,Win32,126,141363,138350,126,126,652362,653865,647362,142879,647362,126,781109,782611,778108,653869,778108,visual_patterns,0,0,0,yes,1366
undefined,undefined,undefined,undefined,white,no,Mozilla,Netscape,"5.0 (Windows NT 10.0; Win64; x64) AppleWebKit/537.36 (KHTML, like Gecko) Chrome/98.0.4758.102 Safari/537.36",xpyriment,legacy,legacy,0,uniform,0,0,0,0,24,24,24,0,0,74,74,74,74,74,0,74,0,22,22,22,22,22,0,22,25-01-22,25-01-22,21:00:58,Fri Feb 25 2022 21:00:58 GMT+0100 (közép-európai téli idő),The main experiment item,yes,0,0,C:/Users/rrics/Documents/!!ResearchBMECOGSCI/gnet,0,0,0,prototype2.png,no,mono,no,18,no,black,no,no,768,1140,3.5.6,legacy,xpyriment,osweb,1.3.13,0,space,space,space,space,29293,29526,21859,29293,2,legacy,824,1536,24,864,24,0,0,1536,1645819297128,1024,2,48000,-16,experiment,p5sarrcol2.png,0,even,Win32,126,141363,138350,126,126,652362,653865,647362,142879,647362,126,785621,787124,782620,653869,782620,visual_patterns,0,0,0,yes,1366
undefined,undefined,undefined,undefined,white,no,Mozilla,Netscape,"5.0 (Windows NT 10.0; Win64; x64) AppleWebKit/537.36 (KHTML, like Gecko) Chrome/98.0.4758.102 Safari/537.36",xpyriment,legacy,legacy,0,uniform,0,0,0,0,24,24,24,0,0,74,74,74,74,74,0,74,0,23,23,23,23,23,0,23,25-01-22,25-01-22,21:00:58,Fri Feb 25 2022 21:00:58 GMT+0100 (közép-európai téli idő),The main experiment item,yes,0,0,C:/Users/rrics/Documents/!!ResearchBMECOGSCI/gnet,0,0,0,prototype2.png,no,mono,no,18,no,black,no,no,768,1140,3.5.6,legacy,xpyriment,osweb,1.3.13,0,space,space,space,space,29293,29526,21859,29293,2,legacy,824,1536,24,864,24,0,0,1536,1645819297128,1024,2,48000,-16,experiment,p7sarr4.png,0,even,Win32,126,141363,138350,126,126,652362,653865,647362,142879,647362,126,790133,791636,787132,653869,787132,visual_patterns,0,0,0,yes,1366
undefined,undefined,undefined,undefined,white,no,Mozilla,Netscape,"5.0 (Windows NT 10.0; Win64; x64) AppleWebKit/537.36 (KHTML, like Gecko) Chrome/98.0.4758.102 Safari/537.36",xpyriment,legacy,legacy,0,uniform,0,0,0,0,24,24,24,0,0,74,74,74,74,74,0,74,0,24,24,24,24,24,0,24,25-01-22,25-01-22,21:00:58,Fri Feb 25 2022 21:00:58 GMT+0100 (közép-európai téli idő),The main experiment item,yes,0,0,C:/Users/rrics/Documents/!!ResearchBMECOGSCI/gnet,0,0,0,prototype2.png,no,mono,no,18,no,black,no,no,768,1140,3.5.6,legacy,xpyriment,osweb,1.3.13,0,space,space,space,space,29293,29526,21859,29293,2,legacy,824,1536,24,864,24,0,0,1536,1645819297128,1024,2,48000,-16,experiment,p3sarrsha3.png,0,even,Win32,126,141363,138350,126,126,652362,653865,647362,142879,647362,126,794649,796165,791649,653869,791649,visual_patterns,0,0,0,yes,1366
undefined,undefined,undefined,undefined,white,no,Mozilla,Netscape,"5.0 (Windows NT 10.0; Win64; x64) AppleWebKit/537.36 (KHTML, like Gecko) Chrome/98.0.4758.102 Safari/537.36",xpyriment,legacy,legacy,0,uniform,0,0,0,0,24,24,24,0,0,74,74,74,74,74,0,74,0,25,25,25,25,25,0,25,25-01-22,25-01-22,21:00:58,Fri Feb 25 2022 21:00:58 GMT+0100 (közép-európai téli idő),The main experiment item,yes,0,0,C:/Users/rrics/Documents/!!ResearchBMECOGSCI/gnet,0,0,0,prototype2.png,no,mono,no,18,no,black,no,no,768,1140,3.5.6,legacy,xpyriment,osweb,1.3.13,0,space,space,space,space,29293,29526,21859,29293,2,legacy,824,1536,24,864,24,0,0,1536,1645819297128,1024,2,48000,-16,experiment,p8sarr4.png,0,even,Win32,126,141363,138350,126,126,652362,653865,647362,142879,647362,126,799179,800694,796178,653869,796178,visual_patterns,0,0,0,yes,1366
undefined,undefined,undefined,undefined,white,no,Mozilla,Netscape,"5.0 (Windows NT 10.0; Win64; x64) AppleWebKit/537.36 (KHTML, like Gecko) Chrome/98.0.4758.102 Safari/537.36",xpyriment,legacy,legacy,0,uniform,0,0,0,0,24,24,24,0,0,74,74,74,74,74,0,74,0,26,26,26,26,26,0,26,25-01-22,25-01-22,21:00:58,Fri Feb 25 2022 21:00:58 GMT+0100 (közép-európai téli idő),The main experiment item,yes,0,0,C:/Users/rrics/Documents/!!ResearchBMECOGSCI/gnet,0,0,0,prototype2.png,no,mono,no,18,no,black,no,no,768,1140,3.5.6,legacy,xpyriment,osweb,1.3.13,0,space,space,space,space,29293,29526,21859,29293,2,legacy,824,1536,24,864,24,0,0,1536,1645819297128,1024,2,48000,-16,experiment,p2sarrshacol4.png,0,even,Win32,126,141363,138350,126,126,652362,653865,647362,142879,647362,126,803703,805207,800702,653869,800702,visual_patterns,0,0,0,yes,1366
undefined,undefined,undefined,undefined,white,no,Mozilla,Netscape,"5.0 (Windows NT 10.0; Win64; x64) AppleWebKit/537.36 (KHTML, like Gecko) Chrome/98.0.4758.102 Safari/537.36",xpyriment,legacy,legacy,0,uniform,0,0,0,0,24,24,24,0,0,74,74,74,74,74,0,74,0,27,27,27,27,27,0,27,25-01-22,25-01-22,21:00:58,Fri Feb 25 2022 21:00:58 GMT+0100 (közép-európai téli idő),The main experiment item,yes,0,0,C:/Users/rrics/Documents/!!ResearchBMECOGSCI/gnet,0,0,0,prototype2.png,no,mono,no,18,no,black,no,no,768,1140,3.5.6,legacy,xpyriment,osweb,1.3.13,0,space,space,space,space,29293,29526,21859,29293,2,legacy,824,1536,24,864,24,0,0,1536,1645819297128,1024,2,48000,-16,experiment,p4sarrshacol1.png,0,even,Win32,126,141363,138350,126,126,652362,653865,647362,142879,647362,126,808221,809736,805217,653869,805217,visual_patterns,0,0,0,yes,1366
undefined,undefined,undefined,undefined,white,no,Mozilla,Netscape,"5.0 (Windows NT 10.0; Win64; x64) AppleWebKit/537.36 (KHTML, like Gecko) Chrome/98.0.4758.102 Safari/537.36",xpyriment,legacy,legacy,0,uniform,0,0,0,0,24,24,24,0,0,74,74,74,74,74,0,74,0,28,28,28,28,28,0,28,25-01-22,25-01-22,21:00:58,Fri Feb 25 2022 21:00:58 GMT+0100 (közép-európai téli idő),The main experiment item,yes,0,0,C:/Users/rrics/Documents/!!ResearchBMECOGSCI/gnet,0,0,0,prototype2.png,no,mono,no,18,no,black,no,no,768,1140,3.5.6,legacy,xpyriment,osweb,1.3.13,0,space,space,space,space,29293,29526,21859,29293,2,legacy,824,1536,24,864,24,0,0,1536,1645819297128,1024,2,48000,-16,experiment,p1sarrshacol3.png,0,even,Win32,126,141363,138350,126,126,652362,653865,647362,142879,647362,126,812764,814265,809759,653869,809759,visual_patterns,0,0,0,yes,1366
undefined,undefined,undefined,undefined,white,no,Mozilla,Netscape,"5.0 (Windows NT 10.0; Win64; x64) AppleWebKit/537.36 (KHTML, like Gecko) Chrome/98.0.4758.102 Safari/537.36",xpyriment,legacy,legacy,0,uniform,0,0,0,0,24,24,24,0,0,74,74,74,74,74,0,74,0,29,29,29,29,29,0,29,25-01-22,25-01-22,21:00:58,Fri Feb 25 2022 21:00:58 GMT+0100 (közép-európai téli idő),The main experiment item,yes,0,0,C:/Users/rrics/Documents/!!ResearchBMECOGSCI/gnet,0,0,0,prototype2.png,no,mono,no,18,no,black,no,no,768,1140,3.5.6,legacy,xpyriment,osweb,1.3.13,0,space,space,space,space,29293,29526,21859,29293,2,legacy,824,1536,24,864,24,0,0,1536,1645819297128,1024,2,48000,-16,experiment,p2sarrsha1.png,0,even,Win32,126,141363,138350,126,126,652362,653865,647362,142879,647362,126,817280,818794,814275,653869,814275,visual_patterns,0,0,0,yes,1366
undefined,undefined,undefined,undefined,white,no,Mozilla,Netscape,"5.0 (Windows NT 10.0; Win64; x64) AppleWebKit/537.36 (KHTML, like Gecko) Chrome/98.0.4758.102 Safari/537.36",xpyriment,legacy,legacy,0,uniform,0,0,0,0,24,24,24,0,0,74,74,74,74,74,0,74,0,30,30,30,30,30,0,30,25-01-22,25-01-22,21:00:58,Fri Feb 25 2022 21:00:58 GMT+0100 (közép-európai téli idő),The main experiment item,yes,0,0,C:/Users/rrics/Documents/!!ResearchBMECOGSCI/gnet,0,0,0,prototype2.png,no,mono,no,18,no,black,no,no,768,1140,3.5.6,legacy,xpyriment,osweb,1.3.13,0,space,space,space,space,29293,29526,21859,29293,2,legacy,824,1536,24,864,24,0,0,1536,1645819297128,1024,2,48000,-16,experiment,p3sarr2.png,0,even,Win32,126,141363,138350,126,126,652362,653865,647362,142879,647362,126,821809,823324,818804,653869,818804,visual_patterns,0,0,0,yes,1366
undefined,undefined,undefined,undefined,white,no,Mozilla,Netscape,"5.0 (Windows NT 10.0; Win64; x64) AppleWebKit/537.36 (KHTML, like Gecko) Chrome/98.0.4758.102 Safari/537.36",xpyriment,legacy,legacy,0,uniform,0,0,0,0,24,24,24,0,0,74,74,74,74,74,0,74,0,31,31,31,31,31,0,31,25-01-22,25-01-22,21:00:58,Fri Feb 25 2022 21:00:58 GMT+0100 (közép-európai téli idő),The main experiment item,yes,0,0,C:/Users/rrics/Documents/!!ResearchBMECOGSCI/gnet,0,0,0,prototype2.png,no,mono,no,18,no,black,no,no,768,1140,3.5.6,legacy,xpyriment,osweb,1.3.13,0,space,space,space,space,29293,29526,21859,29293,2,legacy,824,1536,24,864,24,0,0,1536,1645819297128,1024,2,48000,-16,experiment,p3sarrshacol3.png,0,even,Win32,126,141363,138350,126,126,652362,653865,647362,142879,647362,126,826335,827836,823333,653869,823333,visual_patterns,0,0,0,yes,1366
undefined,undefined,undefined,undefined,white,no,Mozilla,Netscape,"5.0 (Windows NT 10.0; Win64; x64) AppleWebKit/537.36 (KHTML, like Gecko) Chrome/98.0.4758.102 Safari/537.36",xpyriment,legacy,legacy,0,uniform,0,0,0,0,24,24,24,0,0,74,74,74,74,74,0,74,0,32,32,32,32,32,0,32,25-01-22,25-01-22,21:00:58,Fri Feb 25 2022 21:00:58 GMT+0100 (közép-európai téli idő),The main experiment item,yes,0,0,C:/Users/rrics/Documents/!!ResearchBMECOGSCI/gnet,0,0,0,prototype2.png,no,mono,no,18,no,black,no,no,768,1140,3.5.6,legacy,xpyriment,osweb,1.3.13,0,space,space,space,space,29293,29526,21859,29293,2,legacy,824,1536,24,864,24,0,0,1536,1645819297128,1024,2,48000,-16,experiment,p2sarrcol4.png,0,even,Win32,126,141363,138350,126,126,652362,653865,647362,142879,647362,126,830848,832365,827845,653869,827845,visual_patterns,0,0,0,yes,1366
undefined,undefined,undefined,undefined,white,no,Mozilla,Netscape,"5.0 (Windows NT 10.0; Win64; x64) AppleWebKit/537.36 (KHTML, like Gecko) Chrome/98.0.4758.102 Safari/537.36",xpyriment,legacy,legacy,0,uniform,0,0,0,0,24,24,24,0,0,74,74,74,74,74,0,74,0,33,33,33,33,33,0,33,25-01-22,25-01-22,21:00:58,Fri Feb 25 2022 21:00:58 GMT+0100 (közép-európai téli idő),The main experiment item,yes,0,0,C:/Users/rrics/Documents/!!ResearchBMECOGSCI/gnet,0,0,0,prototype2.png,no,mono,no,18,no,black,no,no,768,1140,3.5.6,legacy,xpyriment,osweb,1.3.13,0,space,space,space,space,29293,29526,21859,29293,2,legacy,824,1536,24,864,24,0,0,1536,1645819297128,1024,2,48000,-16,experiment,p5sarrcol1.png,0,even,Win32,126,141363,138350,126,126,652362,653865,647362,142879,647362,126,835376,836877,832373,653869,832373,visual_patterns,0,0,0,yes,1366
undefined,undefined,undefined,undefined,white,no,Mozilla,Netscape,"5.0 (Windows NT 10.0; Win64; x64) AppleWebKit/537.36 (KHTML, like Gecko) Chrome/98.0.4758.102 Safari/537.36",xpyriment,legacy,legacy,0,uniform,0,0,0,0,24,24,24,0,0,74,74,74,74,74,0,74,0,34,34,34,34,34,0,34,25-01-22,25-01-22,21:00:58,Fri Feb 25 2022 21:00:58 GMT+0100 (közép-európai téli idő),The main experiment item,yes,0,0,C:/Users/rrics/Documents/!!ResearchBMECOGSCI/gnet,0,0,0,prototype2.png,no,mono,no,18,no,black,no,no,768,1140,3.5.6,legacy,xpyriment,osweb,1.3.13,0,space,space,space,space,29293,29526,21859,29293,2,legacy,824,1536,24,864,24,0,0,1536,1645819297128,1024,2,48000,-16,experiment,p8sarr2.png,0,even,Win32,126,141363,138350,126,126,652362,653865,647362,142879,647362,126,839891,841407,836887,653869,836887,visual_patterns,0,0,0,yes,1366
undefined,undefined,undefined,undefined,white,no,Mozilla,Netscape,"5.0 (Windows NT 10.0; Win64; x64) AppleWebKit/537.36 (KHTML, like Gecko) Chrome/98.0.4758.102 Safari/537.36",xpyriment,legacy,legacy,0,uniform,0,0,0,0,24,24,24,0,0,74,74,74,74,74,0,74,0,35,35,35,35,35,0,35,25-01-22,25-01-22,21:00:58,Fri Feb 25 2022 21:00:58 GMT+0100 (közép-európai téli idő),The main experiment item,yes,0,0,C:/Users/rrics/Documents/!!ResearchBMECOGSCI/gnet,0,0,0,prototype2.png,no,mono,no,18,no,black,no,no,768,1140,3.5.6,legacy,xpyriment,osweb,1.3.13,0,space,space,space,space,29293,29526,21859,29293,2,legacy,824,1536,24,864,24,0,0,1536,1645819297128,1024,2,48000,-16,experiment,p5sarr3.png,0,even,Win32,126,141363,138350,126,126,652362,653865,647362,142879,647362,126,844420,845936,841418,653869,841418,visual_patterns,0,0,0,yes,1366
undefined,undefined,undefined,undefined,white,no,Mozilla,Netscape,"5.0 (Windows NT 10.0; Win64; x64) AppleWebKit/537.36 (KHTML, like Gecko) Chrome/98.0.4758.102 Safari/537.36",xpyriment,legacy,legacy,0,uniform,0,0,0,0,24,24,24,0,0,74,74,74,74,74,0,74,0,36,36,36,36,36,0,36,25-01-22,25-01-22,21:00:58,Fri Feb 25 2022 21:00:58 GMT+0100 (közép-európai téli idő),The main experiment item,yes,0,0,C:/Users/rrics/Documents/!!ResearchBMECOGSCI/gnet,0,0,0,prototype2.png,no,mono,no,18,no,black,no,no,768,1140,3.5.6,legacy,xpyriment,osweb,1.3.13,0,space,space,space,space,29293,29526,21859,29293,2,legacy,824,1536,24,864,24,0,0,1536,1645819297128,1024,2,48000,-16,experiment,p7sarr1.png,0,even,Win32,126,141363,138350,126,126,652362,653865,647362,142879,647362,126,848950,850465,845945,653869,845945,visual_patterns,0,0,0,yes,1366
undefined,undefined,undefined,undefined,white,no,Mozilla,Netscape,"5.0 (Windows NT 10.0; Win64; x64) AppleWebKit/537.36 (KHTML, like Gecko) Chrome/98.0.4758.102 Safari/537.36",xpyriment,legacy,legacy,0,uniform,0,0,0,0,24,24,24,0,0,74,74,74,74,74,0,74,0,37,37,37,37,37,0,37,25-01-22,25-01-22,21:00:58,Fri Feb 25 2022 21:00:58 GMT+0100 (közép-európai téli idő),The main experiment item,yes,0,0,C:/Users/rrics/Documents/!!ResearchBMECOGSCI/gnet,0,0,0,prototype2.png,no,mono,no,18,no,black,no,no,768,1140,3.5.6,legacy,xpyriment,osweb,1.3.13,0,space,space,space,space,29293,29526,21859,29293,2,legacy,824,1536,24,864,24,0,0,1536,1645819297128,1024,2,48000,-16,experiment,p1sarrcol4.png,0,even,Win32,126,141363,138350,126,126,652362,653865,647362,142879,647362,126,853475,854977,850473,653869,850473,visual_patterns,0,0,0,yes,1366
undefined,undefined,undefined,undefined,white,no,Mozilla,Netscape,"5.0 (Windows NT 10.0; Win64; x64) AppleWebKit/537.36 (KHTML, like Gecko) Chrome/98.0.4758.102 Safari/537.36",xpyriment,legacy,legacy,0,uniform,0,0,0,0,24,24,24,0,0,74,74,74,74,74,0,74,0,38,38,38,38,38,0,38,25-01-22,25-01-22,21:00:58,Fri Feb 25 2022 21:00:58 GMT+0100 (közép-európai téli idő),The main experiment item,yes,0,0,C:/Users/rrics/Documents/!!ResearchBMECOGSCI/gnet,0,0,0,prototype2.png,no,mono,no,18,no,black,no,no,768,1140,3.5.6,legacy,xpyriment,osweb,1.3.13,0,space,space,space,space,29293,29526,21859,29293,2,legacy,824,1536,24,864,24,0,0,1536,1645819297128,1024,2,48000,-16,experiment,p3sarrsha4.png,0,even,Win32,126,141363,138350,126,126,652362,653865,647362,142879,647362,126,857987,859490,854986,653869,854986,visual_patterns,0,0,0,yes,1366
undefined,undefined,undefined,undefined,white,no,Mozilla,Netscape,"5.0 (Windows NT 10.0; Win64; x64) AppleWebKit/537.36 (KHTML, like Gecko) Chrome/98.0.4758.102 Safari/537.36",xpyriment,legacy,legacy,0,uniform,0,0,0,0,24,24,24,0,0,74,74,74,74,74,0,74,0,39,39,39,39,39,0,39,25-01-22,25-01-22,21:00:58,Fri Feb 25 2022 21:00:58 GMT+0100 (közép-európai téli idő),The main experiment item,yes,0,0,C:/Users/rrics/Documents/!!ResearchBMECOGSCI/gnet,0,0,0,prototype2.png,no,mono,no,18,no,black,no,no,768,1140,3.5.6,legacy,xpyriment,osweb,1.3.13,0,space,space,space,space,29293,29526,21859,29293,2,legacy,824,1536,24,864,24,0,0,1536,1645819297128,1024,2,48000,-16,experiment,p3sarr1.png,0,even,Win32,126,141363,138350,126,126,652362,653865,647362,142879,647362,126,862504,864019,859500,653869,859500,visual_patterns,0,0,0,yes,1366
undefined,undefined,undefined,undefined,white,no,Mozilla,Netscape,"5.0 (Windows NT 10.0; Win64; x64) AppleWebKit/537.36 (KHTML, like Gecko) Chrome/98.0.4758.102 Safari/537.36",xpyriment,legacy,legacy,0,uniform,0,0,0,0,24,24,24,0,0,74,74,74,74,74,0,74,0,40,40,40,40,40,0,40,25-01-22,25-01-22,21:00:58,Fri Feb 25 2022 21:00:58 GMT+0100 (közép-európai téli idő),The main experiment item,yes,0,0,C:/Users/rrics/Documents/!!ResearchBMECOGSCI/gnet,0,0,0,prototype2.png,no,mono,no,18,no,black,no,no,768,1140,3.5.6,legacy,xpyriment,osweb,1.3.13,0,space,space,space,space,29293,29526,21859,29293,2,legacy,824,1536,24,864,24,0,0,1536,1645819297128,1024,2,48000,-16,experiment,p2sarrsha3.png,0,even,Win32,126,141363,138350,126,126,652362,653865,647362,142879,647362,126,867029,868531,864026,653869,864026,visual_patterns,0,0,0,yes,1366
undefined,undefined,undefined,undefined,white,no,Mozilla,Netscape,"5.0 (Windows NT 10.0; Win64; x64) AppleWebKit/537.36 (KHTML, like Gecko) Chrome/98.0.4758.102 Safari/537.36",xpyriment,legacy,legacy,0,uniform,0,0,0,0,24,24,24,0,0,74,74,74,74,74,0,74,0,41,41,41,41,41,0,41,25-01-22,25-01-22,21:00:58,Fri Feb 25 2022 21:00:58 GMT+0100 (közép-európai téli idő),The main experiment item,yes,0,0,C:/Users/rrics/Documents/!!ResearchBMECOGSCI/gnet,0,0,0,prototype2.png,no,mono,no,18,no,black,no,no,768,1140,3.5.6,legacy,xpyriment,osweb,1.3.13,0,space,space,space,space,29293,29526,21859,29293,2,legacy,824,1536,24,864,24,0,0,1536,1645819297128,1024,2,48000,-16,experiment,p9sarr3.png,0,even,Win32,126,141363,138350,126,126,652362,653865,647362,142879,647362,126,871545,873060,868543,653869,868543,visual_patterns,0,0,0,yes,1366
undefined,undefined,undefined,undefined,white,no,Mozilla,Netscape,"5.0 (Windows NT 10.0; Win64; x64) AppleWebKit/537.36 (KHTML, like Gecko) Chrome/98.0.4758.102 Safari/537.36",xpyriment,legacy,legacy,0,uniform,0,0,0,0,24,24,24,0,0,74,74,74,74,74,0,74,0,42,42,42,42,42,0,42,25-01-22,25-01-22,21:00:58,Fri Feb 25 2022 21:00:58 GMT+0100 (közép-európai téli idő),The main experiment item,yes,0,0,C:/Users/rrics/Documents/!!ResearchBMECOGSCI/gnet,0,0,0,prototype2.png,no,mono,no,18,no,black,no,no,768,1140,3.5.6,legacy,xpyriment,osweb,1.3.13,0,space,space,space,space,29293,29526,21859,29293,2,legacy,824,1536,24,864,24,0,0,1536,1645819297128,1024,2,48000,-16,experiment,p10sarr4.png,0,even,Win32,126,141363,138350,126,126,652362,653865,647362,142879,647362,126,876075,877589,873070,653869,873070,visual_patterns,0,0,0,yes,1366
undefined,undefined,undefined,undefined,white,no,Mozilla,Netscape,"5.0 (Windows NT 10.0; Win64; x64) AppleWebKit/537.36 (KHTML, like Gecko) Chrome/98.0.4758.102 Safari/537.36",xpyriment,legacy,legacy,0,uniform,0,0,0,0,24,24,24,0,0,74,74,74,74,74,0,74,0,43,43,43,43,43,0,43,25-01-22,25-01-22,21:00:58,Fri Feb 25 2022 21:00:58 GMT+0100 (közép-európai téli idő),The main experiment item,yes,0,0,C:/Users/rrics/Documents/!!ResearchBMECOGSCI/gnet,0,0,0,prototype2.png,no,mono,no,18,no,black,no,no,768,1140,3.5.6,legacy,xpyriment,osweb,1.3.13,0,space,space,space,space,29293,29526,21859,29293,2,legacy,824,1536,24,864,24,0,0,1536,1645819297128,1024,2,48000,-16,experiment,p4sarrcol1.png,0,even,Win32,126,141363,138350,126,126,652362,653865,647362,142879,647362,126,880603,882118,877599,653869,877599,visual_patterns,0,0,0,yes,1366
undefined,undefined,undefined,undefined,white,no,Mozilla,Netscape,"5.0 (Windows NT 10.0; Win64; x64) AppleWebKit/537.36 (KHTML, like Gecko) Chrome/98.0.4758.102 Safari/537.36",xpyriment,legacy,legacy,0,uniform,0,0,0,0,24,24,24,0,0,74,74,74,74,74,0,74,0,44,44,44,44,44,0,44,25-01-22,25-01-22,21:00:58,Fri Feb 25 2022 21:00:58 GMT+0100 (közép-európai téli idő),The main experiment item,yes,0,0,C:/Users/rrics/Documents/!!ResearchBMECOGSCI/gnet,0,0,0,prototype2.png,no,mono,no,18,no,black,no,no,768,1140,3.5.6,legacy,xpyriment,osweb,1.3.13,0,space,space,space,space,29293,29526,21859,29293,2,legacy,824,1536,24,864,24,0,0,1536,1645819297128,1024,2,48000,-16,experiment,p5sarrshacol4.png,0,even,Win32,126,141363,138350,126,126,652362,653865,647362,142879,647362,126,885133,886647,882130,653869,882130,visual_patterns,0,0,0,yes,1366
undefined,undefined,undefined,undefined,white,no,Mozilla,Netscape,"5.0 (Windows NT 10.0; Win64; x64) AppleWebKit/537.36 (KHTML, like Gecko) Chrome/98.0.4758.102 Safari/537.36",xpyriment,legacy,legacy,0,uniform,0,0,0,0,24,24,24,0,0,74,74,74,74,74,0,74,0,45,45,45,45,45,0,45,25-01-22,25-01-22,21:00:58,Fri Feb 25 2022 21:00:58 GMT+0100 (közép-európai téli idő),The main experiment item,yes,0,0,C:/Users/rrics/Documents/!!ResearchBMECOGSCI/gnet,0,0,0,prototype2.png,no,mono,no,18,no,black,no,no,768,1140,3.5.6,legacy,xpyriment,osweb,1.3.13,0,space,space,space,space,29293,29526,21859,29293,2,legacy,824,1536,24,864,24,0,0,1536,1645819297128,1024,2,48000,-16,experiment,p3sarr3.png,0,even,Win32,126,141363,138350,126,126,652362,653865,647362,142879,647362,126,889656,891160,886658,653869,886658,visual_patterns,0,0,0,yes,1366
undefined,undefined,undefined,undefined,white,no,Mozilla,Netscape,"5.0 (Windows NT 10.0; Win64; x64) AppleWebKit/537.36 (KHTML, like Gecko) Chrome/98.0.4758.102 Safari/537.36",xpyriment,legacy,legacy,0,uniform,0,0,0,0,24,24,24,0,0,74,74,74,74,74,0,74,0,46,46,46,46,46,0,46,25-01-22,25-01-22,21:00:58,Fri Feb 25 2022 21:00:58 GMT+0100 (közép-európai téli idő),The main experiment item,yes,0,0,C:/Users/rrics/Documents/!!ResearchBMECOGSCI/gnet,0,0,0,prototype2.png,no,mono,no,18,no,black,no,no,768,1140,3.5.6,legacy,xpyriment,osweb,1.3.13,0,space,space,space,space,29293,29526,21859,29293,2,legacy,824,1536,24,864,24,0,0,1536,1645819297128,1024,2,48000,-16,experiment,p2sarr3.png,0,even,Win32,126,141363,138350,126,126,652362,653865,647362,142879,647362,126,894174,895689,891169,653869,891169,visual_patterns,0,0,0,yes,1366
undefined,undefined,undefined,undefined,white,no,Mozilla,Netscape,"5.0 (Windows NT 10.0; Win64; x64) AppleWebKit/537.36 (KHTML, like Gecko) Chrome/98.0.4758.102 Safari/537.36",xpyriment,legacy,legacy,0,uniform,0,0,0,0,24,24,24,0,0,74,74,74,74,74,0,74,0,47,47,47,47,47,0,47,25-01-22,25-01-22,21:00:58,Fri Feb 25 2022 21:00:58 GMT+0100 (közép-európai téli idő),The main experiment item,yes,0,0,C:/Users/rrics/Documents/!!ResearchBMECOGSCI/gnet,0,0,0,prototype2.png,no,mono,no,18,no,black,no,no,768,1140,3.5.6,legacy,xpyriment,osweb,1.3.13,0,space,space,space,space,29293,29526,21859,29293,2,legacy,824,1536,24,864,24,0,0,1536,1645819297128,1024,2,48000,-16,experiment,p4sarr2.png,0,even,Win32,126,141363,138350,126,126,652362,653865,647362,142879,647362,126,898703,900218,895696,653869,895696,visual_patterns,0,0,0,yes,1366
