acc,accuracy,average_response_time,avg_rt,background,bidi,browser_codename,browser_name,browser_version,canvas_backend,clock_backend,color_backend,compensation,coordinates,count_end,count_experiment,count_osweb,count_prestudy,count_prestudy_isi,count_prestudy_sequence,count_prestudy_stimpres,count_start,count_study,count_study_coroutines,count_study_isi,count_study_logger,count_study_response,count_study_sequence,count_study_start,count_study_stimpres,count_test,count_test_coroutines,count_test_isi,count_test_logger,count_test_response,count_test_sequence,count_test_start,count_test_stimpres,date_startdate,date_startdateUTC,date_starttime,datetime,description,disable_garbage_collection,experiment_debug,experiment_parameters,experiment_path,experiment_pilot,experiment_taskname,experiment_taskversion,fampict,font_bold,font_family,font_italic,font_size,font_underline,foreground,form_clicks,fullscreen,height,jatosStudyResultId,jatosVersion,keyboard_backend,mouse_backend,opensesame_codename,opensesame_version,repeat_cycle,response,response_start,response_study_start,response_test_start,response_time,response_time_start,response_time_study_start,response_time_test_start,round_decimals,sampler_backend,screen_availableHeight,screen_availableWidth,screen_colorDepth,screen_height,screen_pixelDepth,screen_screenX,screen_screenY,screen_width,sessionid,sound_buf_size,sound_channels,sound_freq,sound_sample_size,start,stim,subject_nr,subject_parity,system_os,time_prestudy,time_prestudy_isi,time_prestudy_stimpres,time_start,time_study,time_study_isi,time_study_logger,time_study_response,time_study_start,time_study_stimpres,time_test,time_test_isi,time_test_logger,time_test_response,time_test_start,time_test_stimpres,title,total_correct,total_response_time,total_responses,uniform_coordinates,width
undefined,undefined,undefined,undefined,white,no,Mozilla,Netscape,"5.0 (Windows NT 10.0; Win64; x64) AppleWebKit/537.36 (KHTML, like Gecko) Chrome/98.0.4758.102 Safari/537.36",xpyriment,legacy,legacy,0,uniform,0,0,0,0,24,24,24,0,0,0,0,0,0,0,0,0,0,,,,,,0,,25-01-22,25-01-22,21:03:50,Fri Feb 25 2022 21:03:50 GMT+0100 (közép-európai téli idő),The main experiment item,yes,0,0,C:/Users/rrics/Documents/!!ResearchBMECOGSCI/gnet,0,0,0,prototype5.png,no,mono,no,18,no,black,no,no,768,1142,3.5.6,legacy,xpyriment,osweb,1.3.13,0,space,space,space,,47650,109424,47650,,2,legacy,738,1366,24,768,24,0,0,1366,1645819478174,1024,2,48000,-16,experiment,p6sarr1.png,0,even,Win32,306,221476,218465,305,306,275674,277187,270678,222993,270675,306,,,,,,visual_patterns,0,0,0,yes,1366
undefined,undefined,undefined,undefined,white,no,Mozilla,Netscape,"5.0 (Windows NT 10.0; Win64; x64) AppleWebKit/537.36 (KHTML, like Gecko) Chrome/98.0.4758.102 Safari/537.36",xpyriment,legacy,legacy,0,uniform,0,0,0,0,24,24,24,0,0,1,1,1,1,1,0,1,0,,,,,,0,,25-01-22,25-01-22,21:03:50,Fri Feb 25 2022 21:03:50 GMT+0100 (közép-európai téli idő),The main experiment item,yes,0,0,C:/Users/rrics/Documents/!!ResearchBMECOGSCI/gnet,0,0,0,prototype5.png,no,mono,no,18,no,black,no,no,768,1142,3.5.6,legacy,xpyriment,osweb,1.3.13,0,space,space,space,,47650,109424,47650,,2,legacy,738,1366,24,768,24,0,0,1366,1645819478174,1024,2,48000,-16,experiment,prototype3.png,0,even,Win32,306,221476,218465,305,306,282223,283730,277226,222993,277225,306,,,,,,visual_patterns,0,0,0,yes,1366
undefined,undefined,undefined,undefined,white,no,Mozilla,Netscape,"5.0 (Windows NT 10.0; Win64; x64) AppleWebKit/537.36 (KHTML, like Gecko) Chrome/98.0.4758.102 Safari/537.36",xpyriment,legacy,legacy,0,uniform,0,0,0,0,24,24,24,0,0,2,2,2,2,2,0,2,0,,,,,,0,,25-01-22,25-01-22,21:03:50,Fri Feb 25 2022 21:03:50 GMT+0100 (közép-európai téli idő),The main experiment item,yes,0,0,C:/Users/rrics/Documents/!!ResearchBMECOGSCI/gnet,0,0,0,prototype5.png,no,mono,no,18,no,black,no,no,768,1142,3.5.6,legacy,xpyriment,osweb,1.3.13,0,space,space,space,,47650,109424,47650,,2,legacy,738,1366,24,768,24,0,0,1366,1645819478174,1024,2,48000,-16,experiment,p3sarr1.png,0,even,Win32,306,221476,218465,305,306,288747,290257,283750,222993,283750,306,,,,,,visual_patterns,0,0,0,yes,1366
undefined,undefined,undefined,undefined,white,no,Mozilla,Netscape,"5.0 (Windows NT 10.0; Win64; x64) AppleWebKit/537.36 (KHTML, like Gecko) Chrome/98.0.4758.102 Safari/537.36",xpyriment,legacy,legacy,0,uniform,0,0,0,0,24,24,24,0,0,3,3,3,3,3,0,3,0,,,,,,0,,25-01-22,25-01-22,21:03:50,Fri Feb 25 2022 21:03:50 GMT+0100 (közép-európai téli idő),The main experiment item,yes,0,0,C:/Users/rrics/Documents/!!ResearchBMECOGSCI/gnet,0,0,0,prototype5.png,no,mono,no,18,no,black,no,no,768,1142,3.5.6,legacy,xpyriment,osweb,1.3.13,0,space,space,space,,47650,109424,47650,,2,legacy,738,1366,24,768,24,0,0,1366,1645819478174,1024,2,48000,-16,experiment,p9sarr2.png,0,even,Win32,306,221476,218465,305,306,295276,296784,290275,222993,290275,306,,,,,,visual_patterns,0,0,0,yes,1366
undefined,undefined,undefined,undefined,white,no,Mozilla,Netscape,"5.0 (Windows NT 10.0; Win64; x64) AppleWebKit/537.36 (KHTML, like Gecko) Chrome/98.0.4758.102 Safari/537.36",xpyriment,legacy,legacy,0,uniform,0,0,0,0,24,24,24,0,0,4,4,4,4,4,0,4,0,,,,,,0,,25-01-22,25-01-22,21:03:50,Fri Feb 25 2022 21:03:50 GMT+0100 (közép-európai téli idő),The main experiment item,yes,0,0,C:/Users/rrics/Documents/!!ResearchBMECOGSCI/gnet,0,0,0,prototype5.png,no,mono,no,18,no,black,no,no,768,1142,3.5.6,legacy,xpyriment,osweb,1.3.13,0,space,space,space,,47650,109424,47650,,2,legacy,738,1366,24,768,24,0,0,1366,1645819478174,1024,2,48000,-16,experiment,p4sarr2.png,0,even,Win32,306,221476,218465,305,306,301799,303311,296813,222993,296813,306,,,,,,visual_patterns,0,0,0,yes,1366
undefined,undefined,undefined,undefined,white,no,Mozilla,Netscape,"5.0 (Windows NT 10.0; Win64; x64) AppleWebKit/537.36 (KHTML, like Gecko) Chrome/98.0.4758.102 Safari/537.36",xpyriment,legacy,legacy,0,uniform,0,0,0,0,24,24,24,0,0,5,5,5,5,5,0,5,0,,,,,,0,,25-01-22,25-01-22,21:03:50,Fri Feb 25 2022 21:03:50 GMT+0100 (közép-európai téli idő),The main experiment item,yes,0,0,C:/Users/rrics/Documents/!!ResearchBMECOGSCI/gnet,0,0,0,prototype5.png,no,mono,no,18,no,black,no,no,768,1142,3.5.6,legacy,xpyriment,osweb,1.3.13,0,space,space,space,,47650,109424,47650,,2,legacy,738,1366,24,768,24,0,0,1366,1645819478174,1024,2,48000,-16,experiment,p4sarrshacol2.png,0,even,Win32,306,221476,218465,305,306,308332,309837,303332,222993,303332,306,,,,,,visual_patterns,0,0,0,yes,1366
undefined,undefined,undefined,undefined,white,no,Mozilla,Netscape,"5.0 (Windows NT 10.0; Win64; x64) AppleWebKit/537.36 (KHTML, like Gecko) Chrome/98.0.4758.102 Safari/537.36",xpyriment,legacy,legacy,0,uniform,0,0,0,0,24,24,24,0,0,6,6,6,6,6,0,6,0,,,,,,0,,25-01-22,25-01-22,21:03:50,Fri Feb 25 2022 21:03:50 GMT+0100 (közép-európai téli idő),The main experiment item,yes,0,0,C:/Users/rrics/Documents/!!ResearchBMECOGSCI/gnet,0,0,0,prototype5.png,no,mono,no,18,no,black,no,no,768,1142,3.5.6,legacy,xpyriment,osweb,1.3.13,0,space,space,space,,47650,109424,47650,,2,legacy,738,1366,24,768,24,0,0,1366,1645819478174,1024,2,48000,-16,experiment,p5sarrsha2.png,0,even,Win32,306,221476,218465,305,306,314854,316364,309859,222993,309859,306,,,,,,visual_patterns,0,0,0,yes,1366
undefined,undefined,undefined,undefined,white,no,Mozilla,Netscape,"5.0 (Windows NT 10.0; Win64; x64) AppleWebKit/537.36 (KHTML, like Gecko) Chrome/98.0.4758.102 Safari/537.36",xpyriment,legacy,legacy,0,uniform,0,0,0,0,24,24,24,0,0,7,7,7,7,7,0,7,0,,,,,,0,,25-01-22,25-01-22,21:03:50,Fri Feb 25 2022 21:03:50 GMT+0100 (közép-európai téli idő),The main experiment item,yes,0,0,C:/Users/rrics/Documents/!!ResearchBMECOGSCI/gnet,0,0,0,prototype5.png,no,mono,no,18,no,black,no,no,768,1142,3.5.6,legacy,xpyriment,osweb,1.3.13,0,space,space,space,,47650,109424,47650,,2,legacy,738,1366,24,768,24,0,0,1366,1645819478174,1024,2,48000,-16,experiment,p2sarr1.png,0,even,Win32,306,221476,218465,305,306,321379,322891,316381,222993,316381,306,,,,,,visual_patterns,0,0,0,yes,1366
undefined,undefined,undefined,undefined,white,no,Mozilla,Netscape,"5.0 (Windows NT 10.0; Win64; x64) AppleWebKit/537.36 (KHTML, like Gecko) Chrome/98.0.4758.102 Safari/537.36",xpyriment,legacy,legacy,0,uniform,0,0,0,0,24,24,24,0,0,8,8,8,8,8,0,8,0,,,,,,0,,25-01-22,25-01-22,21:03:50,Fri Feb 25 2022 21:03:50 GMT+0100 (közép-európai téli idő),The main experiment item,yes,0,0,C:/Users/rrics/Documents/!!ResearchBMECOGSCI/gnet,0,0,0,prototype5.png,no,mono,no,18,no,black,no,no,768,1142,3.5.6,legacy,xpyriment,osweb,1.3.13,0,space,space,space,,47650,109424,47650,,2,legacy,738,1366,24,768,24,0,0,1366,1645819478174,1024,2,48000,-16,experiment,prototype4.png,0,even,Win32,306,221476,218465,305,306,327904,329418,322910,222993,322910,306,,,,,,visual_patterns,0,0,0,yes,1366
undefined,undefined,undefined,undefined,white,no,Mozilla,Netscape,"5.0 (Windows NT 10.0; Win64; x64) AppleWebKit/537.36 (KHTML, like Gecko) Chrome/98.0.4758.102 Safari/537.36",xpyriment,legacy,legacy,0,uniform,0,0,0,0,24,24,24,0,0,9,9,9,9,9,0,9,0,,,,,,0,,25-01-22,25-01-22,21:03:50,Fri Feb 25 2022 21:03:50 GMT+0100 (közép-európai téli idő),The main experiment item,yes,0,0,C:/Users/rrics/Documents/!!ResearchBMECOGSCI/gnet,0,0,0,prototype5.png,no,mono,no,18,no,black,no,no,768,1142,3.5.6,legacy,xpyriment,osweb,1.3.13,0,space,space,space,,47650,109424,47650,,2,legacy,738,1366,24,768,24,0,0,1366,1645819478174,1024,2,48000,-16,experiment,p5sarrsha1.png,0,even,Win32,306,221476,218465,305,306,334432,335945,329438,222993,329438,306,,,,,,visual_patterns,0,0,0,yes,1366
undefined,undefined,undefined,undefined,white,no,Mozilla,Netscape,"5.0 (Windows NT 10.0; Win64; x64) AppleWebKit/537.36 (KHTML, like Gecko) Chrome/98.0.4758.102 Safari/537.36",xpyriment,legacy,legacy,0,uniform,0,0,0,0,24,24,24,0,0,10,10,10,10,10,0,10,0,,,,,,0,,25-01-22,25-01-22,21:03:50,Fri Feb 25 2022 21:03:50 GMT+0100 (közép-európai téli idő),The main experiment item,yes,0,0,C:/Users/rrics/Documents/!!ResearchBMECOGSCI/gnet,0,0,0,prototype5.png,no,mono,no,18,no,black,no,no,768,1142,3.5.6,legacy,xpyriment,osweb,1.3.13,0,space,space,space,,47650,109424,47650,,2,legacy,738,1366,24,768,24,0,0,1366,1645819478174,1024,2,48000,-16,experiment,p5sarrcol1.png,0,even,Win32,306,221476,218465,305,306,340960,342473,335965,222993,335965,306,,,,,,visual_patterns,0,0,0,yes,1366
undefined,undefined,undefined,undefined,white,no,Mozilla,Netscape,"5.0 (Windows NT 10.0; Win64; x64) AppleWebKit/537.36 (KHTML, like Gecko) Chrome/98.0.4758.102 Safari/537.36",xpyriment,legacy,legacy,0,uniform,0,0,0,0,24,24,24,0,0,11,11,11,11,11,0,11,0,,,,,,0,,25-01-22,25-01-22,21:03:50,Fri Feb 25 2022 21:03:50 GMT+0100 (közép-európai téli idő),The main experiment item,yes,0,0,C:/Users/rrics/Documents/!!ResearchBMECOGSCI/gnet,0,0,0,prototype5.png,no,mono,no,18,no,black,no,no,768,1142,3.5.6,legacy,xpyriment,osweb,1.3.13,0,space,space,space,,47650,109424,47650,,2,legacy,738,1366,24,768,24,0,0,1366,1645819478174,1024,2,48000,-16,experiment,p8sarr2.png,0,even,Win32,306,221476,218465,305,306,347496,348998,342496,222993,342496,306,,,,,,visual_patterns,0,0,0,yes,1366
undefined,undefined,undefined,undefined,white,no,Mozilla,Netscape,"5.0 (Windows NT 10.0; Win64; x64) AppleWebKit/537.36 (KHTML, like Gecko) Chrome/98.0.4758.102 Safari/537.36",xpyriment,legacy,legacy,0,uniform,0,0,0,0,24,24,24,0,0,12,12,12,12,12,0,12,0,,,,,,0,,25-01-22,25-01-22,21:03:50,Fri Feb 25 2022 21:03:50 GMT+0100 (közép-európai téli idő),The main experiment item,yes,0,0,C:/Users/rrics/Documents/!!ResearchBMECOGSCI/gnet,0,0,0,prototype5.png,no,mono,no,18,no,black,no,no,768,1142,3.5.6,legacy,xpyriment,osweb,1.3.13,0,space,space,space,,47650,109424,47650,,2,legacy,738,1366,24,768,24,0,0,1366,1645819478174,1024,2,48000,-16,experiment,p5sarrshacol2.png,0,even,Win32,306,221476,218465,305,306,354017,355525,349017,222993,349016,306,,,,,,visual_patterns,0,0,0,yes,1366
undefined,undefined,undefined,undefined,white,no,Mozilla,Netscape,"5.0 (Windows NT 10.0; Win64; x64) AppleWebKit/537.36 (KHTML, like Gecko) Chrome/98.0.4758.102 Safari/537.36",xpyriment,legacy,legacy,0,uniform,0,0,0,0,24,24,24,0,0,13,13,13,13,13,0,13,0,,,,,,0,,25-01-22,25-01-22,21:03:50,Fri Feb 25 2022 21:03:50 GMT+0100 (közép-európai téli idő),The main experiment item,yes,0,0,C:/Users/rrics/Documents/!!ResearchBMECOGSCI/gnet,0,0,0,prototype5.png,no,mono,no,18,no,black,no,no,768,1142,3.5.6,legacy,xpyriment,osweb,1.3.13,0,space,space,space,,47650,109424,47650,,2,legacy,738,1366,24,768,24,0,0,1366,1645819478174,1024,2,48000,-16,experiment,p8sarr1.png,0,even,Win32,306,221476,218465,305,306,360538,362052,355546,222993,355546,306,,,,,,visual_patterns,0,0,0,yes,1366
undefined,undefined,undefined,undefined,white,no,Mozilla,Netscape,"5.0 (Windows NT 10.0; Win64; x64) AppleWebKit/537.36 (KHTML, like Gecko) Chrome/98.0.4758.102 Safari/537.36",xpyriment,legacy,legacy,0,uniform,0,0,0,0,24,24,24,0,0,14,14,14,14,14,0,14,0,,,,,,0,,25-01-22,25-01-22,21:03:50,Fri Feb 25 2022 21:03:50 GMT+0100 (közép-európai téli idő),The main experiment item,yes,0,0,C:/Users/rrics/Documents/!!ResearchBMECOGSCI/gnet,0,0,0,prototype5.png,no,mono,no,18,no,black,no,no,768,1142,3.5.6,legacy,xpyriment,osweb,1.3.13,0,space,space,space,,47650,109424,47650,,2,legacy,738,1366,24,768,24,0,0,1366,1645819478174,1024,2,48000,-16,experiment,p3sarrcol1.png,0,even,Win32,306,221476,218465,305,306,367069,368579,362074,222993,362074,306,,,,,,visual_patterns,0,0,0,yes,1366
undefined,undefined,undefined,undefined,white,no,Mozilla,Netscape,"5.0 (Windows NT 10.0; Win64; x64) AppleWebKit/537.36 (KHTML, like Gecko) Chrome/98.0.4758.102 Safari/537.36",xpyriment,legacy,legacy,0,uniform,0,0,0,0,24,24,24,0,0,15,15,15,15,15,0,15,0,,,,,,0,,25-01-22,25-01-22,21:03:50,Fri Feb 25 2022 21:03:50 GMT+0100 (közép-európai téli idő),The main experiment item,yes,0,0,C:/Users/rrics/Documents/!!ResearchBMECOGSCI/gnet,0,0,0,prototype5.png,no,mono,no,18,no,black,no,no,768,1142,3.5.6,legacy,xpyriment,osweb,1.3.13,0,space,space,space,,47650,109424,47650,,2,legacy,738,1366,24,768,24,0,0,1366,1645819478174,1024,2,48000,-16,experiment,prototype1.png,0,even,Win32,306,221476,218465,305,306,373592,375107,368593,222993,368593,306,,,,,,visual_patterns,0,0,0,yes,1366
undefined,undefined,undefined,undefined,white,no,Mozilla,Netscape,"5.0 (Windows NT 10.0; Win64; x64) AppleWebKit/537.36 (KHTML, like Gecko) Chrome/98.0.4758.102 Safari/537.36",xpyriment,legacy,legacy,0,uniform,0,0,0,0,24,24,24,0,0,16,16,16,16,16,0,16,0,,,,,,0,,25-01-22,25-01-22,21:03:50,Fri Feb 25 2022 21:03:50 GMT+0100 (közép-európai téli idő),The main experiment item,yes,0,0,C:/Users/rrics/Documents/!!ResearchBMECOGSCI/gnet,0,0,0,prototype5.png,no,mono,no,18,no,black,no,no,768,1142,3.5.6,legacy,xpyriment,osweb,1.3.13,0,space,space,space,,47650,109424,47650,,2,legacy,738,1366,24,768,24,0,0,1366,1645819478174,1024,2,48000,-16,experiment,p2sarr2.png,0,even,Win32,306,221476,218465,305,306,380145,381649,375149,222993,375149,306,,,,,,visual_patterns,0,0,0,yes,1366
undefined,undefined,undefined,undefined,white,no,Mozilla,Netscape,"5.0 (Windows NT 10.0; Win64; x64) AppleWebKit/537.36 (KHTML, like Gecko) Chrome/98.0.4758.102 Safari/537.36",xpyriment,legacy,legacy,0,uniform,0,0,0,0,24,24,24,0,0,17,17,17,17,17,0,17,0,,,,,,0,,25-01-22,25-01-22,21:03:50,Fri Feb 25 2022 21:03:50 GMT+0100 (közép-európai téli idő),The main experiment item,yes,0,0,C:/Users/rrics/Documents/!!ResearchBMECOGSCI/gnet,0,0,0,prototype5.png,no,mono,no,18,no,black,no,no,768,1142,3.5.6,legacy,xpyriment,osweb,1.3.13,0,space,space,space,,47650,109424,47650,,2,legacy,738,1366,24,768,24,0,0,1366,1645819478174,1024,2,48000,-16,experiment,p3sarrsha2.png,0,even,Win32,306,221476,218465,305,306,386666,388176,381667,222993,381667,306,,,,,,visual_patterns,0,0,0,yes,1366
undefined,undefined,undefined,undefined,white,no,Mozilla,Netscape,"5.0 (Windows NT 10.0; Win64; x64) AppleWebKit/537.36 (KHTML, like Gecko) Chrome/98.0.4758.102 Safari/537.36",xpyriment,legacy,legacy,0,uniform,0,0,0,0,24,24,24,0,0,18,18,18,18,18,0,18,0,,,,,,0,,25-01-22,25-01-22,21:03:50,Fri Feb 25 2022 21:03:50 GMT+0100 (közép-európai téli idő),The main experiment item,yes,0,0,C:/Users/rrics/Documents/!!ResearchBMECOGSCI/gnet,0,0,0,prototype5.png,no,mono,no,18,no,black,no,no,768,1142,3.5.6,legacy,xpyriment,osweb,1.3.13,0,space,space,space,,47650,109424,47650,,2,legacy,738,1366,24,768,24,0,0,1366,1645819478174,1024,2,48000,-16,experiment,prototype4.png,0,even,Win32,306,221476,218465,305,306,393192,394703,388191,222993,388191,306,,,,,,visual_patterns,0,0,0,yes,1366
undefined,undefined,undefined,undefined,white,no,Mozilla,Netscape,"5.0 (Windows NT 10.0; Win64; x64) AppleWebKit/537.36 (KHTML, like Gecko) Chrome/98.0.4758.102 Safari/537.36",xpyriment,legacy,legacy,0,uniform,0,0,0,0,24,24,24,0,0,19,19,19,19,19,0,19,0,,,,,,0,,25-01-22,25-01-22,21:03:50,Fri Feb 25 2022 21:03:50 GMT+0100 (közép-európai téli idő),The main experiment item,yes,0,0,C:/Users/rrics/Documents/!!ResearchBMECOGSCI/gnet,0,0,0,prototype5.png,no,mono,no,18,no,black,no,no,768,1142,3.5.6,legacy,xpyriment,osweb,1.3.13,0,space,space,space,,47650,109424,47650,,2,legacy,738,1366,24,768,24,0,0,1366,1645819478174,1024,2,48000,-16,experiment,p3sarrsha1.png,0,even,Win32,306,221476,218465,305,306,399721,401230,394722,222993,394722,306,,,,,,visual_patterns,0,0,0,yes,1366
undefined,undefined,undefined,undefined,white,no,Mozilla,Netscape,"5.0 (Windows NT 10.0; Win64; x64) AppleWebKit/537.36 (KHTML, like Gecko) Chrome/98.0.4758.102 Safari/537.36",xpyriment,legacy,legacy,0,uniform,0,0,0,0,24,24,24,0,0,20,20,20,20,20,0,20,0,,,,,,0,,25-01-22,25-01-22,21:03:50,Fri Feb 25 2022 21:03:50 GMT+0100 (közép-európai téli idő),The main experiment item,yes,0,0,C:/Users/rrics/Documents/!!ResearchBMECOGSCI/gnet,0,0,0,prototype5.png,no,mono,no,18,no,black,no,no,768,1142,3.5.6,legacy,xpyriment,osweb,1.3.13,0,space,space,space,,47650,109424,47650,,2,legacy,738,1366,24,768,24,0,0,1366,1645819478174,1024,2,48000,-16,experiment,prototype2.png,0,even,Win32,306,221476,218465,305,306,406245,407757,401248,222993,401248,306,,,,,,visual_patterns,0,0,0,yes,1366
undefined,undefined,undefined,undefined,white,no,Mozilla,Netscape,"5.0 (Windows NT 10.0; Win64; x64) AppleWebKit/537.36 (KHTML, like Gecko) Chrome/98.0.4758.102 Safari/537.36",xpyriment,legacy,legacy,0,uniform,0,0,0,0,24,24,24,0,0,21,21,21,21,21,0,21,0,,,,,,0,,25-01-22,25-01-22,21:03:50,Fri Feb 25 2022 21:03:50 GMT+0100 (közép-európai téli idő),The main experiment item,yes,0,0,C:/Users/rrics/Documents/!!ResearchBMECOGSCI/gnet,0,0,0,prototype5.png,no,mono,no,18,no,black,no,no,768,1142,3.5.6,legacy,xpyriment,osweb,1.3.13,0,space,space,space,,47650,109424,47650,,2,legacy,738,1366,24,768,24,0,0,1366,1645819478174,1024,2,48000,-16,experiment,p4sarrcol2.png,0,even,Win32,306,221476,218465,305,306,412772,414283,407778,222993,407778,306,,,,,,visual_patterns,0,0,0,yes,1366
undefined,undefined,undefined,undefined,white,no,Mozilla,Netscape,"5.0 (Windows NT 10.0; Win64; x64) AppleWebKit/537.36 (KHTML, like Gecko) Chrome/98.0.4758.102 Safari/537.36",xpyriment,legacy,legacy,0,uniform,0,0,0,0,24,24,24,0,0,22,22,22,22,22,0,22,0,,,,,,0,,25-01-22,25-01-22,21:03:50,Fri Feb 25 2022 21:03:50 GMT+0100 (közép-európai téli idő),The main experiment item,yes,0,0,C:/Users/rrics/Documents/!!ResearchBMECOGSCI/gnet,0,0,0,prototype5.png,no,mono,no,18,no,black,no,no,768,1142,3.5.6,legacy,xpyriment,osweb,1.3.13,0,space,space,space,,47650,109424,47650,,2,legacy,738,1366,24,768,24,0,0,1366,1645819478174,1024,2,48000,-16,experiment,p5sarrshacol1.png,0,even,Win32,306,221476,218465,305,306,419301,420810,414303,222993,414303,306,,,,,,visual_patterns,0,0,0,yes,1366
undefined,undefined,undefined,undefined,white,no,Mozilla,Netscape,"5.0 (Windows NT 10.0; Win64; x64) AppleWebKit/537.36 (KHTML, like Gecko) Chrome/98.0.4758.102 Safari/537.36",xpyriment,legacy,legacy,0,uniform,0,0,0,0,24,24,24,0,0,23,23,23,23,23,0,23,0,,,,,,0,,25-01-22,25-01-22,21:03:50,Fri Feb 25 2022 21:03:50 GMT+0100 (közép-európai téli idő),The main experiment item,yes,0,0,C:/Users/rrics/Documents/!!ResearchBMECOGSCI/gnet,0,0,0,prototype5.png,no,mono,no,18,no,black,no,no,768,1142,3.5.6,legacy,xpyriment,osweb,1.3.13,0,space,space,space,,47650,109424,47650,,2,legacy,738,1366,24,768,24,0,0,1366,1645819478174,1024,2,48000,-16,experiment,prototype2.png,0,even,Win32,306,221476,218465,305,306,425825,427337,420823,222993,420823,306,,,,,,visual_patterns,0,0,0,yes,1366
undefined,undefined,undefined,undefined,white,no,Mozilla,Netscape,"5.0 (Windows NT 10.0; Win64; x64) AppleWebKit/537.36 (KHTML, like Gecko) Chrome/98.0.4758.102 Safari/537.36",xpyriment,legacy,legacy,0,uniform,0,0,0,0,24,24,24,0,0,24,24,24,24,24,0,24,0,,,,,,0,,25-01-22,25-01-22,21:03:50,Fri Feb 25 2022 21:03:50 GMT+0100 (közép-európai téli idő),The main experiment item,yes,0,0,C:/Users/rrics/Documents/!!ResearchBMECOGSCI/gnet,0,0,0,prototype5.png,no,mono,no,18,no,black,no,no,768,1142,3.5.6,legacy,xpyriment,osweb,1.3.13,0,space,space,space,,47650,109424,47650,,2,legacy,738,1366,24,768,24,0,0,1366,1645819478174,1024,2,48000,-16,experiment,p4sarrsha2.png,0,even,Win32,306,221476,218465,305,306,432355,433864,427362,222993,427362,306,,,,,,visual_patterns,0,0,0,yes,1366
undefined,undefined,undefined,undefined,white,no,Mozilla,Netscape,"5.0 (Windows NT 10.0; Win64; x64) AppleWebKit/537.36 (KHTML, like Gecko) Chrome/98.0.4758.102 Safari/537.36",xpyriment,legacy,legacy,0,uniform,0,0,0,0,24,24,24,0,0,25,25,25,25,25,0,25,0,,,,,,0,,25-01-22,25-01-22,21:03:50,Fri Feb 25 2022 21:03:50 GMT+0100 (közép-európai téli idő),The main experiment item,yes,0,0,C:/Users/rrics/Documents/!!ResearchBMECOGSCI/gnet,0,0,0,prototype5.png,no,mono,no,18,no,black,no,no,768,1142,3.5.6,legacy,xpyriment,osweb,1.3.13,0,space,space,space,,47650,109424,47650,,2,legacy,738,1366,24,768,24,0,0,1366,1645819478174,1024,2,48000,-16,experiment,p9sarr1.png,0,even,Win32,306,221476,218465,305,306,438879,440391,433883,222993,433883,306,,,,,,visual_patterns,0,0,0,yes,1366
undefined,undefined,undefined,undefined,white,no,Mozilla,Netscape,"5.0 (Windows NT 10.0; Win64; x64) AppleWebKit/537.36 (KHTML, like Gecko) Chrome/98.0.4758.102 Safari/537.36",xpyriment,legacy,legacy,0,uniform,0,0,0,0,24,24,24,0,0,26,26,26,26,26,0,26,0,,,,,,0,,25-01-22,25-01-22,21:03:50,Fri Feb 25 2022 21:03:50 GMT+0100 (közép-európai téli idő),The main experiment item,yes,0,0,C:/Users/rrics/Documents/!!ResearchBMECOGSCI/gnet,0,0,0,prototype5.png,no,mono,no,18,no,black,no,no,768,1142,3.5.6,legacy,xpyriment,osweb,1.3.13,0,space,space,space,,47650,109424,47650,,2,legacy,738,1366,24,768,24,0,0,1366,1645819478174,1024,2,48000,-16,experiment,prototype1.png,0,even,Win32,306,221476,218465,305,306,445440,446951,440435,222993,440435,306,,,,,,visual_patterns,0,0,0,yes,1366
undefined,undefined,undefined,undefined,white,no,Mozilla,Netscape,"5.0 (Windows NT 10.0; Win64; x64) AppleWebKit/537.36 (KHTML, like Gecko) Chrome/98.0.4758.102 Safari/537.36",xpyriment,legacy,legacy,0,uniform,0,0,0,0,24,24,24,0,0,27,27,27,27,27,0,27,0,,,,,,0,,25-01-22,25-01-22,21:03:50,Fri Feb 25 2022 21:03:50 GMT+0100 (közép-európai téli idő),The main experiment item,yes,0,0,C:/Users/rrics/Documents/!!ResearchBMECOGSCI/gnet,0,0,0,prototype5.png,no,mono,no,18,no,black,no,no,768,1142,3.5.6,legacy,xpyriment,osweb,1.3.13,0,space,space,space,,47650,109424,47650,,2,legacy,738,1366,24,768,24,0,0,1366,1645819478174,1024,2,48000,-16,experiment,p4sarrcol1.png,0,even,Win32,306,221476,218465,305,306,451969,453478,446971,222993,446971,306,,,,,,visual_patterns,0,0,0,yes,1366
undefined,undefined,undefined,undefined,white,no,Mozilla,Netscape,"5.0 (Windows NT 10.0; Win64; x64) AppleWebKit/537.36 (KHTML, like Gecko) Chrome/98.0.4758.102 Safari/537.36",xpyriment,legacy,legacy,0,uniform,0,0,0,0,24,24,24,0,0,28,28,28,28,28,0,28,0,,,,,,0,,25-01-22,25-01-22,21:03:50,Fri Feb 25 2022 21:03:50 GMT+0100 (közép-európai téli idő),The main experiment item,yes,0,0,C:/Users/rrics/Documents/!!ResearchBMECOGSCI/gnet,0,0,0,prototype5.png,no,mono,no,18,no,black,no,no,768,1142,3.5.6,legacy,xpyriment,osweb,1.3.13,0,space,space,space,,47650,109424,47650,,2,legacy,738,1366,24,768,24,0,0,1366,1645819478174,1024,2,48000,-16,experiment,prototype4.png,0,even,Win32,306,221476,218465,305,306,458495,460005,453496,222993,453496,306,,,,,,visual_patterns,0,0,0,yes,1366
undefined,undefined,undefined,undefined,white,no,Mozilla,Netscape,"5.0 (Windows NT 10.0; Win64; x64) AppleWebKit/537.36 (KHTML, like Gecko) Chrome/98.0.4758.102 Safari/537.36",xpyriment,legacy,legacy,0,uniform,0,0,0,0,24,24,24,0,0,29,29,29,29,29,0,29,0,,,,,,0,,25-01-22,25-01-22,21:03:50,Fri Feb 25 2022 21:03:50 GMT+0100 (közép-európai téli idő),The main experiment item,yes,0,0,C:/Users/rrics/Documents/!!ResearchBMECOGSCI/gnet,0,0,0,prototype5.png,no,mono,no,18,no,black,no,no,768,1142,3.5.6,legacy,xpyriment,osweb,1.3.13,0,space,space,space,,47650,109424,47650,,2,legacy,738,1366,24,768,24,0,0,1366,1645819478174,1024,2,48000,-16,experiment,prototype5.png,0,even,Win32,306,221476,218465,305,306,465022,466532,460022,222993,460022,306,,,,,,visual_patterns,0,0,0,yes,1366
undefined,undefined,undefined,undefined,white,no,Mozilla,Netscape,"5.0 (Windows NT 10.0; Win64; x64) AppleWebKit/537.36 (KHTML, like Gecko) Chrome/98.0.4758.102 Safari/537.36",xpyriment,legacy,legacy,0,uniform,0,0,0,0,24,24,24,0,0,30,30,30,30,30,0,30,0,,,,,,0,,25-01-22,25-01-22,21:03:50,Fri Feb 25 2022 21:03:50 GMT+0100 (közép-európai téli idő),The main experiment item,yes,0,0,C:/Users/rrics/Documents/!!ResearchBMECOGSCI/gnet,0,0,0,prototype5.png,no,mono,no,18,no,black,no,no,768,1142,3.5.6,legacy,xpyriment,osweb,1.3.13,0,space,space,space,,47650,109424,47650,,2,legacy,738,1366,24,768,24,0,0,1366,1645819478174,1024,2,48000,-16,experiment,p5sarrcol2.png,0,even,Win32,306,221476,218465,305,306,471550,473058,466551,222993,466550,306,,,,,,visual_patterns,0,0,0,yes,1366
undefined,undefined,undefined,undefined,white,no,Mozilla,Netscape,"5.0 (Windows NT 10.0; Win64; x64) AppleWebKit/537.36 (KHTML, like Gecko) Chrome/98.0.4758.102 Safari/537.36",xpyriment,legacy,legacy,0,uniform,0,0,0,0,24,24,24,0,0,31,31,31,31,31,0,31,0,,,,,,0,,25-01-22,25-01-22,21:03:50,Fri Feb 25 2022 21:03:50 GMT+0100 (közép-európai téli idő),The main experiment item,yes,0,0,C:/Users/rrics/Documents/!!ResearchBMECOGSCI/gnet,0,0,0,prototype5.png,no,mono,no,18,no,black,no,no,768,1142,3.5.6,legacy,xpyriment,osweb,1.3.13,0,space,space,space,,47650,109424,47650,,2,legacy,738,1366,24,768,24,0,0,1366,1645819478174,1024,2,48000,-16,experiment,p2sarrsha2.png,0,even,Win32,306,221476,218465,305,306,478097,479602,473098,222993,473098,306,,,,,,visual_patterns,0,0,0,yes,1366
undefined,undefined,undefined,undefined,white,no,Mozilla,Netscape,"5.0 (Windows NT 10.0; Win64; x64) AppleWebKit/537.36 (KHTML, like Gecko) Chrome/98.0.4758.102 Safari/537.36",xpyriment,legacy,legacy,0,uniform,0,0,0,0,24,24,24,0,0,32,32,32,32,32,0,32,0,,,,,,0,,25-01-22,25-01-22,21:03:50,Fri Feb 25 2022 21:03:50 GMT+0100 (közép-európai téli idő),The main experiment item,yes,0,0,C:/Users/rrics/Documents/!!ResearchBMECOGSCI/gnet,0,0,0,prototype5.png,no,mono,no,18,no,black,no,no,768,1142,3.5.6,legacy,xpyriment,osweb,1.3.13,0,space,space,space,,47650,109424,47650,,2,legacy,738,1366,24,768,24,0,0,1366,1645819478174,1024,2,48000,-16,experiment,p5sarr1.png,0,even,Win32,306,221476,218465,305,306,484616,486129,479621,222993,479621,306,,,,,,visual_patterns,0,0,0,yes,1366
undefined,undefined,undefined,undefined,white,no,Mozilla,Netscape,"5.0 (Windows NT 10.0; Win64; x64) AppleWebKit/537.36 (KHTML, like Gecko) Chrome/98.0.4758.102 Safari/537.36",xpyriment,legacy,legacy,0,uniform,0,0,0,0,24,24,24,0,0,33,33,33,33,33,0,33,0,,,,,,0,,25-01-22,25-01-22,21:03:50,Fri Feb 25 2022 21:03:50 GMT+0100 (közép-európai téli idő),The main experiment item,yes,0,0,C:/Users/rrics/Documents/!!ResearchBMECOGSCI/gnet,0,0,0,prototype5.png,no,mono,no,18,no,black,no,no,768,1142,3.5.6,legacy,xpyriment,osweb,1.3.13,0,space,space,space,,47650,109424,47650,,2,legacy,738,1366,24,768,24,0,0,1366,1645819478174,1024,2,48000,-16,experiment,p3sarrshacol1.png,0,even,Win32,306,221476,218465,305,306,491146,492656,486150,222993,486150,306,,,,,,visual_patterns,0,0,0,yes,1366
undefined,undefined,undefined,undefined,white,no,Mozilla,Netscape,"5.0 (Windows NT 10.0; Win64; x64) AppleWebKit/537.36 (KHTML, like Gecko) Chrome/98.0.4758.102 Safari/537.36",xpyriment,legacy,legacy,0,uniform,0,0,0,0,24,24,24,0,0,34,34,34,34,34,0,34,0,,,,,,0,,25-01-22,25-01-22,21:03:50,Fri Feb 25 2022 21:03:50 GMT+0100 (közép-európai téli idő),The main experiment item,yes,0,0,C:/Users/rrics/Documents/!!ResearchBMECOGSCI/gnet,0,0,0,prototype5.png,no,mono,no,18,no,black,no,no,768,1142,3.5.6,legacy,xpyriment,osweb,1.3.13,0,space,space,space,,47650,109424,47650,,2,legacy,738,1366,24,768,24,0,0,1366,1645819478174,1024,2,48000,-16,experiment,prototype1.png,0,even,Win32,306,221476,218465,305,306,497671,499182,492669,222993,492669,306,,,,,,visual_patterns,0,0,0,yes,1366
undefined,undefined,undefined,undefined,white,no,Mozilla,Netscape,"5.0 (Windows NT 10.0; Win64; x64) AppleWebKit/537.36 (KHTML, like Gecko) Chrome/98.0.4758.102 Safari/537.36",xpyriment,legacy,legacy,0,uniform,0,0,0,0,24,24,24,0,0,35,35,35,35,35,0,35,0,,,,,,0,,25-01-22,25-01-22,21:03:50,Fri Feb 25 2022 21:03:50 GMT+0100 (közép-európai téli idő),The main experiment item,yes,0,0,C:/Users/rrics/Documents/!!ResearchBMECOGSCI/gnet,0,0,0,prototype5.png,no,mono,no,18,no,black,no,no,768,1142,3.5.6,legacy,xpyriment,osweb,1.3.13,0,space,space,space,,47650,109424,47650,,2,legacy,738,1366,24,768,24,0,0,1366,1645819478174,1024,2,48000,-16,experiment,p4sarrshacol1.png,0,even,Win32,306,221476,218465,305,306,504199,505713,499203,222993,499203,306,,,,,,visual_patterns,0,0,0,yes,1366
undefined,undefined,undefined,undefined,white,no,Mozilla,Netscape,"5.0 (Windows NT 10.0; Win64; x64) AppleWebKit/537.36 (KHTML, like Gecko) Chrome/98.0.4758.102 Safari/537.36",xpyriment,legacy,legacy,0,uniform,0,0,0,0,24,24,24,0,0,36,36,36,36,36,0,36,0,,,,,,0,,25-01-22,25-01-22,21:03:50,Fri Feb 25 2022 21:03:50 GMT+0100 (közép-európai téli idő),The main experiment item,yes,0,0,C:/Users/rrics/Documents/!!ResearchBMECOGSCI/gnet,0,0,0,prototype5.png,no,mono,no,18,no,black,no,no,768,1142,3.5.6,legacy,xpyriment,osweb,1.3.13,0,space,space,space,,47650,109424,47650,,2,legacy,738,1366,24,768,24,0,0,1366,1645819478174,1024,2,48000,-16,experiment,prototype3.png,0,even,Win32,306,221476,218465,305,306,510740,512253,505739,222993,505739,306,,,,,,visual_patterns,0,0,0,yes,1366
undefined,undefined,undefined,undefined,white,no,Mozilla,Netscape,"5.0 (Windows NT 10.0; Win64; x64) AppleWebKit/537.36 (KHTML, like Gecko) Chrome/98.0.4758.102 Safari/537.36",xpyriment,legacy,legacy,0,uniform,0,0,0,0,24,24,24,0,0,37,37,37,37,37,0,37,0,,,,,,0,,25-01-22,25-01-22,21:03:50,Fri Feb 25 2022 21:03:50 GMT+0100 (közép-európai téli idő),The main experiment item,yes,0,0,C:/Users/rrics/Documents/!!ResearchBMECOGSCI/gnet,0,0,0,prototype5.png,no,mono,no,18,no,black,no,no,768,1142,3.5.6,legacy,xpyriment,osweb,1.3.13,0,space,space,space,,47650,109424,47650,,2,legacy,738,1366,24,768,24,0,0,1366,1645819478174,1024,2,48000,-16,experiment,prototype3.png,0,even,Win32,306,221476,218465,305,306,517273,518780,512271,222993,512271,306,,,,,,visual_patterns,0,0,0,yes,1366
undefined,undefined,undefined,undefined,white,no,Mozilla,Netscape,"5.0 (Windows NT 10.0; Win64; x64) AppleWebKit/537.36 (KHTML, like Gecko) Chrome/98.0.4758.102 Safari/537.36",xpyriment,legacy,legacy,0,uniform,0,0,0,0,24,24,24,0,0,38,38,38,38,38,0,38,0,,,,,,0,,25-01-22,25-01-22,21:03:50,Fri Feb 25 2022 21:03:50 GMT+0100 (közép-európai téli idő),The main experiment item,yes,0,0,C:/Users/rrics/Documents/!!ResearchBMECOGSCI/gnet,0,0,0,prototype5.png,no,mono,no,18,no,black,no,no,768,1142,3.5.6,legacy,xpyriment,osweb,1.3.13,0,space,space,space,,47650,109424,47650,,2,legacy,738,1366,24,768,24,0,0,1366,1645819478174,1024,2,48000,-16,experiment,p7sarr1.png,0,even,Win32,306,221476,218465,305,306,523795,525307,518800,222993,518800,306,,,,,,visual_patterns,0,0,0,yes,1366
undefined,undefined,undefined,undefined,white,no,Mozilla,Netscape,"5.0 (Windows NT 10.0; Win64; x64) AppleWebKit/537.36 (KHTML, like Gecko) Chrome/98.0.4758.102 Safari/537.36",xpyriment,legacy,legacy,0,uniform,0,0,0,0,24,24,24,0,0,39,39,39,39,39,0,39,0,,,,,,0,,25-01-22,25-01-22,21:03:50,Fri Feb 25 2022 21:03:50 GMT+0100 (közép-európai téli idő),The main experiment item,yes,0,0,C:/Users/rrics/Documents/!!ResearchBMECOGSCI/gnet,0,0,0,prototype5.png,no,mono,no,18,no,black,no,no,768,1142,3.5.6,legacy,xpyriment,osweb,1.3.13,0,space,space,space,,47650,109424,47650,,2,legacy,738,1366,24,768,24,0,0,1366,1645819478174,1024,2,48000,-16,experiment,p1sarrsha1.png,0,even,Win32,306,221476,218465,305,306,530320,531833,525324,222993,525324,306,,,,,,visual_patterns,0,0,0,yes,1366
undefined,undefined,undefined,undefined,white,no,Mozilla,Netscape,"5.0 (Windows NT 10.0; Win64; x64) AppleWebKit/537.36 (KHTML, like Gecko) Chrome/98.0.4758.102 Safari/537.36",xpyriment,legacy,legacy,0,uniform,0,0,0,0,24,24,24,0,0,40,40,40,40,40,0,40,0,,,,,,0,,25-01-22,25-01-22,21:03:50,Fri Feb 25 2022 21:03:50 GMT+0100 (közép-európai téli idő),The main experiment item,yes,0,0,C:/Users/rrics/Documents/!!ResearchBMECOGSCI/gnet,0,0,0,prototype5.png,no,mono,no,18,no,black,no,no,768,1142,3.5.6,legacy,xpyriment,osweb,1.3.13,0,space,space,space,,47650,109424,47650,,2,legacy,738,1366,24,768,24,0,0,1366,1645819478174,1024,2,48000,-16,experiment,prototype5.png,0,even,Win32,306,221476,218465,305,306,536855,538360,531852,222993,531852,306,,,,,,visual_patterns,0,0,0,yes,1366
undefined,undefined,undefined,undefined,white,no,Mozilla,Netscape,"5.0 (Windows NT 10.0; Win64; x64) AppleWebKit/537.36 (KHTML, like Gecko) Chrome/98.0.4758.102 Safari/537.36",xpyriment,legacy,legacy,0,uniform,0,0,0,0,24,24,24,0,0,41,41,41,41,41,0,41,0,,,,,,0,,25-01-22,25-01-22,21:03:50,Fri Feb 25 2022 21:03:50 GMT+0100 (közép-európai téli idő),The main experiment item,yes,0,0,C:/Users/rrics/Documents/!!ResearchBMECOGSCI/gnet,0,0,0,prototype5.png,no,mono,no,18,no,black,no,no,768,1142,3.5.6,legacy,xpyriment,osweb,1.3.13,0,space,space,space,,47650,109424,47650,,2,legacy,738,1366,24,768,24,0,0,1366,1645819478174,1024,2,48000,-16,experiment,p3sarrshacol2.png,0,even,Win32,306,221476,218465,305,306,543392,544904,538397,222993,538396,306,,,,,,visual_patterns,0,0,0,yes,1366
undefined,undefined,undefined,undefined,white,no,Mozilla,Netscape,"5.0 (Windows NT 10.0; Win64; x64) AppleWebKit/537.36 (KHTML, like Gecko) Chrome/98.0.4758.102 Safari/537.36",xpyriment,legacy,legacy,0,uniform,0,0,0,0,24,24,24,0,0,42,42,42,42,42,0,42,0,,,,,,0,,25-01-22,25-01-22,21:03:50,Fri Feb 25 2022 21:03:50 GMT+0100 (közép-európai téli idő),The main experiment item,yes,0,0,C:/Users/rrics/Documents/!!ResearchBMECOGSCI/gnet,0,0,0,prototype5.png,no,mono,no,18,no,black,no,no,768,1142,3.5.6,legacy,xpyriment,osweb,1.3.13,0,space,space,space,,47650,109424,47650,,2,legacy,738,1366,24,768,24,0,0,1366,1645819478174,1024,2,48000,-16,experiment,p3sarrcol2.png,0,even,Win32,306,221476,218465,305,306,549920,551431,544934,222993,544934,306,,,,,,visual_patterns,0,0,0,yes,1366
undefined,undefined,undefined,undefined,white,no,Mozilla,Netscape,"5.0 (Windows NT 10.0; Win64; x64) AppleWebKit/537.36 (KHTML, like Gecko) Chrome/98.0.4758.102 Safari/537.36",xpyriment,legacy,legacy,0,uniform,0,0,0,0,24,24,24,0,0,43,43,43,43,43,0,43,0,,,,,,0,,25-01-22,25-01-22,21:03:50,Fri Feb 25 2022 21:03:50 GMT+0100 (közép-európai téli idő),The main experiment item,yes,0,0,C:/Users/rrics/Documents/!!ResearchBMECOGSCI/gnet,0,0,0,prototype5.png,no,mono,no,18,no,black,no,no,768,1142,3.5.6,legacy,xpyriment,osweb,1.3.13,0,space,space,space,,47650,109424,47650,,2,legacy,738,1366,24,768,24,0,0,1366,1645819478174,1024,2,48000,-16,experiment,p3sarr2.png,0,even,Win32,306,221476,218465,305,306,556449,557958,551450,222993,551450,306,,,,,,visual_patterns,0,0,0,yes,1366
undefined,undefined,undefined,undefined,white,no,Mozilla,Netscape,"5.0 (Windows NT 10.0; Win64; x64) AppleWebKit/537.36 (KHTML, like Gecko) Chrome/98.0.4758.102 Safari/537.36",xpyriment,legacy,legacy,0,uniform,0,0,0,0,24,24,24,0,0,44,44,44,44,44,0,44,0,,,,,,0,,25-01-22,25-01-22,21:03:50,Fri Feb 25 2022 21:03:50 GMT+0100 (közép-európai téli idő),The main experiment item,yes,0,0,C:/Users/rrics/Documents/!!ResearchBMECOGSCI/gnet,0,0,0,prototype5.png,no,mono,no,18,no,black,no,no,768,1142,3.5.6,legacy,xpyriment,osweb,1.3.13,0,space,space,space,,47650,109424,47650,,2,legacy,738,1366,24,768,24,0,0,1366,1645819478174,1024,2,48000,-16,experiment,p2sarrsha1.png,0,even,Win32,306,221476,218465,305,306,562977,564484,557992,222993,557992,306,,,,,,visual_patterns,0,0,0,yes,1366
undefined,undefined,undefined,undefined,white,no,Mozilla,Netscape,"5.0 (Windows NT 10.0; Win64; x64) AppleWebKit/537.36 (KHTML, like Gecko) Chrome/98.0.4758.102 Safari/537.36",xpyriment,legacy,legacy,0,uniform,0,0,0,0,24,24,24,0,0,45,45,45,45,45,0,45,0,,,,,,0,,25-01-22,25-01-22,21:03:50,Fri Feb 25 2022 21:03:50 GMT+0100 (közép-európai téli idő),The main experiment item,yes,0,0,C:/Users/rrics/Documents/!!ResearchBMECOGSCI/gnet,0,0,0,prototype5.png,no,mono,no,18,no,black,no,no,768,1142,3.5.6,legacy,xpyriment,osweb,1.3.13,0,space,space,space,,47650,109424,47650,,2,legacy,738,1366,24,768,24,0,0,1366,1645819478174,1024,2,48000,-16,experiment,p4sarrsha1.png,0,even,Win32,306,221476,218465,305,306,569501,571012,564504,222993,564504,306,,,,,,visual_patterns,0,0,0,yes,1366
undefined,undefined,undefined,undefined,white,no,Mozilla,Netscape,"5.0 (Windows NT 10.0; Win64; x64) AppleWebKit/537.36 (KHTML, like Gecko) Chrome/98.0.4758.102 Safari/537.36",xpyriment,legacy,legacy,0,uniform,0,0,0,0,24,24,24,0,0,46,46,46,46,46,0,46,0,,,,,,0,,25-01-22,25-01-22,21:03:50,Fri Feb 25 2022 21:03:50 GMT+0100 (közép-európai téli idő),The main experiment item,yes,0,0,C:/Users/rrics/Documents/!!ResearchBMECOGSCI/gnet,0,0,0,prototype5.png,no,mono,no,18,no,black,no,no,768,1142,3.5.6,legacy,xpyriment,osweb,1.3.13,0,space,space,space,,47650,109424,47650,,2,legacy,738,1366,24,768,24,0,0,1366,1645819478174,1024,2,48000,-16,experiment,p1sarrcol1.png,0,even,Win32,306,221476,218465,305,306,576030,577538,571033,222993,571033,306,,,,,,visual_patterns,0,0,0,yes,1366
undefined,undefined,undefined,undefined,white,no,Mozilla,Netscape,"5.0 (Windows NT 10.0; Win64; x64) AppleWebKit/537.36 (KHTML, like Gecko) Chrome/98.0.4758.102 Safari/537.36",xpyriment,legacy,legacy,0,uniform,0,0,0,0,24,24,24,0,0,47,47,47,47,47,0,47,0,,,,,,0,,25-01-22,25-01-22,21:03:50,Fri Feb 25 2022 21:03:50 GMT+0100 (közép-európai téli idő),The main experiment item,yes,0,0,C:/Users/rrics/Documents/!!ResearchBMECOGSCI/gnet,0,0,0,prototype5.png,no,mono,no,18,no,black,no,no,768,1142,3.5.6,legacy,xpyriment,osweb,1.3.13,0,space,space,space,,47650,109424,47650,,2,legacy,738,1366,24,768,24,0,0,1366,1645819478174,1024,2,48000,-16,experiment,p1sarrsha2.png,0,even,Win32,306,221476,218465,305,306,582553,584065,577560,222993,577560,306,,,,,,visual_patterns,0,0,0,yes,1366
undefined,undefined,undefined,undefined,white,no,Mozilla,Netscape,"5.0 (Windows NT 10.0; Win64; x64) AppleWebKit/537.36 (KHTML, like Gecko) Chrome/98.0.4758.102 Safari/537.36",xpyriment,legacy,legacy,0,uniform,0,0,0,0,24,24,24,0,0,48,48,48,48,48,0,48,0,,,,,,0,,25-01-22,25-01-22,21:03:50,Fri Feb 25 2022 21:03:50 GMT+0100 (közép-európai téli idő),The main experiment item,yes,0,0,C:/Users/rrics/Documents/!!ResearchBMECOGSCI/gnet,0,0,0,prototype5.png,no,mono,no,18,no,black,no,no,768,1142,3.5.6,legacy,xpyriment,osweb,1.3.13,0,space,space,space,,47650,109424,47650,,2,legacy,738,1366,24,768,24,0,0,1366,1645819478174,1024,2,48000,-16,experiment,p7sarr2.png,0,even,Win32,306,221476,218465,305,306,589082,590592,584091,222993,584091,306,,,,,,visual_patterns,0,0,0,yes,1366
undefined,undefined,undefined,undefined,white,no,Mozilla,Netscape,"5.0 (Windows NT 10.0; Win64; x64) AppleWebKit/537.36 (KHTML, like Gecko) Chrome/98.0.4758.102 Safari/537.36",xpyriment,legacy,legacy,0,uniform,0,0,0,0,24,24,24,0,0,49,49,49,49,49,0,49,0,,,,,,0,,25-01-22,25-01-22,21:03:50,Fri Feb 25 2022 21:03:50 GMT+0100 (közép-európai téli idő),The main experiment item,yes,0,0,C:/Users/rrics/Documents/!!ResearchBMECOGSCI/gnet,0,0,0,prototype5.png,no,mono,no,18,no,black,no,no,768,1142,3.5.6,legacy,xpyriment,osweb,1.3.13,0,space,space,space,,47650,109424,47650,,2,legacy,738,1366,24,768,24,0,0,1366,1645819478174,1024,2,48000,-16,experiment,p4sarr1.png,0,even,Win32,306,221476,218465,305,306,595607,597119,590613,222993,590613,306,,,,,,visual_patterns,0,0,0,yes,1366
undefined,undefined,undefined,undefined,white,no,Mozilla,Netscape,"5.0 (Windows NT 10.0; Win64; x64) AppleWebKit/537.36 (KHTML, like Gecko) Chrome/98.0.4758.102 Safari/537.36",xpyriment,legacy,legacy,0,uniform,0,0,0,0,24,24,24,0,0,50,50,50,50,50,0,50,0,,,,,,0,,25-01-22,25-01-22,21:03:50,Fri Feb 25 2022 21:03:50 GMT+0100 (közép-európai téli idő),The main experiment item,yes,0,0,C:/Users/rrics/Documents/!!ResearchBMECOGSCI/gnet,0,0,0,prototype5.png,no,mono,no,18,no,black,no,no,768,1142,3.5.6,legacy,xpyriment,osweb,1.3.13,0,space,space,space,,47650,109424,47650,,2,legacy,738,1366,24,768,24,0,0,1366,1645819478174,1024,2,48000,-16,experiment,p10sarr1.png,0,even,Win32,306,221476,218465,305,306,602134,603645,597147,222993,597147,306,,,,,,visual_patterns,0,0,0,yes,1366
undefined,undefined,undefined,undefined,white,no,Mozilla,Netscape,"5.0 (Windows NT 10.0; Win64; x64) AppleWebKit/537.36 (KHTML, like Gecko) Chrome/98.0.4758.102 Safari/537.36",xpyriment,legacy,legacy,0,uniform,0,0,0,0,24,24,24,0,0,51,51,51,51,51,0,51,0,,,,,,0,,25-01-22,25-01-22,21:03:50,Fri Feb 25 2022 21:03:50 GMT+0100 (közép-európai téli idő),The main experiment item,yes,0,0,C:/Users/rrics/Documents/!!ResearchBMECOGSCI/gnet,0,0,0,prototype5.png,no,mono,no,18,no,black,no,no,768,1142,3.5.6,legacy,xpyriment,osweb,1.3.13,0,space,space,space,,47650,109424,47650,,2,legacy,738,1366,24,768,24,0,0,1366,1645819478174,1024,2,48000,-16,experiment,prototype3.png,0,even,Win32,306,221476,218465,305,306,608661,610173,603661,222993,603661,306,,,,,,visual_patterns,0,0,0,yes,1366
undefined,undefined,undefined,undefined,white,no,Mozilla,Netscape,"5.0 (Windows NT 10.0; Win64; x64) AppleWebKit/537.36 (KHTML, like Gecko) Chrome/98.0.4758.102 Safari/537.36",xpyriment,legacy,legacy,0,uniform,0,0,0,0,24,24,24,0,0,52,52,52,52,52,0,52,0,,,,,,0,,25-01-22,25-01-22,21:03:50,Fri Feb 25 2022 21:03:50 GMT+0100 (közép-európai téli idő),The main experiment item,yes,0,0,C:/Users/rrics/Documents/!!ResearchBMECOGSCI/gnet,0,0,0,prototype5.png,no,mono,no,18,no,black,no,no,768,1142,3.5.6,legacy,xpyriment,osweb,1.3.13,0,space,space,space,,47650,109424,47650,,2,legacy,738,1366,24,768,24,0,0,1366,1645819478174,1024,2,48000,-16,experiment,p1sarr1.png,0,even,Win32,306,221476,218465,305,306,615186,616700,610191,222993,610191,306,,,,,,visual_patterns,0,0,0,yes,1366
undefined,undefined,undefined,undefined,white,no,Mozilla,Netscape,"5.0 (Windows NT 10.0; Win64; x64) AppleWebKit/537.36 (KHTML, like Gecko) Chrome/98.0.4758.102 Safari/537.36",xpyriment,legacy,legacy,0,uniform,0,0,0,0,24,24,24,0,0,53,53,53,53,53,0,53,0,,,,,,0,,25-01-22,25-01-22,21:03:50,Fri Feb 25 2022 21:03:50 GMT+0100 (közép-európai téli idő),The main experiment item,yes,0,0,C:/Users/rrics/Documents/!!ResearchBMECOGSCI/gnet,0,0,0,prototype5.png,no,mono,no,18,no,black,no,no,768,1142,3.5.6,legacy,xpyriment,osweb,1.3.13,0,space,space,space,,47650,109424,47650,,2,legacy,738,1366,24,768,24,0,0,1366,1645819478174,1024,2,48000,-16,experiment,p1sarrcol2.png,0,even,Win32,306,221476,218465,305,306,621712,623226,616716,222993,616716,306,,,,,,visual_patterns,0,0,0,yes,1366
undefined,undefined,undefined,undefined,white,no,Mozilla,Netscape,"5.0 (Windows NT 10.0; Win64; x64) AppleWebKit/537.36 (KHTML, like Gecko) Chrome/98.0.4758.102 Safari/537.36",xpyriment,legacy,legacy,0,uniform,0,0,0,0,24,24,24,0,0,54,54,54,54,54,0,54,0,,,,,,0,,25-01-22,25-01-22,21:03:50,Fri Feb 25 2022 21:03:50 GMT+0100 (közép-európai téli idő),The main experiment item,yes,0,0,C:/Users/rrics/Documents/!!ResearchBMECOGSCI/gnet,0,0,0,prototype5.png,no,mono,no,18,no,black,no,no,768,1142,3.5.6,legacy,xpyriment,osweb,1.3.13,0,space,space,space,,47650,109424,47650,,2,legacy,738,1366,24,768,24,0,0,1366,1645819478174,1024,2,48000,-16,experiment,p2sarrcol2.png,0,even,Win32,306,221476,218465,305,306,628240,629753,623244,222993,623244,306,,,,,,visual_patterns,0,0,0,yes,1366
undefined,undefined,undefined,undefined,white,no,Mozilla,Netscape,"5.0 (Windows NT 10.0; Win64; x64) AppleWebKit/537.36 (KHTML, like Gecko) Chrome/98.0.4758.102 Safari/537.36",xpyriment,legacy,legacy,0,uniform,0,0,0,0,24,24,24,0,0,55,55,55,55,55,0,55,0,,,,,,0,,25-01-22,25-01-22,21:03:50,Fri Feb 25 2022 21:03:50 GMT+0100 (közép-európai téli idő),The main experiment item,yes,0,0,C:/Users/rrics/Documents/!!ResearchBMECOGSCI/gnet,0,0,0,prototype5.png,no,mono,no,18,no,black,no,no,768,1142,3.5.6,legacy,xpyriment,osweb,1.3.13,0,space,space,space,,47650,109424,47650,,2,legacy,738,1366,24,768,24,0,0,1366,1645819478174,1024,2,48000,-16,experiment,prototype4.png,0,even,Win32,306,221476,218465,305,306,634765,636280,629767,222993,629767,306,,,,,,visual_patterns,0,0,0,yes,1366
undefined,undefined,undefined,undefined,white,no,Mozilla,Netscape,"5.0 (Windows NT 10.0; Win64; x64) AppleWebKit/537.36 (KHTML, like Gecko) Chrome/98.0.4758.102 Safari/537.36",xpyriment,legacy,legacy,0,uniform,0,0,0,0,24,24,24,0,0,56,56,56,56,56,0,56,0,,,,,,0,,25-01-22,25-01-22,21:03:50,Fri Feb 25 2022 21:03:50 GMT+0100 (közép-európai téli idő),The main experiment item,yes,0,0,C:/Users/rrics/Documents/!!ResearchBMECOGSCI/gnet,0,0,0,prototype5.png,no,mono,no,18,no,black,no,no,768,1142,3.5.6,legacy,xpyriment,osweb,1.3.13,0,space,space,space,,47650,109424,47650,,2,legacy,738,1366,24,768,24,0,0,1366,1645819478174,1024,2,48000,-16,experiment,p2sarrshacol1.png,0,even,Win32,306,221476,218465,305,306,641313,642823,636318,222993,636318,306,,,,,,visual_patterns,0,0,0,yes,1366
undefined,undefined,undefined,undefined,white,no,Mozilla,Netscape,"5.0 (Windows NT 10.0; Win64; x64) AppleWebKit/537.36 (KHTML, like Gecko) Chrome/98.0.4758.102 Safari/537.36",xpyriment,legacy,legacy,0,uniform,0,0,0,0,24,24,24,0,0,57,57,57,57,57,0,57,0,,,,,,0,,25-01-22,25-01-22,21:03:50,Fri Feb 25 2022 21:03:50 GMT+0100 (közép-európai téli idő),The main experiment item,yes,0,0,C:/Users/rrics/Documents/!!ResearchBMECOGSCI/gnet,0,0,0,prototype5.png,no,mono,no,18,no,black,no,no,768,1142,3.5.6,legacy,xpyriment,osweb,1.3.13,0,space,space,space,,47650,109424,47650,,2,legacy,738,1366,24,768,24,0,0,1366,1645819478174,1024,2,48000,-16,experiment,prototype5.png,0,even,Win32,306,221476,218465,305,306,647838,649352,642838,222993,642838,306,,,,,,visual_patterns,0,0,0,yes,1366
undefined,undefined,undefined,undefined,white,no,Mozilla,Netscape,"5.0 (Windows NT 10.0; Win64; x64) AppleWebKit/537.36 (KHTML, like Gecko) Chrome/98.0.4758.102 Safari/537.36",xpyriment,legacy,legacy,0,uniform,0,0,0,0,24,24,24,0,0,58,58,58,58,58,0,58,0,,,,,,0,,25-01-22,25-01-22,21:03:50,Fri Feb 25 2022 21:03:50 GMT+0100 (közép-európai téli idő),The main experiment item,yes,0,0,C:/Users/rrics/Documents/!!ResearchBMECOGSCI/gnet,0,0,0,prototype5.png,no,mono,no,18,no,black,no,no,768,1142,3.5.6,legacy,xpyriment,osweb,1.3.13,0,space,space,space,,47650,109424,47650,,2,legacy,738,1366,24,768,24,0,0,1366,1645819478174,1024,2,48000,-16,experiment,prototype2.png,0,even,Win32,306,221476,218465,305,306,654374,655877,649379,222993,649379,306,,,,,,visual_patterns,0,0,0,yes,1366
undefined,undefined,undefined,undefined,white,no,Mozilla,Netscape,"5.0 (Windows NT 10.0; Win64; x64) AppleWebKit/537.36 (KHTML, like Gecko) Chrome/98.0.4758.102 Safari/537.36",xpyriment,legacy,legacy,0,uniform,0,0,0,0,24,24,24,0,0,59,59,59,59,59,0,59,0,,,,,,0,,25-01-22,25-01-22,21:03:50,Fri Feb 25 2022 21:03:50 GMT+0100 (közép-európai téli idő),The main experiment item,yes,0,0,C:/Users/rrics/Documents/!!ResearchBMECOGSCI/gnet,0,0,0,prototype5.png,no,mono,no,18,no,black,no,no,768,1142,3.5.6,legacy,xpyriment,osweb,1.3.13,0,space,space,space,,47650,109424,47650,,2,legacy,738,1366,24,768,24,0,0,1366,1645819478174,1024,2,48000,-16,experiment,prototype5.png,0,even,Win32,306,221476,218465,305,306,660912,662421,655891,222993,655891,306,,,,,,visual_patterns,0,0,0,yes,1366
undefined,undefined,undefined,undefined,white,no,Mozilla,Netscape,"5.0 (Windows NT 10.0; Win64; x64) AppleWebKit/537.36 (KHTML, like Gecko) Chrome/98.0.4758.102 Safari/537.36",xpyriment,legacy,legacy,0,uniform,0,0,0,0,24,24,24,0,0,60,60,60,60,60,0,60,0,,,,,,0,,25-01-22,25-01-22,21:03:50,Fri Feb 25 2022 21:03:50 GMT+0100 (közép-európai téli idő),The main experiment item,yes,0,0,C:/Users/rrics/Documents/!!ResearchBMECOGSCI/gnet,0,0,0,prototype5.png,no,mono,no,18,no,black,no,no,768,1142,3.5.6,legacy,xpyriment,osweb,1.3.13,0,space,space,space,,47650,109424,47650,,2,legacy,738,1366,24,768,24,0,0,1366,1645819478174,1024,2,48000,-16,experiment,p1sarrshacol2.png,0,even,Win32,306,221476,218465,305,306,667437,668947,662439,222993,662439,306,,,,,,visual_patterns,0,0,0,yes,1366
undefined,undefined,undefined,undefined,white,no,Mozilla,Netscape,"5.0 (Windows NT 10.0; Win64; x64) AppleWebKit/537.36 (KHTML, like Gecko) Chrome/98.0.4758.102 Safari/537.36",xpyriment,legacy,legacy,0,uniform,0,0,0,0,24,24,24,0,0,61,61,61,61,61,0,61,0,,,,,,0,,25-01-22,25-01-22,21:03:50,Fri Feb 25 2022 21:03:50 GMT+0100 (közép-európai téli idő),The main experiment item,yes,0,0,C:/Users/rrics/Documents/!!ResearchBMECOGSCI/gnet,0,0,0,prototype5.png,no,mono,no,18,no,black,no,no,768,1142,3.5.6,legacy,xpyriment,osweb,1.3.13,0,space,space,space,,47650,109424,47650,,2,legacy,738,1366,24,768,24,0,0,1366,1645819478174,1024,2,48000,-16,experiment,p2sarrcol1.png,0,even,Win32,306,221476,218465,305,306,673963,675475,668968,222993,668968,306,,,,,,visual_patterns,0,0,0,yes,1366
undefined,undefined,undefined,undefined,white,no,Mozilla,Netscape,"5.0 (Windows NT 10.0; Win64; x64) AppleWebKit/537.36 (KHTML, like Gecko) Chrome/98.0.4758.102 Safari/537.36",xpyriment,legacy,legacy,0,uniform,0,0,0,0,24,24,24,0,0,62,62,62,62,62,0,62,0,,,,,,0,,25-01-22,25-01-22,21:03:50,Fri Feb 25 2022 21:03:50 GMT+0100 (közép-európai téli idő),The main experiment item,yes,0,0,C:/Users/rrics/Documents/!!ResearchBMECOGSCI/gnet,0,0,0,prototype5.png,no,mono,no,18,no,black,no,no,768,1142,3.5.6,legacy,xpyriment,osweb,1.3.13,0,space,space,space,,47650,109424,47650,,2,legacy,738,1366,24,768,24,0,0,1366,1645819478174,1024,2,48000,-16,experiment,p5sarr2.png,0,even,Win32,306,221476,218465,305,306,680493,682001,675495,222993,675494,306,,,,,,visual_patterns,0,0,0,yes,1366
undefined,undefined,undefined,undefined,white,no,Mozilla,Netscape,"5.0 (Windows NT 10.0; Win64; x64) AppleWebKit/537.36 (KHTML, like Gecko) Chrome/98.0.4758.102 Safari/537.36",xpyriment,legacy,legacy,0,uniform,0,0,0,0,24,24,24,0,0,63,63,63,63,63,0,63,0,,,,,,0,,25-01-22,25-01-22,21:03:50,Fri Feb 25 2022 21:03:50 GMT+0100 (közép-európai téli idő),The main experiment item,yes,0,0,C:/Users/rrics/Documents/!!ResearchBMECOGSCI/gnet,0,0,0,prototype5.png,no,mono,no,18,no,black,no,no,768,1142,3.5.6,legacy,xpyriment,osweb,1.3.13,0,space,space,space,,47650,109424,47650,,2,legacy,738,1366,24,768,24,0,0,1366,1645819478174,1024,2,48000,-16,experiment,p10sarr2.png,0,even,Win32,306,221476,218465,305,306,687013,688529,682019,222993,682019,306,,,,,,visual_patterns,0,0,0,yes,1366
undefined,undefined,undefined,undefined,white,no,Mozilla,Netscape,"5.0 (Windows NT 10.0; Win64; x64) AppleWebKit/537.36 (KHTML, like Gecko) Chrome/98.0.4758.102 Safari/537.36",xpyriment,legacy,legacy,0,uniform,0,0,0,0,24,24,24,0,0,64,64,64,64,64,0,64,0,,,,,,0,,25-01-22,25-01-22,21:03:50,Fri Feb 25 2022 21:03:50 GMT+0100 (közép-európai téli idő),The main experiment item,yes,0,0,C:/Users/rrics/Documents/!!ResearchBMECOGSCI/gnet,0,0,0,prototype5.png,no,mono,no,18,no,black,no,no,768,1142,3.5.6,legacy,xpyriment,osweb,1.3.13,0,space,space,space,,47650,109424,47650,,2,legacy,738,1366,24,768,24,0,0,1366,1645819478174,1024,2,48000,-16,experiment,prototype1.png,0,even,Win32,306,221476,218465,305,306,693543,695055,688546,222993,688546,306,,,,,,visual_patterns,0,0,0,yes,1366
undefined,undefined,undefined,undefined,white,no,Mozilla,Netscape,"5.0 (Windows NT 10.0; Win64; x64) AppleWebKit/537.36 (KHTML, like Gecko) Chrome/98.0.4758.102 Safari/537.36",xpyriment,legacy,legacy,0,uniform,0,0,0,0,24,24,24,0,0,65,65,65,65,65,0,65,0,,,,,,0,,25-01-22,25-01-22,21:03:50,Fri Feb 25 2022 21:03:50 GMT+0100 (közép-európai téli idő),The main experiment item,yes,0,0,C:/Users/rrics/Documents/!!ResearchBMECOGSCI/gnet,0,0,0,prototype5.png,no,mono,no,18,no,black,no,no,768,1142,3.5.6,legacy,xpyriment,osweb,1.3.13,0,space,space,space,,47650,109424,47650,,2,legacy,738,1366,24,768,24,0,0,1366,1645819478174,1024,2,48000,-16,experiment,prototype4.png,0,even,Win32,306,221476,218465,305,306,700070,701582,695074,222993,695074,306,,,,,,visual_patterns,0,0,0,yes,1366
undefined,undefined,undefined,undefined,white,no,Mozilla,Netscape,"5.0 (Windows NT 10.0; Win64; x64) AppleWebKit/537.36 (KHTML, like Gecko) Chrome/98.0.4758.102 Safari/537.36",xpyriment,legacy,legacy,0,uniform,0,0,0,0,24,24,24,0,0,66,66,66,66,66,0,66,0,,,,,,0,,25-01-22,25-01-22,21:03:50,Fri Feb 25 2022 21:03:50 GMT+0100 (közép-európai téli idő),The main experiment item,yes,0,0,C:/Users/rrics/Documents/!!ResearchBMECOGSCI/gnet,0,0,0,prototype5.png,no,mono,no,18,no,black,no,no,768,1142,3.5.6,legacy,xpyriment,osweb,1.3.13,0,space,space,space,,47650,109424,47650,,2,legacy,738,1366,24,768,24,0,0,1366,1645819478174,1024,2,48000,-16,experiment,p2sarrshacol2.png,0,even,Win32,306,221476,218465,305,306,706594,708110,701601,222993,701601,306,,,,,,visual_patterns,0,0,0,yes,1366
undefined,undefined,undefined,undefined,white,no,Mozilla,Netscape,"5.0 (Windows NT 10.0; Win64; x64) AppleWebKit/537.36 (KHTML, like Gecko) Chrome/98.0.4758.102 Safari/537.36",xpyriment,legacy,legacy,0,uniform,0,0,0,0,24,24,24,0,0,67,67,67,67,67,0,67,0,,,,,,0,,25-01-22,25-01-22,21:03:50,Fri Feb 25 2022 21:03:50 GMT+0100 (közép-európai téli idő),The main experiment item,yes,0,0,C:/Users/rrics/Documents/!!ResearchBMECOGSCI/gnet,0,0,0,prototype5.png,no,mono,no,18,no,black,no,no,768,1142,3.5.6,legacy,xpyriment,osweb,1.3.13,0,space,space,space,,47650,109424,47650,,2,legacy,738,1366,24,768,24,0,0,1366,1645819478174,1024,2,48000,-16,experiment,p1sarr2.png,0,even,Win32,306,221476,218465,305,306,713123,714635,708130,222993,708130,306,,,,,,visual_patterns,0,0,0,yes,1366
undefined,undefined,undefined,undefined,white,no,Mozilla,Netscape,"5.0 (Windows NT 10.0; Win64; x64) AppleWebKit/537.36 (KHTML, like Gecko) Chrome/98.0.4758.102 Safari/537.36",xpyriment,legacy,legacy,0,uniform,0,0,0,0,24,24,24,0,0,68,68,68,68,68,0,68,0,,,,,,0,,25-01-22,25-01-22,21:03:50,Fri Feb 25 2022 21:03:50 GMT+0100 (közép-európai téli idő),The main experiment item,yes,0,0,C:/Users/rrics/Documents/!!ResearchBMECOGSCI/gnet,0,0,0,prototype5.png,no,mono,no,18,no,black,no,no,768,1142,3.5.6,legacy,xpyriment,osweb,1.3.13,0,space,space,space,,47650,109424,47650,,2,legacy,738,1366,24,768,24,0,0,1366,1645819478174,1024,2,48000,-16,experiment,p6sarr2.png,0,even,Win32,306,221476,218465,305,306,719651,721162,714653,222993,714653,306,,,,,,visual_patterns,0,0,0,yes,1366
undefined,undefined,undefined,undefined,white,no,Mozilla,Netscape,"5.0 (Windows NT 10.0; Win64; x64) AppleWebKit/537.36 (KHTML, like Gecko) Chrome/98.0.4758.102 Safari/537.36",xpyriment,legacy,legacy,0,uniform,0,0,0,0,24,24,24,0,0,69,69,69,69,69,0,69,0,,,,,,0,,25-01-22,25-01-22,21:03:50,Fri Feb 25 2022 21:03:50 GMT+0100 (közép-európai téli idő),The main experiment item,yes,0,0,C:/Users/rrics/Documents/!!ResearchBMECOGSCI/gnet,0,0,0,prototype5.png,no,mono,no,18,no,black,no,no,768,1142,3.5.6,legacy,xpyriment,osweb,1.3.13,0,space,space,space,,47650,109424,47650,,2,legacy,738,1366,24,768,24,0,0,1366,1645819478174,1024,2,48000,-16,experiment,prototype2.png,0,even,Win32,306,221476,218465,305,306,726179,727689,721176,222993,721176,306,,,,,,visual_patterns,0,0,0,yes,1366
undefined,undefined,undefined,undefined,white,no,Mozilla,Netscape,"5.0 (Windows NT 10.0; Win64; x64) AppleWebKit/537.36 (KHTML, like Gecko) Chrome/98.0.4758.102 Safari/537.36",xpyriment,legacy,legacy,0,uniform,0,0,0,0,24,24,24,0,0,70,70,70,70,70,0,70,0,,,,,,0,,25-01-22,25-01-22,21:03:50,Fri Feb 25 2022 21:03:50 GMT+0100 (közép-európai téli idő),The main experiment item,yes,0,0,C:/Users/rrics/Documents/!!ResearchBMECOGSCI/gnet,0,0,0,prototype5.png,no,mono,no,18,no,black,no,no,768,1142,3.5.6,legacy,xpyriment,osweb,1.3.13,0,space,space,space,,47650,109424,47650,,2,legacy,738,1366,24,768,24,0,0,1366,1645819478174,1024,2,48000,-16,experiment,p1sarrshacol1.png,0,even,Win32,306,221476,218465,305,306,732706,734216,727708,222993,727708,306,,,,,,visual_patterns,0,0,0,yes,1366
undefined,undefined,undefined,undefined,white,no,Mozilla,Netscape,"5.0 (Windows NT 10.0; Win64; x64) AppleWebKit/537.36 (KHTML, like Gecko) Chrome/98.0.4758.102 Safari/537.36",xpyriment,legacy,legacy,0,uniform,0,0,0,0,24,24,24,0,0,71,71,71,71,71,0,71,0,,,,,,0,,25-01-22,25-01-22,21:03:50,Fri Feb 25 2022 21:03:50 GMT+0100 (közép-európai téli idő),The main experiment item,yes,0,0,C:/Users/rrics/Documents/!!ResearchBMECOGSCI/gnet,0,0,0,prototype5.png,no,mono,no,18,no,black,no,no,768,1142,3.5.6,legacy,xpyriment,osweb,1.3.13,0,space,space,space,,47650,109424,47650,,2,legacy,738,1366,24,768,24,0,0,1366,1645819478174,1024,2,48000,-16,experiment,prototype1.png,0,even,Win32,306,221476,218465,305,306,739255,740759,734257,222993,734257,306,,,,,,visual_patterns,0,0,0,yes,1366
undefined,undefined,undefined,undefined,white,no,Mozilla,Netscape,"5.0 (Windows NT 10.0; Win64; x64) AppleWebKit/537.36 (KHTML, like Gecko) Chrome/98.0.4758.102 Safari/537.36",xpyriment,legacy,legacy,0,uniform,0,0,0,0,24,24,24,0,0,72,72,72,72,72,0,72,0,,,,,,0,,25-01-22,25-01-22,21:03:50,Fri Feb 25 2022 21:03:50 GMT+0100 (közép-európai téli idő),The main experiment item,yes,0,0,C:/Users/rrics/Documents/!!ResearchBMECOGSCI/gnet,0,0,0,prototype5.png,no,mono,no,18,no,black,no,no,768,1142,3.5.6,legacy,xpyriment,osweb,1.3.13,0,space,space,space,,47650,109424,47650,,2,legacy,738,1366,24,768,24,0,0,1366,1645819478174,1024,2,48000,-16,experiment,prototype5.png,0,even,Win32,306,221476,218465,305,306,745779,747286,740777,222993,740777,306,,,,,,visual_patterns,0,0,0,yes,1366
undefined,undefined,undefined,undefined,white,no,Mozilla,Netscape,"5.0 (Windows NT 10.0; Win64; x64) AppleWebKit/537.36 (KHTML, like Gecko) Chrome/98.0.4758.102 Safari/537.36",xpyriment,legacy,legacy,0,uniform,0,0,0,0,24,24,24,0,0,73,73,73,73,73,0,73,0,,,,,,0,,25-01-22,25-01-22,21:03:50,Fri Feb 25 2022 21:03:50 GMT+0100 (közép-európai téli idő),The main experiment item,yes,0,0,C:/Users/rrics/Documents/!!ResearchBMECOGSCI/gnet,0,0,0,prototype5.png,no,mono,no,18,no,black,no,no,768,1142,3.5.6,legacy,xpyriment,osweb,1.3.13,0,space,space,space,,47650,109424,47650,,2,legacy,738,1366,24,768,24,0,0,1366,1645819478174,1024,2,48000,-16,experiment,prototype3.png,0,even,Win32,306,221476,218465,305,306,752302,753813,747299,222993,747299,306,,,,,,visual_patterns,0,0,0,yes,1366
undefined,undefined,undefined,undefined,white,no,Mozilla,Netscape,"5.0 (Windows NT 10.0; Win64; x64) AppleWebKit/537.36 (KHTML, like Gecko) Chrome/98.0.4758.102 Safari/537.36",xpyriment,legacy,legacy,0,uniform,0,0,0,0,24,24,24,0,0,74,74,74,74,74,0,74,0,,,,,,0,,25-01-22,25-01-22,21:03:50,Fri Feb 25 2022 21:03:50 GMT+0100 (közép-európai téli idő),The main experiment item,yes,0,0,C:/Users/rrics/Documents/!!ResearchBMECOGSCI/gnet,0,0,0,prototype5.png,no,mono,no,18,no,black,no,no,768,1142,3.5.6,legacy,xpyriment,osweb,1.3.13,0,space,space,space,,47650,109424,47650,,2,legacy,738,1366,24,768,24,0,0,1366,1645819478174,1024,2,48000,-16,experiment,prototype2.png,0,even,Win32,306,221476,218465,305,306,758825,760340,753828,222993,753828,306,,,,,,visual_patterns,0,0,0,yes,1366
undefined,undefined,undefined,undefined,white,no,Mozilla,Netscape,"5.0 (Windows NT 10.0; Win64; x64) AppleWebKit/537.36 (KHTML, like Gecko) Chrome/98.0.4758.102 Safari/537.36",xpyriment,legacy,legacy,0,uniform,0,0,0,0,24,24,24,0,0,74,74,74,74,74,0,74,0,0,0,0,0,0,0,0,25-01-22,25-01-22,21:03:50,Fri Feb 25 2022 21:03:50 GMT+0100 (közép-európai téli idő),The main experiment item,yes,0,0,C:/Users/rrics/Documents/!!ResearchBMECOGSCI/gnet,0,0,0,prototype5.png,no,mono,no,18,no,black,no,no,768,1142,3.5.6,legacy,xpyriment,osweb,1.3.13,0,rshift,space,space,rshift,63555,109424,47650,63555,2,legacy,738,1366,24,768,24,0,0,1366,1645819478174,1024,2,48000,-16,experiment,p5sarrsha3.png,0,even,Win32,306,221476,218465,305,306,758825,760340,753828,222993,753828,306,826947,828456,823950,760343,823950,visual_patterns,0,0,0,yes,1366
undefined,undefined,undefined,undefined,white,no,Mozilla,Netscape,"5.0 (Windows NT 10.0; Win64; x64) AppleWebKit/537.36 (KHTML, like Gecko) Chrome/98.0.4758.102 Safari/537.36",xpyriment,legacy,legacy,0,uniform,0,0,0,0,24,24,24,0,0,74,74,74,74,74,0,74,0,1,1,1,1,1,0,1,25-01-22,25-01-22,21:03:50,Fri Feb 25 2022 21:03:50 GMT+0100 (közép-európai téli idő),The main experiment item,yes,0,0,C:/Users/rrics/Documents/!!ResearchBMECOGSCI/gnet,0,0,0,prototype5.png,no,mono,no,18,no,black,no,no,768,1142,3.5.6,legacy,xpyriment,osweb,1.3.13,0,rshift,space,space,rshift,63555,109424,47650,63555,2,legacy,738,1366,24,768,24,0,0,1366,1645819478174,1024,2,48000,-16,experiment,p2sarrshacol1.png,0,even,Win32,306,221476,218465,305,306,758825,760340,753828,222993,753828,306,831478,832985,828475,760343,828475,visual_patterns,0,0,0,yes,1366
undefined,undefined,undefined,undefined,white,no,Mozilla,Netscape,"5.0 (Windows NT 10.0; Win64; x64) AppleWebKit/537.36 (KHTML, like Gecko) Chrome/98.0.4758.102 Safari/537.36",xpyriment,legacy,legacy,0,uniform,0,0,0,0,24,24,24,0,0,74,74,74,74,74,0,74,0,2,2,2,2,2,0,2,25-01-22,25-01-22,21:03:50,Fri Feb 25 2022 21:03:50 GMT+0100 (közép-európai téli idő),The main experiment item,yes,0,0,C:/Users/rrics/Documents/!!ResearchBMECOGSCI/gnet,0,0,0,prototype5.png,no,mono,no,18,no,black,no,no,768,1142,3.5.6,legacy,xpyriment,osweb,1.3.13,0,rshift,space,space,rshift,63555,109424,47650,63555,2,legacy,738,1366,24,768,24,0,0,1366,1645819478174,1024,2,48000,-16,experiment,p4sarr4.png,0,even,Win32,306,221476,218465,305,306,758825,760340,753828,222993,753828,306,836005,837514,833008,760343,833008,visual_patterns,0,0,0,yes,1366
undefined,undefined,undefined,undefined,white,no,Mozilla,Netscape,"5.0 (Windows NT 10.0; Win64; x64) AppleWebKit/537.36 (KHTML, like Gecko) Chrome/98.0.4758.102 Safari/537.36",xpyriment,legacy,legacy,0,uniform,0,0,0,0,24,24,24,0,0,74,74,74,74,74,0,74,0,3,3,3,3,3,0,3,25-01-22,25-01-22,21:03:50,Fri Feb 25 2022 21:03:50 GMT+0100 (közép-európai téli idő),The main experiment item,yes,0,0,C:/Users/rrics/Documents/!!ResearchBMECOGSCI/gnet,0,0,0,prototype5.png,no,mono,no,18,no,black,no,no,768,1142,3.5.6,legacy,xpyriment,osweb,1.3.13,0,rshift,space,space,rshift,63555,109424,47650,63555,2,legacy,738,1366,24,768,24,0,0,1366,1645819478174,1024,2,48000,-16,experiment,p5sarrsha2.png,0,even,Win32,306,221476,218465,305,306,758825,760340,753828,222993,753828,306,840537,842042,837533,760343,837533,visual_patterns,0,0,0,yes,1366
undefined,undefined,undefined,undefined,white,no,Mozilla,Netscape,"5.0 (Windows NT 10.0; Win64; x64) AppleWebKit/537.36 (KHTML, like Gecko) Chrome/98.0.4758.102 Safari/537.36",xpyriment,legacy,legacy,0,uniform,0,0,0,0,24,24,24,0,0,74,74,74,74,74,0,74,0,4,4,4,4,4,0,4,25-01-22,25-01-22,21:03:50,Fri Feb 25 2022 21:03:50 GMT+0100 (közép-európai téli idő),The main experiment item,yes,0,0,C:/Users/rrics/Documents/!!ResearchBMECOGSCI/gnet,0,0,0,prototype5.png,no,mono,no,18,no,black,no,no,768,1142,3.5.6,legacy,xpyriment,osweb,1.3.13,0,rshift,space,space,rshift,63555,109424,47650,63555,2,legacy,738,1366,24,768,24,0,0,1366,1645819478174,1024,2,48000,-16,experiment,p7sarr2.png,0,even,Win32,306,221476,218465,305,306,758825,760340,753828,222993,753828,306,845061,846571,842062,760343,842062,visual_patterns,0,0,0,yes,1366
undefined,undefined,undefined,undefined,white,no,Mozilla,Netscape,"5.0 (Windows NT 10.0; Win64; x64) AppleWebKit/537.36 (KHTML, like Gecko) Chrome/98.0.4758.102 Safari/537.36",xpyriment,legacy,legacy,0,uniform,0,0,0,0,24,24,24,0,0,74,74,74,74,74,0,74,0,5,5,5,5,5,0,5,25-01-22,25-01-22,21:03:50,Fri Feb 25 2022 21:03:50 GMT+0100 (közép-európai téli idő),The main experiment item,yes,0,0,C:/Users/rrics/Documents/!!ResearchBMECOGSCI/gnet,0,0,0,prototype5.png,no,mono,no,18,no,black,no,no,768,1142,3.5.6,legacy,xpyriment,osweb,1.3.13,0,rshift,space,space,rshift,63555,109424,47650,63555,2,legacy,738,1366,24,768,24,0,0,1366,1645819478174,1024,2,48000,-16,experiment,p1sarrsha4.png,0,even,Win32,306,221476,218465,305,306,758825,760340,753828,222993,753828,306,849593,851100,846594,760343,846594,visual_patterns,0,0,0,yes,1366
undefined,undefined,undefined,undefined,white,no,Mozilla,Netscape,"5.0 (Windows NT 10.0; Win64; x64) AppleWebKit/537.36 (KHTML, like Gecko) Chrome/98.0.4758.102 Safari/537.36",xpyriment,legacy,legacy,0,uniform,0,0,0,0,24,24,24,0,0,74,74,74,74,74,0,74,0,6,6,6,6,6,0,6,25-01-22,25-01-22,21:03:50,Fri Feb 25 2022 21:03:50 GMT+0100 (közép-európai téli idő),The main experiment item,yes,0,0,C:/Users/rrics/Documents/!!ResearchBMECOGSCI/gnet,0,0,0,prototype5.png,no,mono,no,18,no,black,no,no,768,1142,3.5.6,legacy,xpyriment,osweb,1.3.13,0,rshift,space,space,rshift,63555,109424,47650,63555,2,legacy,738,1366,24,768,24,0,0,1366,1645819478174,1024,2,48000,-16,experiment,p3sarrcol2.png,0,even,Win32,306,221476,218465,305,306,758825,760340,753828,222993,753828,306,854140,855645,851140,760343,851140,visual_patterns,0,0,0,yes,1366
undefined,undefined,undefined,undefined,white,no,Mozilla,Netscape,"5.0 (Windows NT 10.0; Win64; x64) AppleWebKit/537.36 (KHTML, like Gecko) Chrome/98.0.4758.102 Safari/537.36",xpyriment,legacy,legacy,0,uniform,0,0,0,0,24,24,24,0,0,74,74,74,74,74,0,74,0,7,7,7,7,7,0,7,25-01-22,25-01-22,21:03:50,Fri Feb 25 2022 21:03:50 GMT+0100 (közép-európai téli idő),The main experiment item,yes,0,0,C:/Users/rrics/Documents/!!ResearchBMECOGSCI/gnet,0,0,0,prototype5.png,no,mono,no,18,no,black,no,no,768,1142,3.5.6,legacy,xpyriment,osweb,1.3.13,0,rshift,space,space,rshift,63555,109424,47650,63555,2,legacy,738,1366,24,768,24,0,0,1366,1645819478174,1024,2,48000,-16,experiment,p3sarrcol3.png,0,even,Win32,306,221476,218465,305,306,758825,760340,753828,222993,753828,306,858664,860174,855672,760343,855672,visual_patterns,0,0,0,yes,1366
undefined,undefined,undefined,undefined,white,no,Mozilla,Netscape,"5.0 (Windows NT 10.0; Win64; x64) AppleWebKit/537.36 (KHTML, like Gecko) Chrome/98.0.4758.102 Safari/537.36",xpyriment,legacy,legacy,0,uniform,0,0,0,0,24,24,24,0,0,74,74,74,74,74,0,74,0,8,8,8,8,8,0,8,25-01-22,25-01-22,21:03:50,Fri Feb 25 2022 21:03:50 GMT+0100 (közép-európai téli idő),The main experiment item,yes,0,0,C:/Users/rrics/Documents/!!ResearchBMECOGSCI/gnet,0,0,0,prototype5.png,no,mono,no,18,no,black,no,no,768,1142,3.5.6,legacy,xpyriment,osweb,1.3.13,0,rshift,space,space,rshift,63555,109424,47650,63555,2,legacy,738,1366,24,768,24,0,0,1366,1645819478174,1024,2,48000,-16,experiment,p1sarrsha1.png,0,even,Win32,306,221476,218465,305,306,758825,760340,753828,222993,753828,306,863196,864703,860195,760343,860195,visual_patterns,0,0,0,yes,1366
undefined,undefined,undefined,undefined,white,no,Mozilla,Netscape,"5.0 (Windows NT 10.0; Win64; x64) AppleWebKit/537.36 (KHTML, like Gecko) Chrome/98.0.4758.102 Safari/537.36",xpyriment,legacy,legacy,0,uniform,0,0,0,0,24,24,24,0,0,74,74,74,74,74,0,74,0,9,9,9,9,9,0,9,25-01-22,25-01-22,21:03:50,Fri Feb 25 2022 21:03:50 GMT+0100 (közép-európai téli idő),The main experiment item,yes,0,0,C:/Users/rrics/Documents/!!ResearchBMECOGSCI/gnet,0,0,0,prototype5.png,no,mono,no,18,no,black,no,no,768,1142,3.5.6,legacy,xpyriment,osweb,1.3.13,0,rshift,space,space,rshift,63555,109424,47650,63555,2,legacy,738,1366,24,768,24,0,0,1366,1645819478174,1024,2,48000,-16,experiment,p4sarr1.png,0,even,Win32,306,221476,218465,305,306,758825,760340,753828,222993,753828,306,867725,869232,864722,760343,864722,visual_patterns,0,0,0,yes,1366
undefined,undefined,undefined,undefined,white,no,Mozilla,Netscape,"5.0 (Windows NT 10.0; Win64; x64) AppleWebKit/537.36 (KHTML, like Gecko) Chrome/98.0.4758.102 Safari/537.36",xpyriment,legacy,legacy,0,uniform,0,0,0,0,24,24,24,0,0,74,74,74,74,74,0,74,0,10,10,10,10,10,0,10,25-01-22,25-01-22,21:03:50,Fri Feb 25 2022 21:03:50 GMT+0100 (közép-európai téli idő),The main experiment item,yes,0,0,C:/Users/rrics/Documents/!!ResearchBMECOGSCI/gnet,0,0,0,prototype5.png,no,mono,no,18,no,black,no,no,768,1142,3.5.6,legacy,xpyriment,osweb,1.3.13,0,rshift,space,space,rshift,63555,109424,47650,63555,2,legacy,738,1366,24,768,24,0,0,1366,1645819478174,1024,2,48000,-16,experiment,p9sarr2.png,0,even,Win32,306,221476,218465,305,306,758825,760340,753828,222993,753828,306,872252,873761,869256,760343,869256,visual_patterns,0,0,0,yes,1366
undefined,undefined,undefined,undefined,white,no,Mozilla,Netscape,"5.0 (Windows NT 10.0; Win64; x64) AppleWebKit/537.36 (KHTML, like Gecko) Chrome/98.0.4758.102 Safari/537.36",xpyriment,legacy,legacy,0,uniform,0,0,0,0,24,24,24,0,0,74,74,74,74,74,0,74,0,11,11,11,11,11,0,11,25-01-22,25-01-22,21:03:50,Fri Feb 25 2022 21:03:50 GMT+0100 (közép-európai téli idő),The main experiment item,yes,0,0,C:/Users/rrics/Documents/!!ResearchBMECOGSCI/gnet,0,0,0,prototype5.png,no,mono,no,18,no,black,no,no,768,1142,3.5.6,legacy,xpyriment,osweb,1.3.13,0,rshift,space,space,rshift,63555,109424,47650,63555,2,legacy,738,1366,24,768,24,0,0,1366,1645819478174,1024,2,48000,-16,experiment,p1sarr2.png,0,even,Win32,306,221476,218465,305,306,758825,760340,753828,222993,753828,306,876801,878306,873800,760343,873800,visual_patterns,0,0,0,yes,1366
undefined,undefined,undefined,undefined,white,no,Mozilla,Netscape,"5.0 (Windows NT 10.0; Win64; x64) AppleWebKit/537.36 (KHTML, like Gecko) Chrome/98.0.4758.102 Safari/537.36",xpyriment,legacy,legacy,0,uniform,0,0,0,0,24,24,24,0,0,74,74,74,74,74,0,74,0,12,12,12,12,12,0,12,25-01-22,25-01-22,21:03:50,Fri Feb 25 2022 21:03:50 GMT+0100 (közép-európai téli idő),The main experiment item,yes,0,0,C:/Users/rrics/Documents/!!ResearchBMECOGSCI/gnet,0,0,0,prototype5.png,no,mono,no,18,no,black,no,no,768,1142,3.5.6,legacy,xpyriment,osweb,1.3.13,0,rshift,space,space,rshift,63555,109424,47650,63555,2,legacy,738,1366,24,768,24,0,0,1366,1645819478174,1024,2,48000,-16,experiment,p3sarrcol4.png,0,even,Win32,306,221476,218465,305,306,758825,760340,753828,222993,753828,306,881324,882835,878328,760343,878328,visual_patterns,0,0,0,yes,1366
undefined,undefined,undefined,undefined,white,no,Mozilla,Netscape,"5.0 (Windows NT 10.0; Win64; x64) AppleWebKit/537.36 (KHTML, like Gecko) Chrome/98.0.4758.102 Safari/537.36",xpyriment,legacy,legacy,0,uniform,0,0,0,0,24,24,24,0,0,74,74,74,74,74,0,74,0,13,13,13,13,13,0,13,25-01-22,25-01-22,21:03:50,Fri Feb 25 2022 21:03:50 GMT+0100 (közép-európai téli idő),The main experiment item,yes,0,0,C:/Users/rrics/Documents/!!ResearchBMECOGSCI/gnet,0,0,0,prototype5.png,no,mono,no,18,no,black,no,no,768,1142,3.5.6,legacy,xpyriment,osweb,1.3.13,0,rshift,space,space,rshift,63555,109424,47650,63555,2,legacy,738,1366,24,768,24,0,0,1366,1645819478174,1024,2,48000,-16,experiment,p2sarrshacol2.png,0,even,Win32,306,221476,218465,305,306,758825,760340,753828,222993,753828,306,885856,887364,882855,760343,882855,visual_patterns,0,0,0,yes,1366
undefined,undefined,undefined,undefined,white,no,Mozilla,Netscape,"5.0 (Windows NT 10.0; Win64; x64) AppleWebKit/537.36 (KHTML, like Gecko) Chrome/98.0.4758.102 Safari/537.36",xpyriment,legacy,legacy,0,uniform,0,0,0,0,24,24,24,0,0,74,74,74,74,74,0,74,0,14,14,14,14,14,0,14,25-01-22,25-01-22,21:03:50,Fri Feb 25 2022 21:03:50 GMT+0100 (közép-európai téli idő),The main experiment item,yes,0,0,C:/Users/rrics/Documents/!!ResearchBMECOGSCI/gnet,0,0,0,prototype5.png,no,mono,no,18,no,black,no,no,768,1142,3.5.6,legacy,xpyriment,osweb,1.3.13,0,rshift,space,space,rshift,63555,109424,47650,63555,2,legacy,738,1366,24,768,24,0,0,1366,1645819478174,1024,2,48000,-16,experiment,p6sarr1.png,0,even,Win32,306,221476,218465,305,306,758825,760340,753828,222993,753828,306,890382,891893,887383,760343,887383,visual_patterns,0,0,0,yes,1366
undefined,undefined,undefined,undefined,white,no,Mozilla,Netscape,"5.0 (Windows NT 10.0; Win64; x64) AppleWebKit/537.36 (KHTML, like Gecko) Chrome/98.0.4758.102 Safari/537.36",xpyriment,legacy,legacy,0,uniform,0,0,0,0,24,24,24,0,0,74,74,74,74,74,0,74,0,15,15,15,15,15,0,15,25-01-22,25-01-22,21:03:50,Fri Feb 25 2022 21:03:50 GMT+0100 (közép-európai téli idő),The main experiment item,yes,0,0,C:/Users/rrics/Documents/!!ResearchBMECOGSCI/gnet,0,0,0,prototype5.png,no,mono,no,18,no,black,no,no,768,1142,3.5.6,legacy,xpyriment,osweb,1.3.13,0,rshift,space,space,rshift,63555,109424,47650,63555,2,legacy,738,1366,24,768,24,0,0,1366,1645819478174,1024,2,48000,-16,experiment,p4sarrshacol3.png,0,even,Win32,306,221476,218465,305,306,758825,760340,753828,222993,753828,306,894910,896423,891917,760343,891917,visual_patterns,0,0,0,yes,1366
undefined,undefined,undefined,undefined,white,no,Mozilla,Netscape,"5.0 (Windows NT 10.0; Win64; x64) AppleWebKit/537.36 (KHTML, like Gecko) Chrome/98.0.4758.102 Safari/537.36",xpyriment,legacy,legacy,0,uniform,0,0,0,0,24,24,24,0,0,74,74,74,74,74,0,74,0,16,16,16,16,16,0,16,25-01-22,25-01-22,21:03:50,Fri Feb 25 2022 21:03:50 GMT+0100 (közép-európai téli idő),The main experiment item,yes,0,0,C:/Users/rrics/Documents/!!ResearchBMECOGSCI/gnet,0,0,0,prototype5.png,no,mono,no,18,no,black,no,no,768,1142,3.5.6,legacy,xpyriment,osweb,1.3.13,0,rshift,space,space,rshift,63555,109424,47650,63555,2,legacy,738,1366,24,768,24,0,0,1366,1645819478174,1024,2,48000,-16,experiment,p4sarrshacol4.png,0,even,Win32,306,221476,218465,305,306,758825,760340,753828,222993,753828,306,899445,900951,896449,760343,896449,visual_patterns,0,0,0,yes,1366
undefined,undefined,undefined,undefined,white,no,Mozilla,Netscape,"5.0 (Windows NT 10.0; Win64; x64) AppleWebKit/537.36 (KHTML, like Gecko) Chrome/98.0.4758.102 Safari/537.36",xpyriment,legacy,legacy,0,uniform,0,0,0,0,24,24,24,0,0,74,74,74,74,74,0,74,0,17,17,17,17,17,0,17,25-01-22,25-01-22,21:03:50,Fri Feb 25 2022 21:03:50 GMT+0100 (közép-európai téli idő),The main experiment item,yes,0,0,C:/Users/rrics/Documents/!!ResearchBMECOGSCI/gnet,0,0,0,prototype5.png,no,mono,no,18,no,black,no,no,768,1142,3.5.6,legacy,xpyriment,osweb,1.3.13,0,rshift,space,space,rshift,63555,109424,47650,63555,2,legacy,738,1366,24,768,24,0,0,1366,1645819478174,1024,2,48000,-16,experiment,p2sarrcol1.png,0,even,Win32,306,221476,218465,305,306,758825,760340,753828,222993,753828,306,903969,905479,900979,760343,900979,visual_patterns,0,0,0,yes,1366
undefined,undefined,undefined,undefined,white,no,Mozilla,Netscape,"5.0 (Windows NT 10.0; Win64; x64) AppleWebKit/537.36 (KHTML, like Gecko) Chrome/98.0.4758.102 Safari/537.36",xpyriment,legacy,legacy,0,uniform,0,0,0,0,24,24,24,0,0,74,74,74,74,74,0,74,0,18,18,18,18,18,0,18,25-01-22,25-01-22,21:03:50,Fri Feb 25 2022 21:03:50 GMT+0100 (közép-európai téli idő),The main experiment item,yes,0,0,C:/Users/rrics/Documents/!!ResearchBMECOGSCI/gnet,0,0,0,prototype5.png,no,mono,no,18,no,black,no,no,768,1142,3.5.6,legacy,xpyriment,osweb,1.3.13,0,rshift,space,space,rshift,63555,109424,47650,63555,2,legacy,738,1366,24,768,24,0,0,1366,1645819478174,1024,2,48000,-16,experiment,p1sarr4.png,0,even,Win32,306,221476,218465,305,306,758825,760340,753828,222993,753828,306,908501,910008,905503,760343,905503,visual_patterns,0,0,0,yes,1366
undefined,undefined,undefined,undefined,white,no,Mozilla,Netscape,"5.0 (Windows NT 10.0; Win64; x64) AppleWebKit/537.36 (KHTML, like Gecko) Chrome/98.0.4758.102 Safari/537.36",xpyriment,legacy,legacy,0,uniform,0,0,0,0,24,24,24,0,0,74,74,74,74,74,0,74,0,19,19,19,19,19,0,19,25-01-22,25-01-22,21:03:50,Fri Feb 25 2022 21:03:50 GMT+0100 (közép-európai téli idő),The main experiment item,yes,0,0,C:/Users/rrics/Documents/!!ResearchBMECOGSCI/gnet,0,0,0,prototype5.png,no,mono,no,18,no,black,no,no,768,1142,3.5.6,legacy,xpyriment,osweb,1.3.13,0,rshift,space,space,rshift,63555,109424,47650,63555,2,legacy,738,1366,24,768,24,0,0,1366,1645819478174,1024,2,48000,-16,experiment,p10sarr1.png,0,even,Win32,306,221476,218465,305,306,758825,760340,753828,222993,753828,306,913028,914537,910028,760343,910028,visual_patterns,0,0,0,yes,1366
undefined,undefined,undefined,undefined,white,no,Mozilla,Netscape,"5.0 (Windows NT 10.0; Win64; x64) AppleWebKit/537.36 (KHTML, like Gecko) Chrome/98.0.4758.102 Safari/537.36",xpyriment,legacy,legacy,0,uniform,0,0,0,0,24,24,24,0,0,74,74,74,74,74,0,74,0,20,20,20,20,20,0,20,25-01-22,25-01-22,21:03:50,Fri Feb 25 2022 21:03:50 GMT+0100 (közép-európai téli idő),The main experiment item,yes,0,0,C:/Users/rrics/Documents/!!ResearchBMECOGSCI/gnet,0,0,0,prototype5.png,no,mono,no,18,no,black,no,no,768,1142,3.5.6,legacy,xpyriment,osweb,1.3.13,0,rshift,space,space,rshift,63555,109424,47650,63555,2,legacy,738,1366,24,768,24,0,0,1366,1645819478174,1024,2,48000,-16,experiment,p8sarr3.png,0,even,Win32,306,221476,218465,305,306,758825,760340,753828,222993,753828,306,917556,919066,914557,760343,914557,visual_patterns,0,0,0,yes,1366
undefined,undefined,undefined,undefined,white,no,Mozilla,Netscape,"5.0 (Windows NT 10.0; Win64; x64) AppleWebKit/537.36 (KHTML, like Gecko) Chrome/98.0.4758.102 Safari/537.36",xpyriment,legacy,legacy,0,uniform,0,0,0,0,24,24,24,0,0,74,74,74,74,74,0,74,0,21,21,21,21,21,0,21,25-01-22,25-01-22,21:03:50,Fri Feb 25 2022 21:03:50 GMT+0100 (közép-európai téli idő),The main experiment item,yes,0,0,C:/Users/rrics/Documents/!!ResearchBMECOGSCI/gnet,0,0,0,prototype5.png,no,mono,no,18,no,black,no,no,768,1142,3.5.6,legacy,xpyriment,osweb,1.3.13,0,rshift,space,space,rshift,63555,109424,47650,63555,2,legacy,738,1366,24,768,24,0,0,1366,1645819478174,1024,2,48000,-16,experiment,p9sarr4.png,0,even,Win32,306,221476,218465,305,306,758825,760340,753828,222993,753828,306,922107,923612,919109,760343,919108,visual_patterns,0,0,0,yes,1366
undefined,undefined,undefined,undefined,white,no,Mozilla,Netscape,"5.0 (Windows NT 10.0; Win64; x64) AppleWebKit/537.36 (KHTML, like Gecko) Chrome/98.0.4758.102 Safari/537.36",xpyriment,legacy,legacy,0,uniform,0,0,0,0,24,24,24,0,0,74,74,74,74,74,0,74,0,22,22,22,22,22,0,22,25-01-22,25-01-22,21:03:50,Fri Feb 25 2022 21:03:50 GMT+0100 (közép-európai téli idő),The main experiment item,yes,0,0,C:/Users/rrics/Documents/!!ResearchBMECOGSCI/gnet,0,0,0,prototype5.png,no,mono,no,18,no,black,no,no,768,1142,3.5.6,legacy,xpyriment,osweb,1.3.13,0,rshift,space,space,rshift,63555,109424,47650,63555,2,legacy,738,1366,24,768,24,0,0,1366,1645819478174,1024,2,48000,-16,experiment,p5sarrcol2.png,0,even,Win32,306,221476,218465,305,306,758825,760340,753828,222993,753828,306,926629,928141,923630,760343,923630,visual_patterns,0,0,0,yes,1366
undefined,undefined,undefined,undefined,white,no,Mozilla,Netscape,"5.0 (Windows NT 10.0; Win64; x64) AppleWebKit/537.36 (KHTML, like Gecko) Chrome/98.0.4758.102 Safari/537.36",xpyriment,legacy,legacy,0,uniform,0,0,0,0,24,24,24,0,0,74,74,74,74,74,0,74,0,23,23,23,23,23,0,23,25-01-22,25-01-22,21:03:50,Fri Feb 25 2022 21:03:50 GMT+0100 (közép-európai téli idő),The main experiment item,yes,0,0,C:/Users/rrics/Documents/!!ResearchBMECOGSCI/gnet,0,0,0,prototype5.png,no,mono,no,18,no,black,no,no,768,1142,3.5.6,legacy,xpyriment,osweb,1.3.13,0,rshift,space,space,rshift,63555,109424,47650,63555,2,legacy,738,1366,24,768,24,0,0,1366,1645819478174,1024,2,48000,-16,experiment,p7sarr4.png,0,even,Win32,306,221476,218465,305,306,758825,760340,753828,222993,753828,306,931162,932669,928163,760343,928163,visual_patterns,0,0,0,yes,1366
undefined,undefined,undefined,undefined,white,no,Mozilla,Netscape,"5.0 (Windows NT 10.0; Win64; x64) AppleWebKit/537.36 (KHTML, like Gecko) Chrome/98.0.4758.102 Safari/537.36",xpyriment,legacy,legacy,0,uniform,0,0,0,0,24,24,24,0,0,74,74,74,74,74,0,74,0,24,24,24,24,24,0,24,25-01-22,25-01-22,21:03:50,Fri Feb 25 2022 21:03:50 GMT+0100 (közép-európai téli idő),The main experiment item,yes,0,0,C:/Users/rrics/Documents/!!ResearchBMECOGSCI/gnet,0,0,0,prototype5.png,no,mono,no,18,no,black,no,no,768,1142,3.5.6,legacy,xpyriment,osweb,1.3.13,0,rshift,space,space,rshift,63555,109424,47650,63555,2,legacy,738,1366,24,768,24,0,0,1366,1645819478174,1024,2,48000,-16,experiment,p3sarrsha3.png,0,even,Win32,306,221476,218465,305,306,758825,760340,753828,222993,753828,306,935690,937198,932691,760343,932691,visual_patterns,0,0,0,yes,1366
undefined,undefined,undefined,undefined,white,no,Mozilla,Netscape,"5.0 (Windows NT 10.0; Win64; x64) AppleWebKit/537.36 (KHTML, like Gecko) Chrome/98.0.4758.102 Safari/537.36",xpyriment,legacy,legacy,0,uniform,0,0,0,0,24,24,24,0,0,74,74,74,74,74,0,74,0,25,25,25,25,25,0,25,25-01-22,25-01-22,21:03:50,Fri Feb 25 2022 21:03:50 GMT+0100 (közép-európai téli idő),The main experiment item,yes,0,0,C:/Users/rrics/Documents/!!ResearchBMECOGSCI/gnet,0,0,0,prototype5.png,no,mono,no,18,no,black,no,no,768,1142,3.5.6,legacy,xpyriment,osweb,1.3.13,0,rshift,space,space,rshift,63555,109424,47650,63555,2,legacy,738,1366,24,768,24,0,0,1366,1645819478174,1024,2,48000,-16,experiment,p8sarr4.png,0,even,Win32,306,221476,218465,305,306,758825,760340,753828,222993,753828,306,940219,941727,937222,760343,937222,visual_patterns,0,0,0,yes,1366
undefined,undefined,undefined,undefined,white,no,Mozilla,Netscape,"5.0 (Windows NT 10.0; Win64; x64) AppleWebKit/537.36 (KHTML, like Gecko) Chrome/98.0.4758.102 Safari/537.36",xpyriment,legacy,legacy,0,uniform,0,0,0,0,24,24,24,0,0,74,74,74,74,74,0,74,0,26,26,26,26,26,0,26,25-01-22,25-01-22,21:03:50,Fri Feb 25 2022 21:03:50 GMT+0100 (közép-európai téli idő),The main experiment item,yes,0,0,C:/Users/rrics/Documents/!!ResearchBMECOGSCI/gnet,0,0,0,prototype5.png,no,mono,no,18,no,black,no,no,768,1142,3.5.6,legacy,xpyriment,osweb,1.3.13,0,rshift,space,space,rshift,63555,109424,47650,63555,2,legacy,738,1366,24,768,24,0,0,1366,1645819478174,1024,2,48000,-16,experiment,p2sarrshacol4.png,0,even,Win32,306,221476,218465,305,306,758825,760340,753828,222993,753828,306,944747,946256,941761,760343,941761,visual_patterns,0,0,0,yes,1366
undefined,undefined,undefined,undefined,white,no,Mozilla,Netscape,"5.0 (Windows NT 10.0; Win64; x64) AppleWebKit/537.36 (KHTML, like Gecko) Chrome/98.0.4758.102 Safari/537.36",xpyriment,legacy,legacy,0,uniform,0,0,0,0,24,24,24,0,0,74,74,74,74,74,0,74,0,27,27,27,27,27,0,27,25-01-22,25-01-22,21:03:50,Fri Feb 25 2022 21:03:50 GMT+0100 (közép-európai téli idő),The main experiment item,yes,0,0,C:/Users/rrics/Documents/!!ResearchBMECOGSCI/gnet,0,0,0,prototype5.png,no,mono,no,18,no,black,no,no,768,1142,3.5.6,legacy,xpyriment,osweb,1.3.13,0,rshift,space,space,rshift,63555,109424,47650,63555,2,legacy,738,1366,24,768,24,0,0,1366,1645819478174,1024,2,48000,-16,experiment,p4sarrshacol1.png,0,even,Win32,306,221476,218465,305,306,758825,760340,753828,222993,753828,306,949275,950784,946276,760343,946275,visual_patterns,0,0,0,yes,1366
undefined,undefined,undefined,undefined,white,no,Mozilla,Netscape,"5.0 (Windows NT 10.0; Win64; x64) AppleWebKit/537.36 (KHTML, like Gecko) Chrome/98.0.4758.102 Safari/537.36",xpyriment,legacy,legacy,0,uniform,0,0,0,0,24,24,24,0,0,74,74,74,74,74,0,74,0,28,28,28,28,28,0,28,25-01-22,25-01-22,21:03:50,Fri Feb 25 2022 21:03:50 GMT+0100 (közép-európai téli idő),The main experiment item,yes,0,0,C:/Users/rrics/Documents/!!ResearchBMECOGSCI/gnet,0,0,0,prototype5.png,no,mono,no,18,no,black,no,no,768,1142,3.5.6,legacy,xpyriment,osweb,1.3.13,0,rshift,space,space,rshift,63555,109424,47650,63555,2,legacy,738,1366,24,768,24,0,0,1366,1645819478174,1024,2,48000,-16,experiment,p1sarrshacol3.png,0,even,Win32,306,221476,218465,305,306,758825,760340,753828,222993,753828,306,953801,955313,950807,760343,950807,visual_patterns,0,0,0,yes,1366
undefined,undefined,undefined,undefined,white,no,Mozilla,Netscape,"5.0 (Windows NT 10.0; Win64; x64) AppleWebKit/537.36 (KHTML, like Gecko) Chrome/98.0.4758.102 Safari/537.36",xpyriment,legacy,legacy,0,uniform,0,0,0,0,24,24,24,0,0,74,74,74,74,74,0,74,0,29,29,29,29,29,0,29,25-01-22,25-01-22,21:03:50,Fri Feb 25 2022 21:03:50 GMT+0100 (közép-európai téli idő),The main experiment item,yes,0,0,C:/Users/rrics/Documents/!!ResearchBMECOGSCI/gnet,0,0,0,prototype5.png,no,mono,no,18,no,black,no,no,768,1142,3.5.6,legacy,xpyriment,osweb,1.3.13,0,rshift,space,space,rshift,63555,109424,47650,63555,2,legacy,738,1366,24,768,24,0,0,1366,1645819478174,1024,2,48000,-16,experiment,p2sarrsha1.png,0,even,Win32,306,221476,218465,305,306,758825,760340,753828,222993,753828,306,958332,959842,955332,760343,955332,visual_patterns,0,0,0,yes,1366
undefined,undefined,undefined,undefined,white,no,Mozilla,Netscape,"5.0 (Windows NT 10.0; Win64; x64) AppleWebKit/537.36 (KHTML, like Gecko) Chrome/98.0.4758.102 Safari/537.36",xpyriment,legacy,legacy,0,uniform,0,0,0,0,24,24,24,0,0,74,74,74,74,74,0,74,0,30,30,30,30,30,0,30,25-01-22,25-01-22,21:03:50,Fri Feb 25 2022 21:03:50 GMT+0100 (közép-európai téli idő),The main experiment item,yes,0,0,C:/Users/rrics/Documents/!!ResearchBMECOGSCI/gnet,0,0,0,prototype5.png,no,mono,no,18,no,black,no,no,768,1142,3.5.6,legacy,xpyriment,osweb,1.3.13,0,rshift,space,space,rshift,63555,109424,47650,63555,2,legacy,738,1366,24,768,24,0,0,1366,1645819478174,1024,2,48000,-16,experiment,p3sarr2.png,0,even,Win32,306,221476,218465,305,306,758825,760340,753828,222993,753828,306,962863,964371,959864,760343,959864,visual_patterns,0,0,0,yes,1366
undefined,undefined,undefined,undefined,white,no,Mozilla,Netscape,"5.0 (Windows NT 10.0; Win64; x64) AppleWebKit/537.36 (KHTML, like Gecko) Chrome/98.0.4758.102 Safari/537.36",xpyriment,legacy,legacy,0,uniform,0,0,0,0,24,24,24,0,0,74,74,74,74,74,0,74,0,31,31,31,31,31,0,31,25-01-22,25-01-22,21:03:50,Fri Feb 25 2022 21:03:50 GMT+0100 (közép-európai téli idő),The main experiment item,yes,0,0,C:/Users/rrics/Documents/!!ResearchBMECOGSCI/gnet,0,0,0,prototype5.png,no,mono,no,18,no,black,no,no,768,1142,3.5.6,legacy,xpyriment,osweb,1.3.13,0,rshift,space,space,rshift,63555,109424,47650,63555,2,legacy,738,1366,24,768,24,0,0,1366,1645819478174,1024,2,48000,-16,experiment,p3sarrshacol3.png,0,even,Win32,306,221476,218465,305,306,758825,760340,753828,222993,753828,306,967411,968916,964412,760343,964412,visual_patterns,0,0,0,yes,1366
undefined,undefined,undefined,undefined,white,no,Mozilla,Netscape,"5.0 (Windows NT 10.0; Win64; x64) AppleWebKit/537.36 (KHTML, like Gecko) Chrome/98.0.4758.102 Safari/537.36",xpyriment,legacy,legacy,0,uniform,0,0,0,0,24,24,24,0,0,74,74,74,74,74,0,74,0,32,32,32,32,32,0,32,25-01-22,25-01-22,21:03:50,Fri Feb 25 2022 21:03:50 GMT+0100 (közép-európai téli idő),The main experiment item,yes,0,0,C:/Users/rrics/Documents/!!ResearchBMECOGSCI/gnet,0,0,0,prototype5.png,no,mono,no,18,no,black,no,no,768,1142,3.5.6,legacy,xpyriment,osweb,1.3.13,0,rshift,space,space,rshift,63555,109424,47650,63555,2,legacy,738,1366,24,768,24,0,0,1366,1645819478174,1024,2,48000,-16,experiment,p2sarrcol4.png,0,even,Win32,306,221476,218465,305,306,758825,760340,753828,222993,753828,306,971931,973445,968936,760343,968936,visual_patterns,0,0,0,yes,1366
undefined,undefined,undefined,undefined,white,no,Mozilla,Netscape,"5.0 (Windows NT 10.0; Win64; x64) AppleWebKit/537.36 (KHTML, like Gecko) Chrome/98.0.4758.102 Safari/537.36",xpyriment,legacy,legacy,0,uniform,0,0,0,0,24,24,24,0,0,74,74,74,74,74,0,74,0,33,33,33,33,33,0,33,25-01-22,25-01-22,21:03:50,Fri Feb 25 2022 21:03:50 GMT+0100 (közép-európai téli idő),The main experiment item,yes,0,0,C:/Users/rrics/Documents/!!ResearchBMECOGSCI/gnet,0,0,0,prototype5.png,no,mono,no,18,no,black,no,no,768,1142,3.5.6,legacy,xpyriment,osweb,1.3.13,0,rshift,space,space,rshift,63555,109424,47650,63555,2,legacy,738,1366,24,768,24,0,0,1366,1645819478174,1024,2,48000,-16,experiment,p5sarrcol1.png,0,even,Win32,306,221476,218465,305,306,758825,760340,753828,222993,753828,306,976460,977975,973469,760343,973468,visual_patterns,0,0,0,yes,1366
undefined,undefined,undefined,undefined,white,no,Mozilla,Netscape,"5.0 (Windows NT 10.0; Win64; x64) AppleWebKit/537.36 (KHTML, like Gecko) Chrome/98.0.4758.102 Safari/537.36",xpyriment,legacy,legacy,0,uniform,0,0,0,0,24,24,24,0,0,74,74,74,74,74,0,74,0,34,34,34,34,34,0,34,25-01-22,25-01-22,21:03:50,Fri Feb 25 2022 21:03:50 GMT+0100 (közép-európai téli idő),The main experiment item,yes,0,0,C:/Users/rrics/Documents/!!ResearchBMECOGSCI/gnet,0,0,0,prototype5.png,no,mono,no,18,no,black,no,no,768,1142,3.5.6,legacy,xpyriment,osweb,1.3.13,0,rshift,space,space,rshift,63555,109424,47650,63555,2,legacy,738,1366,24,768,24,0,0,1366,1645819478174,1024,2,48000,-16,experiment,p8sarr2.png,0,even,Win32,306,221476,218465,305,306,758825,760340,753828,222993,753828,306,980991,982503,977992,760343,977992,visual_patterns,0,0,0,yes,1366
undefined,undefined,undefined,undefined,white,no,Mozilla,Netscape,"5.0 (Windows NT 10.0; Win64; x64) AppleWebKit/537.36 (KHTML, like Gecko) Chrome/98.0.4758.102 Safari/537.36",xpyriment,legacy,legacy,0,uniform,0,0,0,0,24,24,24,0,0,74,74,74,74,74,0,74,0,35,35,35,35,35,0,35,25-01-22,25-01-22,21:03:50,Fri Feb 25 2022 21:03:50 GMT+0100 (közép-európai téli idő),The main experiment item,yes,0,0,C:/Users/rrics/Documents/!!ResearchBMECOGSCI/gnet,0,0,0,prototype5.png,no,mono,no,18,no,black,no,no,768,1142,3.5.6,legacy,xpyriment,osweb,1.3.13,0,rshift,space,space,rshift,63555,109424,47650,63555,2,legacy,738,1366,24,768,24,0,0,1366,1645819478174,1024,2,48000,-16,experiment,p5sarr3.png,0,even,Win32,306,221476,218465,305,306,758825,760340,753828,222993,753828,306,985523,987031,982525,760343,982525,visual_patterns,0,0,0,yes,1366
undefined,undefined,undefined,undefined,white,no,Mozilla,Netscape,"5.0 (Windows NT 10.0; Win64; x64) AppleWebKit/537.36 (KHTML, like Gecko) Chrome/98.0.4758.102 Safari/537.36",xpyriment,legacy,legacy,0,uniform,0,0,0,0,24,24,24,0,0,74,74,74,74,74,0,74,0,36,36,36,36,36,0,36,25-01-22,25-01-22,21:03:50,Fri Feb 25 2022 21:03:50 GMT+0100 (közép-európai téli idő),The main experiment item,yes,0,0,C:/Users/rrics/Documents/!!ResearchBMECOGSCI/gnet,0,0,0,prototype5.png,no,mono,no,18,no,black,no,no,768,1142,3.5.6,legacy,xpyriment,osweb,1.3.13,0,rshift,space,space,rshift,63555,109424,47650,63555,2,legacy,738,1366,24,768,24,0,0,1366,1645819478174,1024,2,48000,-16,experiment,p7sarr1.png,0,even,Win32,306,221476,218465,305,306,758825,760340,753828,222993,753828,306,990054,991561,987055,760343,987055,visual_patterns,0,0,0,yes,1366
undefined,undefined,undefined,undefined,white,no,Mozilla,Netscape,"5.0 (Windows NT 10.0; Win64; x64) AppleWebKit/537.36 (KHTML, like Gecko) Chrome/98.0.4758.102 Safari/537.36",xpyriment,legacy,legacy,0,uniform,0,0,0,0,24,24,24,0,0,74,74,74,74,74,0,74,0,37,37,37,37,37,0,37,25-01-22,25-01-22,21:03:50,Fri Feb 25 2022 21:03:50 GMT+0100 (közép-európai téli idő),The main experiment item,yes,0,0,C:/Users/rrics/Documents/!!ResearchBMECOGSCI/gnet,0,0,0,prototype5.png,no,mono,no,18,no,black,no,no,768,1142,3.5.6,legacy,xpyriment,osweb,1.3.13,0,rshift,space,space,rshift,63555,109424,47650,63555,2,legacy,738,1366,24,768,24,0,0,1366,1645819478174,1024,2,48000,-16,experiment,p1sarrcol4.png,0,even,Win32,306,221476,218465,305,306,758825,760340,753828,222993,753828,306,994579,996089,991582,760343,991581,visual_patterns,0,0,0,yes,1366
undefined,undefined,undefined,undefined,white,no,Mozilla,Netscape,"5.0 (Windows NT 10.0; Win64; x64) AppleWebKit/537.36 (KHTML, like Gecko) Chrome/98.0.4758.102 Safari/537.36",xpyriment,legacy,legacy,0,uniform,0,0,0,0,24,24,24,0,0,74,74,74,74,74,0,74,0,38,38,38,38,38,0,38,25-01-22,25-01-22,21:03:50,Fri Feb 25 2022 21:03:50 GMT+0100 (közép-európai téli idő),The main experiment item,yes,0,0,C:/Users/rrics/Documents/!!ResearchBMECOGSCI/gnet,0,0,0,prototype5.png,no,mono,no,18,no,black,no,no,768,1142,3.5.6,legacy,xpyriment,osweb,1.3.13,0,rshift,space,space,rshift,63555,109424,47650,63555,2,legacy,738,1366,24,768,24,0,0,1366,1645819478174,1024,2,48000,-16,experiment,p3sarrsha4.png,0,even,Win32,306,221476,218465,305,306,758825,760340,753828,222993,753828,306,999107,1000618,996125,760343,996125,visual_patterns,0,0,0,yes,1366
undefined,undefined,undefined,undefined,white,no,Mozilla,Netscape,"5.0 (Windows NT 10.0; Win64; x64) AppleWebKit/537.36 (KHTML, like Gecko) Chrome/98.0.4758.102 Safari/537.36",xpyriment,legacy,legacy,0,uniform,0,0,0,0,24,24,24,0,0,74,74,74,74,74,0,74,0,39,39,39,39,39,0,39,25-01-22,25-01-22,21:03:50,Fri Feb 25 2022 21:03:50 GMT+0100 (közép-európai téli idő),The main experiment item,yes,0,0,C:/Users/rrics/Documents/!!ResearchBMECOGSCI/gnet,0,0,0,prototype5.png,no,mono,no,18,no,black,no,no,768,1142,3.5.6,legacy,xpyriment,osweb,1.3.13,0,rshift,space,space,rshift,63555,109424,47650,63555,2,legacy,738,1366,24,768,24,0,0,1366,1645819478174,1024,2,48000,-16,experiment,p3sarr1.png,0,even,Win32,306,221476,218465,305,306,758825,760340,753828,222993,753828,306,1003639,1005148,1000638,760343,1000638,visual_patterns,0,0,0,yes,1366
undefined,undefined,undefined,undefined,white,no,Mozilla,Netscape,"5.0 (Windows NT 10.0; Win64; x64) AppleWebKit/537.36 (KHTML, like Gecko) Chrome/98.0.4758.102 Safari/537.36",xpyriment,legacy,legacy,0,uniform,0,0,0,0,24,24,24,0,0,74,74,74,74,74,0,74,0,40,40,40,40,40,0,40,25-01-22,25-01-22,21:03:50,Fri Feb 25 2022 21:03:50 GMT+0100 (közép-európai téli idő),The main experiment item,yes,0,0,C:/Users/rrics/Documents/!!ResearchBMECOGSCI/gnet,0,0,0,prototype5.png,no,mono,no,18,no,black,no,no,768,1142,3.5.6,legacy,xpyriment,osweb,1.3.13,0,rshift,space,space,rshift,63555,109424,47650,63555,2,legacy,738,1366,24,768,24,0,0,1366,1645819478174,1024,2,48000,-16,experiment,p2sarrsha3.png,0,even,Win32,306,221476,218465,305,306,758825,760340,753828,222993,753828,306,1008167,1009676,1005171,760343,1005171,visual_patterns,0,0,0,yes,1366
undefined,undefined,undefined,undefined,white,no,Mozilla,Netscape,"5.0 (Windows NT 10.0; Win64; x64) AppleWebKit/537.36 (KHTML, like Gecko) Chrome/98.0.4758.102 Safari/537.36",xpyriment,legacy,legacy,0,uniform,0,0,0,0,24,24,24,0,0,74,74,74,74,74,0,74,0,41,41,41,41,41,0,41,25-01-22,25-01-22,21:03:50,Fri Feb 25 2022 21:03:50 GMT+0100 (közép-európai téli idő),The main experiment item,yes,0,0,C:/Users/rrics/Documents/!!ResearchBMECOGSCI/gnet,0,0,0,prototype5.png,no,mono,no,18,no,black,no,no,768,1142,3.5.6,legacy,xpyriment,osweb,1.3.13,0,rshift,space,space,rshift,63555,109424,47650,63555,2,legacy,738,1366,24,768,24,0,0,1366,1645819478174,1024,2,48000,-16,experiment,p9sarr3.png,0,even,Win32,306,221476,218465,305,306,758825,760340,753828,222993,753828,306,1012729,1014238,1009733,760343,1009733,visual_patterns,0,0,0,yes,1366
undefined,undefined,undefined,undefined,white,no,Mozilla,Netscape,"5.0 (Windows NT 10.0; Win64; x64) AppleWebKit/537.36 (KHTML, like Gecko) Chrome/98.0.4758.102 Safari/537.36",xpyriment,legacy,legacy,0,uniform,0,0,0,0,24,24,24,0,0,74,74,74,74,74,0,74,0,42,42,42,42,42,0,42,25-01-22,25-01-22,21:03:50,Fri Feb 25 2022 21:03:50 GMT+0100 (közép-európai téli idő),The main experiment item,yes,0,0,C:/Users/rrics/Documents/!!ResearchBMECOGSCI/gnet,0,0,0,prototype5.png,no,mono,no,18,no,black,no,no,768,1142,3.5.6,legacy,xpyriment,osweb,1.3.13,0,rshift,space,space,rshift,63555,109424,47650,63555,2,legacy,738,1366,24,768,24,0,0,1366,1645819478174,1024,2,48000,-16,experiment,p10sarr4.png,0,even,Win32,306,221476,218465,305,306,758825,760340,753828,222993,753828,306,1017257,1018767,1014261,760343,1014261,visual_patterns,0,0,0,yes,1366
undefined,undefined,undefined,undefined,white,no,Mozilla,Netscape,"5.0 (Windows NT 10.0; Win64; x64) AppleWebKit/537.36 (KHTML, like Gecko) Chrome/98.0.4758.102 Safari/537.36",xpyriment,legacy,legacy,0,uniform,0,0,0,0,24,24,24,0,0,74,74,74,74,74,0,74,0,43,43,43,43,43,0,43,25-01-22,25-01-22,21:03:50,Fri Feb 25 2022 21:03:50 GMT+0100 (közép-európai téli idő),The main experiment item,yes,0,0,C:/Users/rrics/Documents/!!ResearchBMECOGSCI/gnet,0,0,0,prototype5.png,no,mono,no,18,no,black,no,no,768,1142,3.5.6,legacy,xpyriment,osweb,1.3.13,0,rshift,space,space,rshift,63555,109424,47650,63555,2,legacy,738,1366,24,768,24,0,0,1366,1645819478174,1024,2,48000,-16,experiment,p4sarrcol1.png,0,even,Win32,306,221476,218465,305,306,758825,760340,753828,222993,753828,306,1021783,1023296,1018789,760343,1018789,visual_patterns,0,0,0,yes,1366
undefined,undefined,undefined,undefined,white,no,Mozilla,Netscape,"5.0 (Windows NT 10.0; Win64; x64) AppleWebKit/537.36 (KHTML, like Gecko) Chrome/98.0.4758.102 Safari/537.36",xpyriment,legacy,legacy,0,uniform,0,0,0,0,24,24,24,0,0,74,74,74,74,74,0,74,0,44,44,44,44,44,0,44,25-01-22,25-01-22,21:03:50,Fri Feb 25 2022 21:03:50 GMT+0100 (közép-európai téli idő),The main experiment item,yes,0,0,C:/Users/rrics/Documents/!!ResearchBMECOGSCI/gnet,0,0,0,prototype5.png,no,mono,no,18,no,black,no,no,768,1142,3.5.6,legacy,xpyriment,osweb,1.3.13,0,rshift,space,space,rshift,63555,109424,47650,63555,2,legacy,738,1366,24,768,24,0,0,1366,1645819478174,1024,2,48000,-16,experiment,p5sarrshacol4.png,0,even,Win32,306,221476,218465,305,306,758825,760340,753828,222993,753828,306,1026317,1027826,1023322,760343,1023322,visual_patterns,0,0,0,yes,1366
undefined,undefined,undefined,undefined,white,no,Mozilla,Netscape,"5.0 (Windows NT 10.0; Win64; x64) AppleWebKit/537.36 (KHTML, like Gecko) Chrome/98.0.4758.102 Safari/537.36",xpyriment,legacy,legacy,0,uniform,0,0,0,0,24,24,24,0,0,74,74,74,74,74,0,74,0,45,45,45,45,45,0,45,25-01-22,25-01-22,21:03:50,Fri Feb 25 2022 21:03:50 GMT+0100 (közép-európai téli idő),The main experiment item,yes,0,0,C:/Users/rrics/Documents/!!ResearchBMECOGSCI/gnet,0,0,0,prototype5.png,no,mono,no,18,no,black,no,no,768,1142,3.5.6,legacy,xpyriment,osweb,1.3.13,0,rshift,space,space,rshift,63555,109424,47650,63555,2,legacy,738,1366,24,768,24,0,0,1366,1645819478174,1024,2,48000,-16,experiment,p3sarr3.png,0,even,Win32,306,221476,218465,305,306,758825,760340,753828,222993,753828,306,1030846,1032353,1027852,760343,1027852,visual_patterns,0,0,0,yes,1366
undefined,undefined,undefined,undefined,white,no,Mozilla,Netscape,"5.0 (Windows NT 10.0; Win64; x64) AppleWebKit/537.36 (KHTML, like Gecko) Chrome/98.0.4758.102 Safari/537.36",xpyriment,legacy,legacy,0,uniform,0,0,0,0,24,24,24,0,0,74,74,74,74,74,0,74,0,46,46,46,46,46,0,46,25-01-22,25-01-22,21:03:50,Fri Feb 25 2022 21:03:50 GMT+0100 (közép-európai téli idő),The main experiment item,yes,0,0,C:/Users/rrics/Documents/!!ResearchBMECOGSCI/gnet,0,0,0,prototype5.png,no,mono,no,18,no,black,no,no,768,1142,3.5.6,legacy,xpyriment,osweb,1.3.13,0,rshift,space,space,rshift,63555,109424,47650,63555,2,legacy,738,1366,24,768,24,0,0,1366,1645819478174,1024,2,48000,-16,experiment,p2sarr3.png,0,even,Win32,306,221476,218465,305,306,758825,760340,753828,222993,753828,306,1035397,1036899,1032400,760343,1032400,visual_patterns,0,0,0,yes,1366
undefined,undefined,undefined,undefined,white,no,Mozilla,Netscape,"5.0 (Windows NT 10.0; Win64; x64) AppleWebKit/537.36 (KHTML, like Gecko) Chrome/98.0.4758.102 Safari/537.36",xpyriment,legacy,legacy,0,uniform,0,0,0,0,24,24,24,0,0,74,74,74,74,74,0,74,0,47,47,47,47,47,0,47,25-01-22,25-01-22,21:03:50,Fri Feb 25 2022 21:03:50 GMT+0100 (közép-európai téli idő),The main experiment item,yes,0,0,C:/Users/rrics/Documents/!!ResearchBMECOGSCI/gnet,0,0,0,prototype5.png,no,mono,no,18,no,black,no,no,768,1142,3.5.6,legacy,xpyriment,osweb,1.3.13,0,rshift,space,space,rshift,63555,109424,47650,63555,2,legacy,738,1366,24,768,24,0,0,1366,1645819478174,1024,2,48000,-16,experiment,p4sarr2.png,0,even,Win32,306,221476,218465,305,306,758825,760340,753828,222993,753828,306,1039915,1041427,1036918,760343,1036918,visual_patterns,0,0,0,yes,1366
