acc,accuracy,average_response_time,avg_rt,background,bidi,browser_codename,browser_name,browser_version,canvas_backend,clock_backend,color_backend,compensation,coordinates,count_end,count_experiment,count_osweb,count_prestudy,count_prestudy_isi,count_prestudy_sequence,count_prestudy_stimpres,count_start,count_study,count_study_coroutines,count_study_isi,count_study_logger,count_study_response,count_study_sequence,count_study_start,count_study_stimpres,count_test,count_test_coroutines,count_test_isi,count_test_logger,count_test_response,count_test_sequence,count_test_start,count_test_stimpres,date_startdate,date_startdateUTC,date_starttime,datetime,description,disable_garbage_collection,experiment_debug,experiment_parameters,experiment_path,experiment_pilot,experiment_taskname,experiment_taskversion,fampict,font_bold,font_family,font_italic,font_size,font_underline,foreground,form_clicks,fullscreen,height,jatosStudyResultId,jatosVersion,keyboard_backend,mouse_backend,opensesame_codename,opensesame_version,repeat_cycle,response,response_start,response_study_start,response_test_start,response_time,response_time_start,response_time_study_start,response_time_test_start,round_decimals,sampler_backend,screen_availableHeight,screen_availableWidth,screen_colorDepth,screen_height,screen_pixelDepth,screen_screenX,screen_screenY,screen_width,sessionid,sound_buf_size,sound_channels,sound_freq,sound_sample_size,start,stim,subject_nr,subject_parity,system_os,time_prestudy,time_prestudy_isi,time_prestudy_stimpres,time_start,time_study,time_study_isi,time_study_logger,time_study_response,time_study_start,time_study_stimpres,time_test,time_test_isi,time_test_logger,time_test_response,time_test_start,time_test_stimpres,title,total_correct,total_response_time,total_responses,uniform_coordinates,width
undefined,undefined,undefined,undefined,white,no,Mozilla,Netscape,"5.0 (Windows NT 10.0; Win64; x64) AppleWebKit/537.36 (KHTML, like Gecko) Chrome/97.0.4692.99 Safari/537.36 OPR/83.0.4254.70",xpyriment,legacy,legacy,0,uniform,0,0,0,0,24,24,24,0,0,0,0,0,0,0,0,0,0,,,,,,0,,26-01-22,26-01-22,11:58:50,Sat Feb 26 2022 11:58:50 GMT+0100 (Central European Standard Time),The main experiment item,yes,0,0,C:/Users/rrics/Documents/!!ResearchBMECOGSCI/gnet,0,0,0,prototype4.png,no,mono,no,18,no,black,no,no,768,1144,3.5.6,legacy,xpyriment,osweb,1.3.13,0,space,space,space,,18285,14449,18285,,2,legacy,824,1536,24,864,24,0,0,1536,1645873153828,1024,2,48000,-16,experiment,p6sarr1.png,0,even,Win32,496,126475,123473,496,496,151292,152804,146293,127978,146293,496,,,,,,visual_patterns,0,0,0,yes,1366
undefined,undefined,undefined,undefined,white,no,Mozilla,Netscape,"5.0 (Windows NT 10.0; Win64; x64) AppleWebKit/537.36 (KHTML, like Gecko) Chrome/97.0.4692.99 Safari/537.36 OPR/83.0.4254.70",xpyriment,legacy,legacy,0,uniform,0,0,0,0,24,24,24,0,0,1,1,1,1,1,0,1,0,,,,,,0,,26-01-22,26-01-22,11:58:50,Sat Feb 26 2022 11:58:50 GMT+0100 (Central European Standard Time),The main experiment item,yes,0,0,C:/Users/rrics/Documents/!!ResearchBMECOGSCI/gnet,0,0,0,prototype4.png,no,mono,no,18,no,black,no,no,768,1144,3.5.6,legacy,xpyriment,osweb,1.3.13,0,space,space,space,,18285,14449,18285,,2,legacy,824,1536,24,864,24,0,0,1536,1645873153828,1024,2,48000,-16,experiment,prototype3.png,0,even,Win32,496,126475,123473,496,496,157820,159327,152816,127978,152816,496,,,,,,visual_patterns,0,0,0,yes,1366
undefined,undefined,undefined,undefined,white,no,Mozilla,Netscape,"5.0 (Windows NT 10.0; Win64; x64) AppleWebKit/537.36 (KHTML, like Gecko) Chrome/97.0.4692.99 Safari/537.36 OPR/83.0.4254.70",xpyriment,legacy,legacy,0,uniform,0,0,0,0,24,24,24,0,0,2,2,2,2,2,0,2,0,,,,,,0,,26-01-22,26-01-22,11:58:50,Sat Feb 26 2022 11:58:50 GMT+0100 (Central European Standard Time),The main experiment item,yes,0,0,C:/Users/rrics/Documents/!!ResearchBMECOGSCI/gnet,0,0,0,prototype4.png,no,mono,no,18,no,black,no,no,768,1144,3.5.6,legacy,xpyriment,osweb,1.3.13,0,space,space,space,,18285,14449,18285,,2,legacy,824,1536,24,864,24,0,0,1536,1645873153828,1024,2,48000,-16,experiment,p3sarr1.png,0,even,Win32,496,126475,123473,496,496,164335,165851,159336,127978,159336,496,,,,,,visual_patterns,0,0,0,yes,1366
undefined,undefined,undefined,undefined,white,no,Mozilla,Netscape,"5.0 (Windows NT 10.0; Win64; x64) AppleWebKit/537.36 (KHTML, like Gecko) Chrome/97.0.4692.99 Safari/537.36 OPR/83.0.4254.70",xpyriment,legacy,legacy,0,uniform,0,0,0,0,24,24,24,0,0,3,3,3,3,3,0,3,0,,,,,,0,,26-01-22,26-01-22,11:58:50,Sat Feb 26 2022 11:58:50 GMT+0100 (Central European Standard Time),The main experiment item,yes,0,0,C:/Users/rrics/Documents/!!ResearchBMECOGSCI/gnet,0,0,0,prototype4.png,no,mono,no,18,no,black,no,no,768,1144,3.5.6,legacy,xpyriment,osweb,1.3.13,0,space,space,space,,18285,14449,18285,,2,legacy,824,1536,24,864,24,0,0,1536,1645873153828,1024,2,48000,-16,experiment,p9sarr2.png,0,even,Win32,496,126475,123473,496,496,170862,172375,165860,127978,165859,496,,,,,,visual_patterns,0,0,0,yes,1366
undefined,undefined,undefined,undefined,white,no,Mozilla,Netscape,"5.0 (Windows NT 10.0; Win64; x64) AppleWebKit/537.36 (KHTML, like Gecko) Chrome/97.0.4692.99 Safari/537.36 OPR/83.0.4254.70",xpyriment,legacy,legacy,0,uniform,0,0,0,0,24,24,24,0,0,4,4,4,4,4,0,4,0,,,,,,0,,26-01-22,26-01-22,11:58:50,Sat Feb 26 2022 11:58:50 GMT+0100 (Central European Standard Time),The main experiment item,yes,0,0,C:/Users/rrics/Documents/!!ResearchBMECOGSCI/gnet,0,0,0,prototype4.png,no,mono,no,18,no,black,no,no,768,1144,3.5.6,legacy,xpyriment,osweb,1.3.13,0,space,space,space,,18285,14449,18285,,2,legacy,824,1536,24,864,24,0,0,1536,1645873153828,1024,2,48000,-16,experiment,p4sarr2.png,0,even,Win32,496,126475,123473,496,496,177390,178899,172393,127978,172393,496,,,,,,visual_patterns,0,0,0,yes,1366
undefined,undefined,undefined,undefined,white,no,Mozilla,Netscape,"5.0 (Windows NT 10.0; Win64; x64) AppleWebKit/537.36 (KHTML, like Gecko) Chrome/97.0.4692.99 Safari/537.36 OPR/83.0.4254.70",xpyriment,legacy,legacy,0,uniform,0,0,0,0,24,24,24,0,0,5,5,5,5,5,0,5,0,,,,,,0,,26-01-22,26-01-22,11:58:50,Sat Feb 26 2022 11:58:50 GMT+0100 (Central European Standard Time),The main experiment item,yes,0,0,C:/Users/rrics/Documents/!!ResearchBMECOGSCI/gnet,0,0,0,prototype4.png,no,mono,no,18,no,black,no,no,768,1144,3.5.6,legacy,xpyriment,osweb,1.3.13,0,space,space,space,,18285,14449,18285,,2,legacy,824,1536,24,864,24,0,0,1536,1645873153828,1024,2,48000,-16,experiment,p4sarrshacol2.png,0,even,Win32,496,126475,123473,496,496,183913,185423,178916,127978,178916,496,,,,,,visual_patterns,0,0,0,yes,1366
undefined,undefined,undefined,undefined,white,no,Mozilla,Netscape,"5.0 (Windows NT 10.0; Win64; x64) AppleWebKit/537.36 (KHTML, like Gecko) Chrome/97.0.4692.99 Safari/537.36 OPR/83.0.4254.70",xpyriment,legacy,legacy,0,uniform,0,0,0,0,24,24,24,0,0,6,6,6,6,6,0,6,0,,,,,,0,,26-01-22,26-01-22,11:58:50,Sat Feb 26 2022 11:58:50 GMT+0100 (Central European Standard Time),The main experiment item,yes,0,0,C:/Users/rrics/Documents/!!ResearchBMECOGSCI/gnet,0,0,0,prototype4.png,no,mono,no,18,no,black,no,no,768,1144,3.5.6,legacy,xpyriment,osweb,1.3.13,0,space,space,space,,18285,14449,18285,,2,legacy,824,1536,24,864,24,0,0,1536,1645873153828,1024,2,48000,-16,experiment,p5sarrsha2.png,0,even,Win32,496,126475,123473,496,496,190441,191947,185440,127978,185440,496,,,,,,visual_patterns,0,0,0,yes,1366
undefined,undefined,undefined,undefined,white,no,Mozilla,Netscape,"5.0 (Windows NT 10.0; Win64; x64) AppleWebKit/537.36 (KHTML, like Gecko) Chrome/97.0.4692.99 Safari/537.36 OPR/83.0.4254.70",xpyriment,legacy,legacy,0,uniform,0,0,0,0,24,24,24,0,0,7,7,7,7,7,0,7,0,,,,,,0,,26-01-22,26-01-22,11:58:50,Sat Feb 26 2022 11:58:50 GMT+0100 (Central European Standard Time),The main experiment item,yes,0,0,C:/Users/rrics/Documents/!!ResearchBMECOGSCI/gnet,0,0,0,prototype4.png,no,mono,no,18,no,black,no,no,768,1144,3.5.6,legacy,xpyriment,osweb,1.3.13,0,space,space,space,,18285,14449,18285,,2,legacy,824,1536,24,864,24,0,0,1536,1645873153828,1024,2,48000,-16,experiment,p2sarr1.png,0,even,Win32,496,126475,123473,496,496,196957,198471,191961,127978,191961,496,,,,,,visual_patterns,0,0,0,yes,1366
undefined,undefined,undefined,undefined,white,no,Mozilla,Netscape,"5.0 (Windows NT 10.0; Win64; x64) AppleWebKit/537.36 (KHTML, like Gecko) Chrome/97.0.4692.99 Safari/537.36 OPR/83.0.4254.70",xpyriment,legacy,legacy,0,uniform,0,0,0,0,24,24,24,0,0,8,8,8,8,8,0,8,0,,,,,,0,,26-01-22,26-01-22,11:58:50,Sat Feb 26 2022 11:58:50 GMT+0100 (Central European Standard Time),The main experiment item,yes,0,0,C:/Users/rrics/Documents/!!ResearchBMECOGSCI/gnet,0,0,0,prototype4.png,no,mono,no,18,no,black,no,no,768,1144,3.5.6,legacy,xpyriment,osweb,1.3.13,0,space,space,space,,18285,14449,18285,,2,legacy,824,1536,24,864,24,0,0,1536,1645873153828,1024,2,48000,-16,experiment,prototype4.png,0,even,Win32,496,126475,123473,496,496,203487,204995,198484,127978,198484,496,,,,,,visual_patterns,0,0,0,yes,1366
undefined,undefined,undefined,undefined,white,no,Mozilla,Netscape,"5.0 (Windows NT 10.0; Win64; x64) AppleWebKit/537.36 (KHTML, like Gecko) Chrome/97.0.4692.99 Safari/537.36 OPR/83.0.4254.70",xpyriment,legacy,legacy,0,uniform,0,0,0,0,24,24,24,0,0,9,9,9,9,9,0,9,0,,,,,,0,,26-01-22,26-01-22,11:58:50,Sat Feb 26 2022 11:58:50 GMT+0100 (Central European Standard Time),The main experiment item,yes,0,0,C:/Users/rrics/Documents/!!ResearchBMECOGSCI/gnet,0,0,0,prototype4.png,no,mono,no,18,no,black,no,no,768,1144,3.5.6,legacy,xpyriment,osweb,1.3.13,0,space,space,space,,18285,14449,18285,,2,legacy,824,1536,24,864,24,0,0,1536,1645873153828,1024,2,48000,-16,experiment,p5sarrsha1.png,0,even,Win32,496,126475,123473,496,496,210007,211518,205008,127978,205008,496,,,,,,visual_patterns,0,0,0,yes,1366
undefined,undefined,undefined,undefined,white,no,Mozilla,Netscape,"5.0 (Windows NT 10.0; Win64; x64) AppleWebKit/537.36 (KHTML, like Gecko) Chrome/97.0.4692.99 Safari/537.36 OPR/83.0.4254.70",xpyriment,legacy,legacy,0,uniform,0,0,0,0,24,24,24,0,0,10,10,10,10,10,0,10,0,,,,,,0,,26-01-22,26-01-22,11:58:50,Sat Feb 26 2022 11:58:50 GMT+0100 (Central European Standard Time),The main experiment item,yes,0,0,C:/Users/rrics/Documents/!!ResearchBMECOGSCI/gnet,0,0,0,prototype4.png,no,mono,no,18,no,black,no,no,768,1144,3.5.6,legacy,xpyriment,osweb,1.3.13,0,space,space,space,,18285,14449,18285,,2,legacy,824,1536,24,864,24,0,0,1536,1645873153828,1024,2,48000,-16,experiment,p5sarrcol1.png,0,even,Win32,496,126475,123473,496,496,216526,218042,211528,127978,211528,496,,,,,,visual_patterns,0,0,0,yes,1366
undefined,undefined,undefined,undefined,white,no,Mozilla,Netscape,"5.0 (Windows NT 10.0; Win64; x64) AppleWebKit/537.36 (KHTML, like Gecko) Chrome/97.0.4692.99 Safari/537.36 OPR/83.0.4254.70",xpyriment,legacy,legacy,0,uniform,0,0,0,0,24,24,24,0,0,11,11,11,11,11,0,11,0,,,,,,0,,26-01-22,26-01-22,11:58:50,Sat Feb 26 2022 11:58:50 GMT+0100 (Central European Standard Time),The main experiment item,yes,0,0,C:/Users/rrics/Documents/!!ResearchBMECOGSCI/gnet,0,0,0,prototype4.png,no,mono,no,18,no,black,no,no,768,1144,3.5.6,legacy,xpyriment,osweb,1.3.13,0,space,space,space,,18285,14449,18285,,2,legacy,824,1536,24,864,24,0,0,1536,1645873153828,1024,2,48000,-16,experiment,p8sarr2.png,0,even,Win32,496,126475,123473,496,496,223077,224583,218087,127978,218087,496,,,,,,visual_patterns,0,0,0,yes,1366
undefined,undefined,undefined,undefined,white,no,Mozilla,Netscape,"5.0 (Windows NT 10.0; Win64; x64) AppleWebKit/537.36 (KHTML, like Gecko) Chrome/97.0.4692.99 Safari/537.36 OPR/83.0.4254.70",xpyriment,legacy,legacy,0,uniform,0,0,0,0,24,24,24,0,0,12,12,12,12,12,0,12,0,,,,,,0,,26-01-22,26-01-22,11:58:50,Sat Feb 26 2022 11:58:50 GMT+0100 (Central European Standard Time),The main experiment item,yes,0,0,C:/Users/rrics/Documents/!!ResearchBMECOGSCI/gnet,0,0,0,prototype4.png,no,mono,no,18,no,black,no,no,768,1144,3.5.6,legacy,xpyriment,osweb,1.3.13,0,space,space,space,,18285,14449,18285,,2,legacy,824,1536,24,864,24,0,0,1536,1645873153828,1024,2,48000,-16,experiment,p5sarrshacol2.png,0,even,Win32,496,126475,123473,496,496,229593,231106,224596,127978,224596,496,,,,,,visual_patterns,0,0,0,yes,1366
undefined,undefined,undefined,undefined,white,no,Mozilla,Netscape,"5.0 (Windows NT 10.0; Win64; x64) AppleWebKit/537.36 (KHTML, like Gecko) Chrome/97.0.4692.99 Safari/537.36 OPR/83.0.4254.70",xpyriment,legacy,legacy,0,uniform,0,0,0,0,24,24,24,0,0,13,13,13,13,13,0,13,0,,,,,,0,,26-01-22,26-01-22,11:58:50,Sat Feb 26 2022 11:58:50 GMT+0100 (Central European Standard Time),The main experiment item,yes,0,0,C:/Users/rrics/Documents/!!ResearchBMECOGSCI/gnet,0,0,0,prototype4.png,no,mono,no,18,no,black,no,no,768,1144,3.5.6,legacy,xpyriment,osweb,1.3.13,0,space,space,space,,18285,14449,18285,,2,legacy,824,1536,24,864,24,0,0,1536,1645873153828,1024,2,48000,-16,experiment,p8sarr1.png,0,even,Win32,496,126475,123473,496,496,236116,237631,231120,127978,231120,496,,,,,,visual_patterns,0,0,0,yes,1366
undefined,undefined,undefined,undefined,white,no,Mozilla,Netscape,"5.0 (Windows NT 10.0; Win64; x64) AppleWebKit/537.36 (KHTML, like Gecko) Chrome/97.0.4692.99 Safari/537.36 OPR/83.0.4254.70",xpyriment,legacy,legacy,0,uniform,0,0,0,0,24,24,24,0,0,14,14,14,14,14,0,14,0,,,,,,0,,26-01-22,26-01-22,11:58:50,Sat Feb 26 2022 11:58:50 GMT+0100 (Central European Standard Time),The main experiment item,yes,0,0,C:/Users/rrics/Documents/!!ResearchBMECOGSCI/gnet,0,0,0,prototype4.png,no,mono,no,18,no,black,no,no,768,1144,3.5.6,legacy,xpyriment,osweb,1.3.13,0,space,space,space,,18285,14449,18285,,2,legacy,824,1536,24,864,24,0,0,1536,1645873153828,1024,2,48000,-16,experiment,p3sarrcol1.png,0,even,Win32,496,126475,123473,496,496,242643,244154,237644,127978,237644,496,,,,,,visual_patterns,0,0,0,yes,1366
undefined,undefined,undefined,undefined,white,no,Mozilla,Netscape,"5.0 (Windows NT 10.0; Win64; x64) AppleWebKit/537.36 (KHTML, like Gecko) Chrome/97.0.4692.99 Safari/537.36 OPR/83.0.4254.70",xpyriment,legacy,legacy,0,uniform,0,0,0,0,24,24,24,0,0,15,15,15,15,15,0,15,0,,,,,,0,,26-01-22,26-01-22,11:58:50,Sat Feb 26 2022 11:58:50 GMT+0100 (Central European Standard Time),The main experiment item,yes,0,0,C:/Users/rrics/Documents/!!ResearchBMECOGSCI/gnet,0,0,0,prototype4.png,no,mono,no,18,no,black,no,no,768,1144,3.5.6,legacy,xpyriment,osweb,1.3.13,0,space,space,space,,18285,14449,18285,,2,legacy,824,1536,24,864,24,0,0,1536,1645873153828,1024,2,48000,-16,experiment,prototype1.png,0,even,Win32,496,126475,123473,496,496,249162,250678,244161,127978,244161,496,,,,,,visual_patterns,0,0,0,yes,1366
undefined,undefined,undefined,undefined,white,no,Mozilla,Netscape,"5.0 (Windows NT 10.0; Win64; x64) AppleWebKit/537.36 (KHTML, like Gecko) Chrome/97.0.4692.99 Safari/537.36 OPR/83.0.4254.70",xpyriment,legacy,legacy,0,uniform,0,0,0,0,24,24,24,0,0,16,16,16,16,16,0,16,0,,,,,,0,,26-01-22,26-01-22,11:58:50,Sat Feb 26 2022 11:58:50 GMT+0100 (Central European Standard Time),The main experiment item,yes,0,0,C:/Users/rrics/Documents/!!ResearchBMECOGSCI/gnet,0,0,0,prototype4.png,no,mono,no,18,no,black,no,no,768,1144,3.5.6,legacy,xpyriment,osweb,1.3.13,0,space,space,space,,18285,14449,18285,,2,legacy,824,1536,24,864,24,0,0,1536,1645873153828,1024,2,48000,-16,experiment,p2sarr2.png,0,even,Win32,496,126475,123473,496,496,255684,257185,250686,127978,250686,496,,,,,,visual_patterns,0,0,0,yes,1366
undefined,undefined,undefined,undefined,white,no,Mozilla,Netscape,"5.0 (Windows NT 10.0; Win64; x64) AppleWebKit/537.36 (KHTML, like Gecko) Chrome/97.0.4692.99 Safari/537.36 OPR/83.0.4254.70",xpyriment,legacy,legacy,0,uniform,0,0,0,0,24,24,24,0,0,17,17,17,17,17,0,17,0,,,,,,0,,26-01-22,26-01-22,11:58:50,Sat Feb 26 2022 11:58:50 GMT+0100 (Central European Standard Time),The main experiment item,yes,0,0,C:/Users/rrics/Documents/!!ResearchBMECOGSCI/gnet,0,0,0,prototype4.png,no,mono,no,18,no,black,no,no,768,1144,3.5.6,legacy,xpyriment,osweb,1.3.13,0,space,space,space,,18285,14449,18285,,2,legacy,824,1536,24,864,24,0,0,1536,1645873153828,1024,2,48000,-16,experiment,p3sarrsha2.png,0,even,Win32,496,126475,123473,496,496,262196,263709,257198,127978,257198,496,,,,,,visual_patterns,0,0,0,yes,1366
undefined,undefined,undefined,undefined,white,no,Mozilla,Netscape,"5.0 (Windows NT 10.0; Win64; x64) AppleWebKit/537.36 (KHTML, like Gecko) Chrome/97.0.4692.99 Safari/537.36 OPR/83.0.4254.70",xpyriment,legacy,legacy,0,uniform,0,0,0,0,24,24,24,0,0,18,18,18,18,18,0,18,0,,,,,,0,,26-01-22,26-01-22,11:58:50,Sat Feb 26 2022 11:58:50 GMT+0100 (Central European Standard Time),The main experiment item,yes,0,0,C:/Users/rrics/Documents/!!ResearchBMECOGSCI/gnet,0,0,0,prototype4.png,no,mono,no,18,no,black,no,no,768,1144,3.5.6,legacy,xpyriment,osweb,1.3.13,0,space,space,space,,18285,14449,18285,,2,legacy,824,1536,24,864,24,0,0,1536,1645873153828,1024,2,48000,-16,experiment,prototype4.png,0,even,Win32,496,126475,123473,496,496,268717,270233,263716,127978,263716,496,,,,,,visual_patterns,0,0,0,yes,1366
undefined,undefined,undefined,undefined,white,no,Mozilla,Netscape,"5.0 (Windows NT 10.0; Win64; x64) AppleWebKit/537.36 (KHTML, like Gecko) Chrome/97.0.4692.99 Safari/537.36 OPR/83.0.4254.70",xpyriment,legacy,legacy,0,uniform,0,0,0,0,24,24,24,0,0,19,19,19,19,19,0,19,0,,,,,,0,,26-01-22,26-01-22,11:58:50,Sat Feb 26 2022 11:58:50 GMT+0100 (Central European Standard Time),The main experiment item,yes,0,0,C:/Users/rrics/Documents/!!ResearchBMECOGSCI/gnet,0,0,0,prototype4.png,no,mono,no,18,no,black,no,no,768,1144,3.5.6,legacy,xpyriment,osweb,1.3.13,0,space,space,space,,18285,14449,18285,,2,legacy,824,1536,24,864,24,0,0,1536,1645873153828,1024,2,48000,-16,experiment,p3sarrsha1.png,0,even,Win32,496,126475,123473,496,496,275243,276756,270246,127978,270246,496,,,,,,visual_patterns,0,0,0,yes,1366
undefined,undefined,undefined,undefined,white,no,Mozilla,Netscape,"5.0 (Windows NT 10.0; Win64; x64) AppleWebKit/537.36 (KHTML, like Gecko) Chrome/97.0.4692.99 Safari/537.36 OPR/83.0.4254.70",xpyriment,legacy,legacy,0,uniform,0,0,0,0,24,24,24,0,0,20,20,20,20,20,0,20,0,,,,,,0,,26-01-22,26-01-22,11:58:50,Sat Feb 26 2022 11:58:50 GMT+0100 (Central European Standard Time),The main experiment item,yes,0,0,C:/Users/rrics/Documents/!!ResearchBMECOGSCI/gnet,0,0,0,prototype4.png,no,mono,no,18,no,black,no,no,768,1144,3.5.6,legacy,xpyriment,osweb,1.3.13,0,space,space,space,,18285,14449,18285,,2,legacy,824,1536,24,864,24,0,0,1536,1645873153828,1024,2,48000,-16,experiment,prototype2.png,0,even,Win32,496,126475,123473,496,496,281765,283281,276764,127978,276764,496,,,,,,visual_patterns,0,0,0,yes,1366
undefined,undefined,undefined,undefined,white,no,Mozilla,Netscape,"5.0 (Windows NT 10.0; Win64; x64) AppleWebKit/537.36 (KHTML, like Gecko) Chrome/97.0.4692.99 Safari/537.36 OPR/83.0.4254.70",xpyriment,legacy,legacy,0,uniform,0,0,0,0,24,24,24,0,0,21,21,21,21,21,0,21,0,,,,,,0,,26-01-22,26-01-22,11:58:50,Sat Feb 26 2022 11:58:50 GMT+0100 (Central European Standard Time),The main experiment item,yes,0,0,C:/Users/rrics/Documents/!!ResearchBMECOGSCI/gnet,0,0,0,prototype4.png,no,mono,no,18,no,black,no,no,768,1144,3.5.6,legacy,xpyriment,osweb,1.3.13,0,space,space,space,,18285,14449,18285,,2,legacy,824,1536,24,864,24,0,0,1536,1645873153828,1024,2,48000,-16,experiment,p4sarrcol2.png,0,even,Win32,496,126475,123473,496,496,288310,289821,283310,127978,283310,496,,,,,,visual_patterns,0,0,0,yes,1366
undefined,undefined,undefined,undefined,white,no,Mozilla,Netscape,"5.0 (Windows NT 10.0; Win64; x64) AppleWebKit/537.36 (KHTML, like Gecko) Chrome/97.0.4692.99 Safari/537.36 OPR/83.0.4254.70",xpyriment,legacy,legacy,0,uniform,0,0,0,0,24,24,24,0,0,22,22,22,22,22,0,22,0,,,,,,0,,26-01-22,26-01-22,11:58:50,Sat Feb 26 2022 11:58:50 GMT+0100 (Central European Standard Time),The main experiment item,yes,0,0,C:/Users/rrics/Documents/!!ResearchBMECOGSCI/gnet,0,0,0,prototype4.png,no,mono,no,18,no,black,no,no,768,1144,3.5.6,legacy,xpyriment,osweb,1.3.13,0,space,space,space,,18285,14449,18285,,2,legacy,824,1536,24,864,24,0,0,1536,1645873153828,1024,2,48000,-16,experiment,p5sarrshacol1.png,0,even,Win32,496,126475,123473,496,496,294835,296345,289837,127978,289837,496,,,,,,visual_patterns,0,0,0,yes,1366
undefined,undefined,undefined,undefined,white,no,Mozilla,Netscape,"5.0 (Windows NT 10.0; Win64; x64) AppleWebKit/537.36 (KHTML, like Gecko) Chrome/97.0.4692.99 Safari/537.36 OPR/83.0.4254.70",xpyriment,legacy,legacy,0,uniform,0,0,0,0,24,24,24,0,0,23,23,23,23,23,0,23,0,,,,,,0,,26-01-22,26-01-22,11:58:50,Sat Feb 26 2022 11:58:50 GMT+0100 (Central European Standard Time),The main experiment item,yes,0,0,C:/Users/rrics/Documents/!!ResearchBMECOGSCI/gnet,0,0,0,prototype4.png,no,mono,no,18,no,black,no,no,768,1144,3.5.6,legacy,xpyriment,osweb,1.3.13,0,space,space,space,,18285,14449,18285,,2,legacy,824,1536,24,864,24,0,0,1536,1645873153828,1024,2,48000,-16,experiment,prototype2.png,0,even,Win32,496,126475,123473,496,496,301357,302869,296357,127978,296357,496,,,,,,visual_patterns,0,0,0,yes,1366
undefined,undefined,undefined,undefined,white,no,Mozilla,Netscape,"5.0 (Windows NT 10.0; Win64; x64) AppleWebKit/537.36 (KHTML, like Gecko) Chrome/97.0.4692.99 Safari/537.36 OPR/83.0.4254.70",xpyriment,legacy,legacy,0,uniform,0,0,0,0,24,24,24,0,0,24,24,24,24,24,0,24,0,,,,,,0,,26-01-22,26-01-22,11:58:50,Sat Feb 26 2022 11:58:50 GMT+0100 (Central European Standard Time),The main experiment item,yes,0,0,C:/Users/rrics/Documents/!!ResearchBMECOGSCI/gnet,0,0,0,prototype4.png,no,mono,no,18,no,black,no,no,768,1144,3.5.6,legacy,xpyriment,osweb,1.3.13,0,space,space,space,,18285,14449,18285,,2,legacy,824,1536,24,864,24,0,0,1536,1645873153828,1024,2,48000,-16,experiment,p4sarrsha2.png,0,even,Win32,496,126475,123473,496,496,307879,309392,302883,127978,302883,496,,,,,,visual_patterns,0,0,0,yes,1366
undefined,undefined,undefined,undefined,white,no,Mozilla,Netscape,"5.0 (Windows NT 10.0; Win64; x64) AppleWebKit/537.36 (KHTML, like Gecko) Chrome/97.0.4692.99 Safari/537.36 OPR/83.0.4254.70",xpyriment,legacy,legacy,0,uniform,0,0,0,0,24,24,24,0,0,25,25,25,25,25,0,25,0,,,,,,0,,26-01-22,26-01-22,11:58:50,Sat Feb 26 2022 11:58:50 GMT+0100 (Central European Standard Time),The main experiment item,yes,0,0,C:/Users/rrics/Documents/!!ResearchBMECOGSCI/gnet,0,0,0,prototype4.png,no,mono,no,18,no,black,no,no,768,1144,3.5.6,legacy,xpyriment,osweb,1.3.13,0,space,space,space,,18285,14449,18285,,2,legacy,824,1536,24,864,24,0,0,1536,1645873153828,1024,2,48000,-16,experiment,p9sarr1.png,0,even,Win32,496,126475,123473,496,496,314403,315917,309401,127978,309401,496,,,,,,visual_patterns,0,0,0,yes,1366
undefined,undefined,undefined,undefined,white,no,Mozilla,Netscape,"5.0 (Windows NT 10.0; Win64; x64) AppleWebKit/537.36 (KHTML, like Gecko) Chrome/97.0.4692.99 Safari/537.36 OPR/83.0.4254.70",xpyriment,legacy,legacy,0,uniform,0,0,0,0,24,24,24,0,0,26,26,26,26,26,0,26,0,,,,,,0,,26-01-22,26-01-22,11:58:50,Sat Feb 26 2022 11:58:50 GMT+0100 (Central European Standard Time),The main experiment item,yes,0,0,C:/Users/rrics/Documents/!!ResearchBMECOGSCI/gnet,0,0,0,prototype4.png,no,mono,no,18,no,black,no,no,768,1144,3.5.6,legacy,xpyriment,osweb,1.3.13,0,space,space,space,,18285,14449,18285,,2,legacy,824,1536,24,864,24,0,0,1536,1645873153828,1024,2,48000,-16,experiment,prototype1.png,0,even,Win32,496,126475,123473,496,496,320943,322457,315942,127978,315941,496,,,,,,visual_patterns,0,0,0,yes,1366
undefined,undefined,undefined,undefined,white,no,Mozilla,Netscape,"5.0 (Windows NT 10.0; Win64; x64) AppleWebKit/537.36 (KHTML, like Gecko) Chrome/97.0.4692.99 Safari/537.36 OPR/83.0.4254.70",xpyriment,legacy,legacy,0,uniform,0,0,0,0,24,24,24,0,0,27,27,27,27,27,0,27,0,,,,,,0,,26-01-22,26-01-22,11:58:50,Sat Feb 26 2022 11:58:50 GMT+0100 (Central European Standard Time),The main experiment item,yes,0,0,C:/Users/rrics/Documents/!!ResearchBMECOGSCI/gnet,0,0,0,prototype4.png,no,mono,no,18,no,black,no,no,768,1144,3.5.6,legacy,xpyriment,osweb,1.3.13,0,space,space,space,,18285,14449,18285,,2,legacy,824,1536,24,864,24,0,0,1536,1645873153828,1024,2,48000,-16,experiment,p4sarrcol1.png,0,even,Win32,496,126475,123473,496,496,327471,328981,322472,127978,322471,496,,,,,,visual_patterns,0,0,0,yes,1366
undefined,undefined,undefined,undefined,white,no,Mozilla,Netscape,"5.0 (Windows NT 10.0; Win64; x64) AppleWebKit/537.36 (KHTML, like Gecko) Chrome/97.0.4692.99 Safari/537.36 OPR/83.0.4254.70",xpyriment,legacy,legacy,0,uniform,0,0,0,0,24,24,24,0,0,28,28,28,28,28,0,28,0,,,,,,0,,26-01-22,26-01-22,11:58:50,Sat Feb 26 2022 11:58:50 GMT+0100 (Central European Standard Time),The main experiment item,yes,0,0,C:/Users/rrics/Documents/!!ResearchBMECOGSCI/gnet,0,0,0,prototype4.png,no,mono,no,18,no,black,no,no,768,1144,3.5.6,legacy,xpyriment,osweb,1.3.13,0,space,space,space,,18285,14449,18285,,2,legacy,824,1536,24,864,24,0,0,1536,1645873153828,1024,2,48000,-16,experiment,prototype4.png,0,even,Win32,496,126475,123473,496,496,333991,335505,328991,127978,328991,496,,,,,,visual_patterns,0,0,0,yes,1366
undefined,undefined,undefined,undefined,white,no,Mozilla,Netscape,"5.0 (Windows NT 10.0; Win64; x64) AppleWebKit/537.36 (KHTML, like Gecko) Chrome/97.0.4692.99 Safari/537.36 OPR/83.0.4254.70",xpyriment,legacy,legacy,0,uniform,0,0,0,0,24,24,24,0,0,29,29,29,29,29,0,29,0,,,,,,0,,26-01-22,26-01-22,11:58:50,Sat Feb 26 2022 11:58:50 GMT+0100 (Central European Standard Time),The main experiment item,yes,0,0,C:/Users/rrics/Documents/!!ResearchBMECOGSCI/gnet,0,0,0,prototype4.png,no,mono,no,18,no,black,no,no,768,1144,3.5.6,legacy,xpyriment,osweb,1.3.13,0,space,space,space,,18285,14449,18285,,2,legacy,824,1536,24,864,24,0,0,1536,1645873153828,1024,2,48000,-16,experiment,prototype5.png,0,even,Win32,496,126475,123473,496,496,340518,342029,335515,127978,335515,496,,,,,,visual_patterns,0,0,0,yes,1366
undefined,undefined,undefined,undefined,white,no,Mozilla,Netscape,"5.0 (Windows NT 10.0; Win64; x64) AppleWebKit/537.36 (KHTML, like Gecko) Chrome/97.0.4692.99 Safari/537.36 OPR/83.0.4254.70",xpyriment,legacy,legacy,0,uniform,0,0,0,0,24,24,24,0,0,30,30,30,30,30,0,30,0,,,,,,0,,26-01-22,26-01-22,11:58:50,Sat Feb 26 2022 11:58:50 GMT+0100 (Central European Standard Time),The main experiment item,yes,0,0,C:/Users/rrics/Documents/!!ResearchBMECOGSCI/gnet,0,0,0,prototype4.png,no,mono,no,18,no,black,no,no,768,1144,3.5.6,legacy,xpyriment,osweb,1.3.13,0,space,space,space,,18285,14449,18285,,2,legacy,824,1536,24,864,24,0,0,1536,1645873153828,1024,2,48000,-16,experiment,p5sarrcol2.png,0,even,Win32,496,126475,123473,496,496,347040,348553,342044,127978,342044,496,,,,,,visual_patterns,0,0,0,yes,1366
undefined,undefined,undefined,undefined,white,no,Mozilla,Netscape,"5.0 (Windows NT 10.0; Win64; x64) AppleWebKit/537.36 (KHTML, like Gecko) Chrome/97.0.4692.99 Safari/537.36 OPR/83.0.4254.70",xpyriment,legacy,legacy,0,uniform,0,0,0,0,24,24,24,0,0,31,31,31,31,31,0,31,0,,,,,,0,,26-01-22,26-01-22,11:58:50,Sat Feb 26 2022 11:58:50 GMT+0100 (Central European Standard Time),The main experiment item,yes,0,0,C:/Users/rrics/Documents/!!ResearchBMECOGSCI/gnet,0,0,0,prototype4.png,no,mono,no,18,no,black,no,no,768,1144,3.5.6,legacy,xpyriment,osweb,1.3.13,0,space,space,space,,18285,14449,18285,,2,legacy,824,1536,24,864,24,0,0,1536,1645873153828,1024,2,48000,-16,experiment,p2sarrsha2.png,0,even,Win32,496,126475,123473,496,496,353579,355093,348580,127978,348580,496,,,,,,visual_patterns,0,0,0,yes,1366
undefined,undefined,undefined,undefined,white,no,Mozilla,Netscape,"5.0 (Windows NT 10.0; Win64; x64) AppleWebKit/537.36 (KHTML, like Gecko) Chrome/97.0.4692.99 Safari/537.36 OPR/83.0.4254.70",xpyriment,legacy,legacy,0,uniform,0,0,0,0,24,24,24,0,0,32,32,32,32,32,0,32,0,,,,,,0,,26-01-22,26-01-22,11:58:50,Sat Feb 26 2022 11:58:50 GMT+0100 (Central European Standard Time),The main experiment item,yes,0,0,C:/Users/rrics/Documents/!!ResearchBMECOGSCI/gnet,0,0,0,prototype4.png,no,mono,no,18,no,black,no,no,768,1144,3.5.6,legacy,xpyriment,osweb,1.3.13,0,space,space,space,,18285,14449,18285,,2,legacy,824,1536,24,864,24,0,0,1536,1645873153828,1024,2,48000,-16,experiment,p5sarr1.png,0,even,Win32,496,126475,123473,496,496,360105,361617,355108,127978,355108,496,,,,,,visual_patterns,0,0,0,yes,1366
undefined,undefined,undefined,undefined,white,no,Mozilla,Netscape,"5.0 (Windows NT 10.0; Win64; x64) AppleWebKit/537.36 (KHTML, like Gecko) Chrome/97.0.4692.99 Safari/537.36 OPR/83.0.4254.70",xpyriment,legacy,legacy,0,uniform,0,0,0,0,24,24,24,0,0,33,33,33,33,33,0,33,0,,,,,,0,,26-01-22,26-01-22,11:58:50,Sat Feb 26 2022 11:58:50 GMT+0100 (Central European Standard Time),The main experiment item,yes,0,0,C:/Users/rrics/Documents/!!ResearchBMECOGSCI/gnet,0,0,0,prototype4.png,no,mono,no,18,no,black,no,no,768,1144,3.5.6,legacy,xpyriment,osweb,1.3.13,0,space,space,space,,18285,14449,18285,,2,legacy,824,1536,24,864,24,0,0,1536,1645873153828,1024,2,48000,-16,experiment,p3sarrshacol1.png,0,even,Win32,496,126475,123473,496,496,366633,368141,361632,127978,361632,496,,,,,,visual_patterns,0,0,0,yes,1366
undefined,undefined,undefined,undefined,white,no,Mozilla,Netscape,"5.0 (Windows NT 10.0; Win64; x64) AppleWebKit/537.36 (KHTML, like Gecko) Chrome/97.0.4692.99 Safari/537.36 OPR/83.0.4254.70",xpyriment,legacy,legacy,0,uniform,0,0,0,0,24,24,24,0,0,34,34,34,34,34,0,34,0,,,,,,0,,26-01-22,26-01-22,11:58:50,Sat Feb 26 2022 11:58:50 GMT+0100 (Central European Standard Time),The main experiment item,yes,0,0,C:/Users/rrics/Documents/!!ResearchBMECOGSCI/gnet,0,0,0,prototype4.png,no,mono,no,18,no,black,no,no,768,1144,3.5.6,legacy,xpyriment,osweb,1.3.13,0,space,space,space,,18285,14449,18285,,2,legacy,824,1536,24,864,24,0,0,1536,1645873153828,1024,2,48000,-16,experiment,prototype1.png,0,even,Win32,496,126475,123473,496,496,373154,374665,368150,127978,368150,496,,,,,,visual_patterns,0,0,0,yes,1366
undefined,undefined,undefined,undefined,white,no,Mozilla,Netscape,"5.0 (Windows NT 10.0; Win64; x64) AppleWebKit/537.36 (KHTML, like Gecko) Chrome/97.0.4692.99 Safari/537.36 OPR/83.0.4254.70",xpyriment,legacy,legacy,0,uniform,0,0,0,0,24,24,24,0,0,35,35,35,35,35,0,35,0,,,,,,0,,26-01-22,26-01-22,11:58:50,Sat Feb 26 2022 11:58:50 GMT+0100 (Central European Standard Time),The main experiment item,yes,0,0,C:/Users/rrics/Documents/!!ResearchBMECOGSCI/gnet,0,0,0,prototype4.png,no,mono,no,18,no,black,no,no,768,1144,3.5.6,legacy,xpyriment,osweb,1.3.13,0,space,space,space,,18285,14449,18285,,2,legacy,824,1536,24,864,24,0,0,1536,1645873153828,1024,2,48000,-16,experiment,p4sarrshacol1.png,0,even,Win32,496,126475,123473,496,496,379680,381189,374682,127978,374682,496,,,,,,visual_patterns,0,0,0,yes,1366
undefined,undefined,undefined,undefined,white,no,Mozilla,Netscape,"5.0 (Windows NT 10.0; Win64; x64) AppleWebKit/537.36 (KHTML, like Gecko) Chrome/97.0.4692.99 Safari/537.36 OPR/83.0.4254.70",xpyriment,legacy,legacy,0,uniform,0,0,0,0,24,24,24,0,0,36,36,36,36,36,0,36,0,,,,,,0,,26-01-22,26-01-22,11:58:50,Sat Feb 26 2022 11:58:50 GMT+0100 (Central European Standard Time),The main experiment item,yes,0,0,C:/Users/rrics/Documents/!!ResearchBMECOGSCI/gnet,0,0,0,prototype4.png,no,mono,no,18,no,black,no,no,768,1144,3.5.6,legacy,xpyriment,osweb,1.3.13,0,space,space,space,,18285,14449,18285,,2,legacy,824,1536,24,864,24,0,0,1536,1645873153828,1024,2,48000,-16,experiment,prototype3.png,0,even,Win32,496,126475,123473,496,496,386200,387712,381199,127978,381199,496,,,,,,visual_patterns,0,0,0,yes,1366
undefined,undefined,undefined,undefined,white,no,Mozilla,Netscape,"5.0 (Windows NT 10.0; Win64; x64) AppleWebKit/537.36 (KHTML, like Gecko) Chrome/97.0.4692.99 Safari/537.36 OPR/83.0.4254.70",xpyriment,legacy,legacy,0,uniform,0,0,0,0,24,24,24,0,0,37,37,37,37,37,0,37,0,,,,,,0,,26-01-22,26-01-22,11:58:50,Sat Feb 26 2022 11:58:50 GMT+0100 (Central European Standard Time),The main experiment item,yes,0,0,C:/Users/rrics/Documents/!!ResearchBMECOGSCI/gnet,0,0,0,prototype4.png,no,mono,no,18,no,black,no,no,768,1144,3.5.6,legacy,xpyriment,osweb,1.3.13,0,space,space,space,,18285,14449,18285,,2,legacy,824,1536,24,864,24,0,0,1536,1645873153828,1024,2,48000,-16,experiment,prototype3.png,0,even,Win32,496,126475,123473,496,496,392725,394236,387725,127978,387725,496,,,,,,visual_patterns,0,0,0,yes,1366
undefined,undefined,undefined,undefined,white,no,Mozilla,Netscape,"5.0 (Windows NT 10.0; Win64; x64) AppleWebKit/537.36 (KHTML, like Gecko) Chrome/97.0.4692.99 Safari/537.36 OPR/83.0.4254.70",xpyriment,legacy,legacy,0,uniform,0,0,0,0,24,24,24,0,0,38,38,38,38,38,0,38,0,,,,,,0,,26-01-22,26-01-22,11:58:50,Sat Feb 26 2022 11:58:50 GMT+0100 (Central European Standard Time),The main experiment item,yes,0,0,C:/Users/rrics/Documents/!!ResearchBMECOGSCI/gnet,0,0,0,prototype4.png,no,mono,no,18,no,black,no,no,768,1144,3.5.6,legacy,xpyriment,osweb,1.3.13,0,space,space,space,,18285,14449,18285,,2,legacy,824,1536,24,864,24,0,0,1536,1645873153828,1024,2,48000,-16,experiment,p7sarr1.png,0,even,Win32,496,126475,123473,496,496,399245,400760,394249,127978,394249,496,,,,,,visual_patterns,0,0,0,yes,1366
undefined,undefined,undefined,undefined,white,no,Mozilla,Netscape,"5.0 (Windows NT 10.0; Win64; x64) AppleWebKit/537.36 (KHTML, like Gecko) Chrome/97.0.4692.99 Safari/537.36 OPR/83.0.4254.70",xpyriment,legacy,legacy,0,uniform,0,0,0,0,24,24,24,0,0,39,39,39,39,39,0,39,0,,,,,,0,,26-01-22,26-01-22,11:58:50,Sat Feb 26 2022 11:58:50 GMT+0100 (Central European Standard Time),The main experiment item,yes,0,0,C:/Users/rrics/Documents/!!ResearchBMECOGSCI/gnet,0,0,0,prototype4.png,no,mono,no,18,no,black,no,no,768,1144,3.5.6,legacy,xpyriment,osweb,1.3.13,0,space,space,space,,18285,14449,18285,,2,legacy,824,1536,24,864,24,0,0,1536,1645873153828,1024,2,48000,-16,experiment,p1sarrsha1.png,0,even,Win32,496,126475,123473,496,496,405770,407284,400771,127978,400771,496,,,,,,visual_patterns,0,0,0,yes,1366
undefined,undefined,undefined,undefined,white,no,Mozilla,Netscape,"5.0 (Windows NT 10.0; Win64; x64) AppleWebKit/537.36 (KHTML, like Gecko) Chrome/97.0.4692.99 Safari/537.36 OPR/83.0.4254.70",xpyriment,legacy,legacy,0,uniform,0,0,0,0,24,24,24,0,0,40,40,40,40,40,0,40,0,,,,,,0,,26-01-22,26-01-22,11:58:50,Sat Feb 26 2022 11:58:50 GMT+0100 (Central European Standard Time),The main experiment item,yes,0,0,C:/Users/rrics/Documents/!!ResearchBMECOGSCI/gnet,0,0,0,prototype4.png,no,mono,no,18,no,black,no,no,768,1144,3.5.6,legacy,xpyriment,osweb,1.3.13,0,space,space,space,,18285,14449,18285,,2,legacy,824,1536,24,864,24,0,0,1536,1645873153828,1024,2,48000,-16,experiment,prototype5.png,0,even,Win32,496,126475,123473,496,496,412293,413808,407294,127978,407294,496,,,,,,visual_patterns,0,0,0,yes,1366
undefined,undefined,undefined,undefined,white,no,Mozilla,Netscape,"5.0 (Windows NT 10.0; Win64; x64) AppleWebKit/537.36 (KHTML, like Gecko) Chrome/97.0.4692.99 Safari/537.36 OPR/83.0.4254.70",xpyriment,legacy,legacy,0,uniform,0,0,0,0,24,24,24,0,0,41,41,41,41,41,0,41,0,,,,,,0,,26-01-22,26-01-22,11:58:50,Sat Feb 26 2022 11:58:50 GMT+0100 (Central European Standard Time),The main experiment item,yes,0,0,C:/Users/rrics/Documents/!!ResearchBMECOGSCI/gnet,0,0,0,prototype4.png,no,mono,no,18,no,black,no,no,768,1144,3.5.6,legacy,xpyriment,osweb,1.3.13,0,space,space,space,,18285,14449,18285,,2,legacy,824,1536,24,864,24,0,0,1536,1645873153828,1024,2,48000,-16,experiment,p3sarrshacol2.png,0,even,Win32,496,126475,123473,496,496,418820,420332,413821,127978,413821,496,,,,,,visual_patterns,0,0,0,yes,1366
undefined,undefined,undefined,undefined,white,no,Mozilla,Netscape,"5.0 (Windows NT 10.0; Win64; x64) AppleWebKit/537.36 (KHTML, like Gecko) Chrome/97.0.4692.99 Safari/537.36 OPR/83.0.4254.70",xpyriment,legacy,legacy,0,uniform,0,0,0,0,24,24,24,0,0,42,42,42,42,42,0,42,0,,,,,,0,,26-01-22,26-01-22,11:58:50,Sat Feb 26 2022 11:58:50 GMT+0100 (Central European Standard Time),The main experiment item,yes,0,0,C:/Users/rrics/Documents/!!ResearchBMECOGSCI/gnet,0,0,0,prototype4.png,no,mono,no,18,no,black,no,no,768,1144,3.5.6,legacy,xpyriment,osweb,1.3.13,0,space,space,space,,18285,14449,18285,,2,legacy,824,1536,24,864,24,0,0,1536,1645873153828,1024,2,48000,-16,experiment,p3sarrcol2.png,0,even,Win32,496,126475,123473,496,496,425343,426855,420345,127978,420345,496,,,,,,visual_patterns,0,0,0,yes,1366
undefined,undefined,undefined,undefined,white,no,Mozilla,Netscape,"5.0 (Windows NT 10.0; Win64; x64) AppleWebKit/537.36 (KHTML, like Gecko) Chrome/97.0.4692.99 Safari/537.36 OPR/83.0.4254.70",xpyriment,legacy,legacy,0,uniform,0,0,0,0,24,24,24,0,0,43,43,43,43,43,0,43,0,,,,,,0,,26-01-22,26-01-22,11:58:50,Sat Feb 26 2022 11:58:50 GMT+0100 (Central European Standard Time),The main experiment item,yes,0,0,C:/Users/rrics/Documents/!!ResearchBMECOGSCI/gnet,0,0,0,prototype4.png,no,mono,no,18,no,black,no,no,768,1144,3.5.6,legacy,xpyriment,osweb,1.3.13,0,space,space,space,,18285,14449,18285,,2,legacy,824,1536,24,864,24,0,0,1536,1645873153828,1024,2,48000,-16,experiment,p3sarr2.png,0,even,Win32,496,126475,123473,496,496,431869,433380,426867,127978,426867,496,,,,,,visual_patterns,0,0,0,yes,1366
undefined,undefined,undefined,undefined,white,no,Mozilla,Netscape,"5.0 (Windows NT 10.0; Win64; x64) AppleWebKit/537.36 (KHTML, like Gecko) Chrome/97.0.4692.99 Safari/537.36 OPR/83.0.4254.70",xpyriment,legacy,legacy,0,uniform,0,0,0,0,24,24,24,0,0,44,44,44,44,44,0,44,0,,,,,,0,,26-01-22,26-01-22,11:58:50,Sat Feb 26 2022 11:58:50 GMT+0100 (Central European Standard Time),The main experiment item,yes,0,0,C:/Users/rrics/Documents/!!ResearchBMECOGSCI/gnet,0,0,0,prototype4.png,no,mono,no,18,no,black,no,no,768,1144,3.5.6,legacy,xpyriment,osweb,1.3.13,0,space,space,space,,18285,14449,18285,,2,legacy,824,1536,24,864,24,0,0,1536,1645873153828,1024,2,48000,-16,experiment,p2sarrsha1.png,0,even,Win32,496,126475,123473,496,496,438390,439904,433393,127978,433393,496,,,,,,visual_patterns,0,0,0,yes,1366
undefined,undefined,undefined,undefined,white,no,Mozilla,Netscape,"5.0 (Windows NT 10.0; Win64; x64) AppleWebKit/537.36 (KHTML, like Gecko) Chrome/97.0.4692.99 Safari/537.36 OPR/83.0.4254.70",xpyriment,legacy,legacy,0,uniform,0,0,0,0,24,24,24,0,0,45,45,45,45,45,0,45,0,,,,,,0,,26-01-22,26-01-22,11:58:50,Sat Feb 26 2022 11:58:50 GMT+0100 (Central European Standard Time),The main experiment item,yes,0,0,C:/Users/rrics/Documents/!!ResearchBMECOGSCI/gnet,0,0,0,prototype4.png,no,mono,no,18,no,black,no,no,768,1144,3.5.6,legacy,xpyriment,osweb,1.3.13,0,space,space,space,,18285,14449,18285,,2,legacy,824,1536,24,864,24,0,0,1536,1645873153828,1024,2,48000,-16,experiment,p4sarrsha1.png,0,even,Win32,496,126475,123473,496,496,444916,446427,439923,127978,439923,496,,,,,,visual_patterns,0,0,0,yes,1366
undefined,undefined,undefined,undefined,white,no,Mozilla,Netscape,"5.0 (Windows NT 10.0; Win64; x64) AppleWebKit/537.36 (KHTML, like Gecko) Chrome/97.0.4692.99 Safari/537.36 OPR/83.0.4254.70",xpyriment,legacy,legacy,0,uniform,0,0,0,0,24,24,24,0,0,46,46,46,46,46,0,46,0,,,,,,0,,26-01-22,26-01-22,11:58:50,Sat Feb 26 2022 11:58:50 GMT+0100 (Central European Standard Time),The main experiment item,yes,0,0,C:/Users/rrics/Documents/!!ResearchBMECOGSCI/gnet,0,0,0,prototype4.png,no,mono,no,18,no,black,no,no,768,1144,3.5.6,legacy,xpyriment,osweb,1.3.13,0,space,space,space,,18285,14449,18285,,2,legacy,824,1536,24,864,24,0,0,1536,1645873153828,1024,2,48000,-16,experiment,p1sarrcol1.png,0,even,Win32,496,126475,123473,496,496,451441,452951,446439,127978,446439,496,,,,,,visual_patterns,0,0,0,yes,1366
undefined,undefined,undefined,undefined,white,no,Mozilla,Netscape,"5.0 (Windows NT 10.0; Win64; x64) AppleWebKit/537.36 (KHTML, like Gecko) Chrome/97.0.4692.99 Safari/537.36 OPR/83.0.4254.70",xpyriment,legacy,legacy,0,uniform,0,0,0,0,24,24,24,0,0,47,47,47,47,47,0,47,0,,,,,,0,,26-01-22,26-01-22,11:58:50,Sat Feb 26 2022 11:58:50 GMT+0100 (Central European Standard Time),The main experiment item,yes,0,0,C:/Users/rrics/Documents/!!ResearchBMECOGSCI/gnet,0,0,0,prototype4.png,no,mono,no,18,no,black,no,no,768,1144,3.5.6,legacy,xpyriment,osweb,1.3.13,0,space,space,space,,18285,14449,18285,,2,legacy,824,1536,24,864,24,0,0,1536,1645873153828,1024,2,48000,-16,experiment,p1sarrsha2.png,0,even,Win32,496,126475,123473,496,496,457967,459475,452965,127978,452965,496,,,,,,visual_patterns,0,0,0,yes,1366
undefined,undefined,undefined,undefined,white,no,Mozilla,Netscape,"5.0 (Windows NT 10.0; Win64; x64) AppleWebKit/537.36 (KHTML, like Gecko) Chrome/97.0.4692.99 Safari/537.36 OPR/83.0.4254.70",xpyriment,legacy,legacy,0,uniform,0,0,0,0,24,24,24,0,0,48,48,48,48,48,0,48,0,,,,,,0,,26-01-22,26-01-22,11:58:50,Sat Feb 26 2022 11:58:50 GMT+0100 (Central European Standard Time),The main experiment item,yes,0,0,C:/Users/rrics/Documents/!!ResearchBMECOGSCI/gnet,0,0,0,prototype4.png,no,mono,no,18,no,black,no,no,768,1144,3.5.6,legacy,xpyriment,osweb,1.3.13,0,space,space,space,,18285,14449,18285,,2,legacy,824,1536,24,864,24,0,0,1536,1645873153828,1024,2,48000,-16,experiment,p7sarr2.png,0,even,Win32,496,126475,123473,496,496,464486,465999,459487,127978,459487,496,,,,,,visual_patterns,0,0,0,yes,1366
undefined,undefined,undefined,undefined,white,no,Mozilla,Netscape,"5.0 (Windows NT 10.0; Win64; x64) AppleWebKit/537.36 (KHTML, like Gecko) Chrome/97.0.4692.99 Safari/537.36 OPR/83.0.4254.70",xpyriment,legacy,legacy,0,uniform,0,0,0,0,24,24,24,0,0,49,49,49,49,49,0,49,0,,,,,,0,,26-01-22,26-01-22,11:58:50,Sat Feb 26 2022 11:58:50 GMT+0100 (Central European Standard Time),The main experiment item,yes,0,0,C:/Users/rrics/Documents/!!ResearchBMECOGSCI/gnet,0,0,0,prototype4.png,no,mono,no,18,no,black,no,no,768,1144,3.5.6,legacy,xpyriment,osweb,1.3.13,0,space,space,space,,18285,14449,18285,,2,legacy,824,1536,24,864,24,0,0,1536,1645873153828,1024,2,48000,-16,experiment,p4sarr1.png,0,even,Win32,496,126475,123473,496,496,471010,472523,466012,127978,466012,496,,,,,,visual_patterns,0,0,0,yes,1366
undefined,undefined,undefined,undefined,white,no,Mozilla,Netscape,"5.0 (Windows NT 10.0; Win64; x64) AppleWebKit/537.36 (KHTML, like Gecko) Chrome/97.0.4692.99 Safari/537.36 OPR/83.0.4254.70",xpyriment,legacy,legacy,0,uniform,0,0,0,0,24,24,24,0,0,50,50,50,50,50,0,50,0,,,,,,0,,26-01-22,26-01-22,11:58:50,Sat Feb 26 2022 11:58:50 GMT+0100 (Central European Standard Time),The main experiment item,yes,0,0,C:/Users/rrics/Documents/!!ResearchBMECOGSCI/gnet,0,0,0,prototype4.png,no,mono,no,18,no,black,no,no,768,1144,3.5.6,legacy,xpyriment,osweb,1.3.13,0,space,space,space,,18285,14449,18285,,2,legacy,824,1536,24,864,24,0,0,1536,1645873153828,1024,2,48000,-16,experiment,p10sarr1.png,0,even,Win32,496,126475,123473,496,496,477536,479046,472538,127978,472538,496,,,,,,visual_patterns,0,0,0,yes,1366
undefined,undefined,undefined,undefined,white,no,Mozilla,Netscape,"5.0 (Windows NT 10.0; Win64; x64) AppleWebKit/537.36 (KHTML, like Gecko) Chrome/97.0.4692.99 Safari/537.36 OPR/83.0.4254.70",xpyriment,legacy,legacy,0,uniform,0,0,0,0,24,24,24,0,0,51,51,51,51,51,0,51,0,,,,,,0,,26-01-22,26-01-22,11:58:50,Sat Feb 26 2022 11:58:50 GMT+0100 (Central European Standard Time),The main experiment item,yes,0,0,C:/Users/rrics/Documents/!!ResearchBMECOGSCI/gnet,0,0,0,prototype4.png,no,mono,no,18,no,black,no,no,768,1144,3.5.6,legacy,xpyriment,osweb,1.3.13,0,space,space,space,,18285,14449,18285,,2,legacy,824,1536,24,864,24,0,0,1536,1645873153828,1024,2,48000,-16,experiment,prototype3.png,0,even,Win32,496,126475,123473,496,496,484057,485570,479057,127978,479057,496,,,,,,visual_patterns,0,0,0,yes,1366
undefined,undefined,undefined,undefined,white,no,Mozilla,Netscape,"5.0 (Windows NT 10.0; Win64; x64) AppleWebKit/537.36 (KHTML, like Gecko) Chrome/97.0.4692.99 Safari/537.36 OPR/83.0.4254.70",xpyriment,legacy,legacy,0,uniform,0,0,0,0,24,24,24,0,0,52,52,52,52,52,0,52,0,,,,,,0,,26-01-22,26-01-22,11:58:50,Sat Feb 26 2022 11:58:50 GMT+0100 (Central European Standard Time),The main experiment item,yes,0,0,C:/Users/rrics/Documents/!!ResearchBMECOGSCI/gnet,0,0,0,prototype4.png,no,mono,no,18,no,black,no,no,768,1144,3.5.6,legacy,xpyriment,osweb,1.3.13,0,space,space,space,,18285,14449,18285,,2,legacy,824,1536,24,864,24,0,0,1536,1645873153828,1024,2,48000,-16,experiment,p1sarr1.png,0,even,Win32,496,126475,123473,496,496,490586,492094,485585,127978,485585,496,,,,,,visual_patterns,0,0,0,yes,1366
undefined,undefined,undefined,undefined,white,no,Mozilla,Netscape,"5.0 (Windows NT 10.0; Win64; x64) AppleWebKit/537.36 (KHTML, like Gecko) Chrome/97.0.4692.99 Safari/537.36 OPR/83.0.4254.70",xpyriment,legacy,legacy,0,uniform,0,0,0,0,24,24,24,0,0,53,53,53,53,53,0,53,0,,,,,,0,,26-01-22,26-01-22,11:58:50,Sat Feb 26 2022 11:58:50 GMT+0100 (Central European Standard Time),The main experiment item,yes,0,0,C:/Users/rrics/Documents/!!ResearchBMECOGSCI/gnet,0,0,0,prototype4.png,no,mono,no,18,no,black,no,no,768,1144,3.5.6,legacy,xpyriment,osweb,1.3.13,0,space,space,space,,18285,14449,18285,,2,legacy,824,1536,24,864,24,0,0,1536,1645873153828,1024,2,48000,-16,experiment,p1sarrcol2.png,0,even,Win32,496,126475,123473,496,496,497104,498618,492105,127978,492105,496,,,,,,visual_patterns,0,0,0,yes,1366
undefined,undefined,undefined,undefined,white,no,Mozilla,Netscape,"5.0 (Windows NT 10.0; Win64; x64) AppleWebKit/537.36 (KHTML, like Gecko) Chrome/97.0.4692.99 Safari/537.36 OPR/83.0.4254.70",xpyriment,legacy,legacy,0,uniform,0,0,0,0,24,24,24,0,0,54,54,54,54,54,0,54,0,,,,,,0,,26-01-22,26-01-22,11:58:50,Sat Feb 26 2022 11:58:50 GMT+0100 (Central European Standard Time),The main experiment item,yes,0,0,C:/Users/rrics/Documents/!!ResearchBMECOGSCI/gnet,0,0,0,prototype4.png,no,mono,no,18,no,black,no,no,768,1144,3.5.6,legacy,xpyriment,osweb,1.3.13,0,space,space,space,,18285,14449,18285,,2,legacy,824,1536,24,864,24,0,0,1536,1645873153828,1024,2,48000,-16,experiment,p2sarrcol2.png,0,even,Win32,496,126475,123473,496,496,503627,505142,498630,127978,498630,496,,,,,,visual_patterns,0,0,0,yes,1366
undefined,undefined,undefined,undefined,white,no,Mozilla,Netscape,"5.0 (Windows NT 10.0; Win64; x64) AppleWebKit/537.36 (KHTML, like Gecko) Chrome/97.0.4692.99 Safari/537.36 OPR/83.0.4254.70",xpyriment,legacy,legacy,0,uniform,0,0,0,0,24,24,24,0,0,55,55,55,55,55,0,55,0,,,,,,0,,26-01-22,26-01-22,11:58:50,Sat Feb 26 2022 11:58:50 GMT+0100 (Central European Standard Time),The main experiment item,yes,0,0,C:/Users/rrics/Documents/!!ResearchBMECOGSCI/gnet,0,0,0,prototype4.png,no,mono,no,18,no,black,no,no,768,1144,3.5.6,legacy,xpyriment,osweb,1.3.13,0,space,space,space,,18285,14449,18285,,2,legacy,824,1536,24,864,24,0,0,1536,1645873153828,1024,2,48000,-16,experiment,prototype4.png,0,even,Win32,496,126475,123473,496,496,510155,511666,505153,127978,505153,496,,,,,,visual_patterns,0,0,0,yes,1366
undefined,undefined,undefined,undefined,white,no,Mozilla,Netscape,"5.0 (Windows NT 10.0; Win64; x64) AppleWebKit/537.36 (KHTML, like Gecko) Chrome/97.0.4692.99 Safari/537.36 OPR/83.0.4254.70",xpyriment,legacy,legacy,0,uniform,0,0,0,0,24,24,24,0,0,56,56,56,56,56,0,56,0,,,,,,0,,26-01-22,26-01-22,11:58:50,Sat Feb 26 2022 11:58:50 GMT+0100 (Central European Standard Time),The main experiment item,yes,0,0,C:/Users/rrics/Documents/!!ResearchBMECOGSCI/gnet,0,0,0,prototype4.png,no,mono,no,18,no,black,no,no,768,1144,3.5.6,legacy,xpyriment,osweb,1.3.13,0,space,space,space,,18285,14449,18285,,2,legacy,824,1536,24,864,24,0,0,1536,1645873153828,1024,2,48000,-16,experiment,p2sarrshacol1.png,0,even,Win32,496,126475,123473,496,496,516691,518206,511690,127978,511690,496,,,,,,visual_patterns,0,0,0,yes,1366
undefined,undefined,undefined,undefined,white,no,Mozilla,Netscape,"5.0 (Windows NT 10.0; Win64; x64) AppleWebKit/537.36 (KHTML, like Gecko) Chrome/97.0.4692.99 Safari/537.36 OPR/83.0.4254.70",xpyriment,legacy,legacy,0,uniform,0,0,0,0,24,24,24,0,0,57,57,57,57,57,0,57,0,,,,,,0,,26-01-22,26-01-22,11:58:50,Sat Feb 26 2022 11:58:50 GMT+0100 (Central European Standard Time),The main experiment item,yes,0,0,C:/Users/rrics/Documents/!!ResearchBMECOGSCI/gnet,0,0,0,prototype4.png,no,mono,no,18,no,black,no,no,768,1144,3.5.6,legacy,xpyriment,osweb,1.3.13,0,space,space,space,,18285,14449,18285,,2,legacy,824,1536,24,864,24,0,0,1536,1645873153828,1024,2,48000,-16,experiment,prototype5.png,0,even,Win32,496,126475,123473,496,496,523216,524730,518216,127978,518216,496,,,,,,visual_patterns,0,0,0,yes,1366
undefined,undefined,undefined,undefined,white,no,Mozilla,Netscape,"5.0 (Windows NT 10.0; Win64; x64) AppleWebKit/537.36 (KHTML, like Gecko) Chrome/97.0.4692.99 Safari/537.36 OPR/83.0.4254.70",xpyriment,legacy,legacy,0,uniform,0,0,0,0,24,24,24,0,0,58,58,58,58,58,0,58,0,,,,,,0,,26-01-22,26-01-22,11:58:50,Sat Feb 26 2022 11:58:50 GMT+0100 (Central European Standard Time),The main experiment item,yes,0,0,C:/Users/rrics/Documents/!!ResearchBMECOGSCI/gnet,0,0,0,prototype4.png,no,mono,no,18,no,black,no,no,768,1144,3.5.6,legacy,xpyriment,osweb,1.3.13,0,space,space,space,,18285,14449,18285,,2,legacy,824,1536,24,864,24,0,0,1536,1645873153828,1024,2,48000,-16,experiment,prototype2.png,0,even,Win32,496,126475,123473,496,496,529742,531254,524739,127978,524739,496,,,,,,visual_patterns,0,0,0,yes,1366
undefined,undefined,undefined,undefined,white,no,Mozilla,Netscape,"5.0 (Windows NT 10.0; Win64; x64) AppleWebKit/537.36 (KHTML, like Gecko) Chrome/97.0.4692.99 Safari/537.36 OPR/83.0.4254.70",xpyriment,legacy,legacy,0,uniform,0,0,0,0,24,24,24,0,0,59,59,59,59,59,0,59,0,,,,,,0,,26-01-22,26-01-22,11:58:50,Sat Feb 26 2022 11:58:50 GMT+0100 (Central European Standard Time),The main experiment item,yes,0,0,C:/Users/rrics/Documents/!!ResearchBMECOGSCI/gnet,0,0,0,prototype4.png,no,mono,no,18,no,black,no,no,768,1144,3.5.6,legacy,xpyriment,osweb,1.3.13,0,space,space,space,,18285,14449,18285,,2,legacy,824,1536,24,864,24,0,0,1536,1645873153828,1024,2,48000,-16,experiment,prototype5.png,0,even,Win32,496,126475,123473,496,496,536267,537778,531264,127978,531264,496,,,,,,visual_patterns,0,0,0,yes,1366
undefined,undefined,undefined,undefined,white,no,Mozilla,Netscape,"5.0 (Windows NT 10.0; Win64; x64) AppleWebKit/537.36 (KHTML, like Gecko) Chrome/97.0.4692.99 Safari/537.36 OPR/83.0.4254.70",xpyriment,legacy,legacy,0,uniform,0,0,0,0,24,24,24,0,0,60,60,60,60,60,0,60,0,,,,,,0,,26-01-22,26-01-22,11:58:50,Sat Feb 26 2022 11:58:50 GMT+0100 (Central European Standard Time),The main experiment item,yes,0,0,C:/Users/rrics/Documents/!!ResearchBMECOGSCI/gnet,0,0,0,prototype4.png,no,mono,no,18,no,black,no,no,768,1144,3.5.6,legacy,xpyriment,osweb,1.3.13,0,space,space,space,,18285,14449,18285,,2,legacy,824,1536,24,864,24,0,0,1536,1645873153828,1024,2,48000,-16,experiment,p1sarrshacol2.png,0,even,Win32,496,126475,123473,496,496,542790,544301,537791,127978,537791,496,,,,,,visual_patterns,0,0,0,yes,1366
undefined,undefined,undefined,undefined,white,no,Mozilla,Netscape,"5.0 (Windows NT 10.0; Win64; x64) AppleWebKit/537.36 (KHTML, like Gecko) Chrome/97.0.4692.99 Safari/537.36 OPR/83.0.4254.70",xpyriment,legacy,legacy,0,uniform,0,0,0,0,24,24,24,0,0,61,61,61,61,61,0,61,0,,,,,,0,,26-01-22,26-01-22,11:58:50,Sat Feb 26 2022 11:58:50 GMT+0100 (Central European Standard Time),The main experiment item,yes,0,0,C:/Users/rrics/Documents/!!ResearchBMECOGSCI/gnet,0,0,0,prototype4.png,no,mono,no,18,no,black,no,no,768,1144,3.5.6,legacy,xpyriment,osweb,1.3.13,0,space,space,space,,18285,14449,18285,,2,legacy,824,1536,24,864,24,0,0,1536,1645873153828,1024,2,48000,-16,experiment,p2sarrcol1.png,0,even,Win32,496,126475,123473,496,496,549322,550825,544323,127978,544323,496,,,,,,visual_patterns,0,0,0,yes,1366
undefined,undefined,undefined,undefined,white,no,Mozilla,Netscape,"5.0 (Windows NT 10.0; Win64; x64) AppleWebKit/537.36 (KHTML, like Gecko) Chrome/97.0.4692.99 Safari/537.36 OPR/83.0.4254.70",xpyriment,legacy,legacy,0,uniform,0,0,0,0,24,24,24,0,0,62,62,62,62,62,0,62,0,,,,,,0,,26-01-22,26-01-22,11:58:50,Sat Feb 26 2022 11:58:50 GMT+0100 (Central European Standard Time),The main experiment item,yes,0,0,C:/Users/rrics/Documents/!!ResearchBMECOGSCI/gnet,0,0,0,prototype4.png,no,mono,no,18,no,black,no,no,768,1144,3.5.6,legacy,xpyriment,osweb,1.3.13,0,space,space,space,,18285,14449,18285,,2,legacy,824,1536,24,864,24,0,0,1536,1645873153828,1024,2,48000,-16,experiment,p5sarr2.png,0,even,Win32,496,126475,123473,496,496,555836,557350,550835,127978,550835,496,,,,,,visual_patterns,0,0,0,yes,1366
undefined,undefined,undefined,undefined,white,no,Mozilla,Netscape,"5.0 (Windows NT 10.0; Win64; x64) AppleWebKit/537.36 (KHTML, like Gecko) Chrome/97.0.4692.99 Safari/537.36 OPR/83.0.4254.70",xpyriment,legacy,legacy,0,uniform,0,0,0,0,24,24,24,0,0,63,63,63,63,63,0,63,0,,,,,,0,,26-01-22,26-01-22,11:58:50,Sat Feb 26 2022 11:58:50 GMT+0100 (Central European Standard Time),The main experiment item,yes,0,0,C:/Users/rrics/Documents/!!ResearchBMECOGSCI/gnet,0,0,0,prototype4.png,no,mono,no,18,no,black,no,no,768,1144,3.5.6,legacy,xpyriment,osweb,1.3.13,0,space,space,space,,18285,14449,18285,,2,legacy,824,1536,24,864,24,0,0,1536,1645873153828,1024,2,48000,-16,experiment,p10sarr2.png,0,even,Win32,496,126475,123473,496,496,562361,563873,557363,127978,557363,496,,,,,,visual_patterns,0,0,0,yes,1366
undefined,undefined,undefined,undefined,white,no,Mozilla,Netscape,"5.0 (Windows NT 10.0; Win64; x64) AppleWebKit/537.36 (KHTML, like Gecko) Chrome/97.0.4692.99 Safari/537.36 OPR/83.0.4254.70",xpyriment,legacy,legacy,0,uniform,0,0,0,0,24,24,24,0,0,64,64,64,64,64,0,64,0,,,,,,0,,26-01-22,26-01-22,11:58:50,Sat Feb 26 2022 11:58:50 GMT+0100 (Central European Standard Time),The main experiment item,yes,0,0,C:/Users/rrics/Documents/!!ResearchBMECOGSCI/gnet,0,0,0,prototype4.png,no,mono,no,18,no,black,no,no,768,1144,3.5.6,legacy,xpyriment,osweb,1.3.13,0,space,space,space,,18285,14449,18285,,2,legacy,824,1536,24,864,24,0,0,1536,1645873153828,1024,2,48000,-16,experiment,prototype1.png,0,even,Win32,496,126475,123473,496,496,568883,570397,563881,127978,563881,496,,,,,,visual_patterns,0,0,0,yes,1366
undefined,undefined,undefined,undefined,white,no,Mozilla,Netscape,"5.0 (Windows NT 10.0; Win64; x64) AppleWebKit/537.36 (KHTML, like Gecko) Chrome/97.0.4692.99 Safari/537.36 OPR/83.0.4254.70",xpyriment,legacy,legacy,0,uniform,0,0,0,0,24,24,24,0,0,65,65,65,65,65,0,65,0,,,,,,0,,26-01-22,26-01-22,11:58:50,Sat Feb 26 2022 11:58:50 GMT+0100 (Central European Standard Time),The main experiment item,yes,0,0,C:/Users/rrics/Documents/!!ResearchBMECOGSCI/gnet,0,0,0,prototype4.png,no,mono,no,18,no,black,no,no,768,1144,3.5.6,legacy,xpyriment,osweb,1.3.13,0,space,space,space,,18285,14449,18285,,2,legacy,824,1536,24,864,24,0,0,1536,1645873153828,1024,2,48000,-16,experiment,prototype4.png,0,even,Win32,496,126475,123473,496,496,575414,576921,570410,127978,570410,496,,,,,,visual_patterns,0,0,0,yes,1366
undefined,undefined,undefined,undefined,white,no,Mozilla,Netscape,"5.0 (Windows NT 10.0; Win64; x64) AppleWebKit/537.36 (KHTML, like Gecko) Chrome/97.0.4692.99 Safari/537.36 OPR/83.0.4254.70",xpyriment,legacy,legacy,0,uniform,0,0,0,0,24,24,24,0,0,66,66,66,66,66,0,66,0,,,,,,0,,26-01-22,26-01-22,11:58:50,Sat Feb 26 2022 11:58:50 GMT+0100 (Central European Standard Time),The main experiment item,yes,0,0,C:/Users/rrics/Documents/!!ResearchBMECOGSCI/gnet,0,0,0,prototype4.png,no,mono,no,18,no,black,no,no,768,1144,3.5.6,legacy,xpyriment,osweb,1.3.13,0,space,space,space,,18285,14449,18285,,2,legacy,824,1536,24,864,24,0,0,1536,1645873153828,1024,2,48000,-16,experiment,p2sarrshacol2.png,0,even,Win32,496,126475,123473,496,496,581953,583461,576950,127978,576950,496,,,,,,visual_patterns,0,0,0,yes,1366
undefined,undefined,undefined,undefined,white,no,Mozilla,Netscape,"5.0 (Windows NT 10.0; Win64; x64) AppleWebKit/537.36 (KHTML, like Gecko) Chrome/97.0.4692.99 Safari/537.36 OPR/83.0.4254.70",xpyriment,legacy,legacy,0,uniform,0,0,0,0,24,24,24,0,0,67,67,67,67,67,0,67,0,,,,,,0,,26-01-22,26-01-22,11:58:50,Sat Feb 26 2022 11:58:50 GMT+0100 (Central European Standard Time),The main experiment item,yes,0,0,C:/Users/rrics/Documents/!!ResearchBMECOGSCI/gnet,0,0,0,prototype4.png,no,mono,no,18,no,black,no,no,768,1144,3.5.6,legacy,xpyriment,osweb,1.3.13,0,space,space,space,,18285,14449,18285,,2,legacy,824,1536,24,864,24,0,0,1536,1645873153828,1024,2,48000,-16,experiment,p1sarr2.png,0,even,Win32,496,126475,123473,496,496,588473,589985,583474,127978,583474,496,,,,,,visual_patterns,0,0,0,yes,1366
undefined,undefined,undefined,undefined,white,no,Mozilla,Netscape,"5.0 (Windows NT 10.0; Win64; x64) AppleWebKit/537.36 (KHTML, like Gecko) Chrome/97.0.4692.99 Safari/537.36 OPR/83.0.4254.70",xpyriment,legacy,legacy,0,uniform,0,0,0,0,24,24,24,0,0,68,68,68,68,68,0,68,0,,,,,,0,,26-01-22,26-01-22,11:58:50,Sat Feb 26 2022 11:58:50 GMT+0100 (Central European Standard Time),The main experiment item,yes,0,0,C:/Users/rrics/Documents/!!ResearchBMECOGSCI/gnet,0,0,0,prototype4.png,no,mono,no,18,no,black,no,no,768,1144,3.5.6,legacy,xpyriment,osweb,1.3.13,0,space,space,space,,18285,14449,18285,,2,legacy,824,1536,24,864,24,0,0,1536,1645873153828,1024,2,48000,-16,experiment,p6sarr2.png,0,even,Win32,496,126475,123473,496,496,594996,596509,589998,127978,589997,496,,,,,,visual_patterns,0,0,0,yes,1366
undefined,undefined,undefined,undefined,white,no,Mozilla,Netscape,"5.0 (Windows NT 10.0; Win64; x64) AppleWebKit/537.36 (KHTML, like Gecko) Chrome/97.0.4692.99 Safari/537.36 OPR/83.0.4254.70",xpyriment,legacy,legacy,0,uniform,0,0,0,0,24,24,24,0,0,69,69,69,69,69,0,69,0,,,,,,0,,26-01-22,26-01-22,11:58:50,Sat Feb 26 2022 11:58:50 GMT+0100 (Central European Standard Time),The main experiment item,yes,0,0,C:/Users/rrics/Documents/!!ResearchBMECOGSCI/gnet,0,0,0,prototype4.png,no,mono,no,18,no,black,no,no,768,1144,3.5.6,legacy,xpyriment,osweb,1.3.13,0,space,space,space,,18285,14449,18285,,2,legacy,824,1536,24,864,24,0,0,1536,1645873153828,1024,2,48000,-16,experiment,prototype2.png,0,even,Win32,496,126475,123473,496,496,601523,603033,596520,127978,596520,496,,,,,,visual_patterns,0,0,0,yes,1366
undefined,undefined,undefined,undefined,white,no,Mozilla,Netscape,"5.0 (Windows NT 10.0; Win64; x64) AppleWebKit/537.36 (KHTML, like Gecko) Chrome/97.0.4692.99 Safari/537.36 OPR/83.0.4254.70",xpyriment,legacy,legacy,0,uniform,0,0,0,0,24,24,24,0,0,70,70,70,70,70,0,70,0,,,,,,0,,26-01-22,26-01-22,11:58:50,Sat Feb 26 2022 11:58:50 GMT+0100 (Central European Standard Time),The main experiment item,yes,0,0,C:/Users/rrics/Documents/!!ResearchBMECOGSCI/gnet,0,0,0,prototype4.png,no,mono,no,18,no,black,no,no,768,1144,3.5.6,legacy,xpyriment,osweb,1.3.13,0,space,space,space,,18285,14449,18285,,2,legacy,824,1536,24,864,24,0,0,1536,1645873153828,1024,2,48000,-16,experiment,p1sarrshacol1.png,0,even,Win32,496,126475,123473,496,496,608044,609556,603046,127978,603046,496,,,,,,visual_patterns,0,0,0,yes,1366
undefined,undefined,undefined,undefined,white,no,Mozilla,Netscape,"5.0 (Windows NT 10.0; Win64; x64) AppleWebKit/537.36 (KHTML, like Gecko) Chrome/97.0.4692.99 Safari/537.36 OPR/83.0.4254.70",xpyriment,legacy,legacy,0,uniform,0,0,0,0,24,24,24,0,0,71,71,71,71,71,0,71,0,,,,,,0,,26-01-22,26-01-22,11:58:50,Sat Feb 26 2022 11:58:50 GMT+0100 (Central European Standard Time),The main experiment item,yes,0,0,C:/Users/rrics/Documents/!!ResearchBMECOGSCI/gnet,0,0,0,prototype4.png,no,mono,no,18,no,black,no,no,768,1144,3.5.6,legacy,xpyriment,osweb,1.3.13,0,space,space,space,,18285,14449,18285,,2,legacy,824,1536,24,864,24,0,0,1536,1645873153828,1024,2,48000,-16,experiment,prototype1.png,0,even,Win32,496,126475,123473,496,496,614566,616081,609563,127978,609563,496,,,,,,visual_patterns,0,0,0,yes,1366
undefined,undefined,undefined,undefined,white,no,Mozilla,Netscape,"5.0 (Windows NT 10.0; Win64; x64) AppleWebKit/537.36 (KHTML, like Gecko) Chrome/97.0.4692.99 Safari/537.36 OPR/83.0.4254.70",xpyriment,legacy,legacy,0,uniform,0,0,0,0,24,24,24,0,0,72,72,72,72,72,0,72,0,,,,,,0,,26-01-22,26-01-22,11:58:50,Sat Feb 26 2022 11:58:50 GMT+0100 (Central European Standard Time),The main experiment item,yes,0,0,C:/Users/rrics/Documents/!!ResearchBMECOGSCI/gnet,0,0,0,prototype4.png,no,mono,no,18,no,black,no,no,768,1144,3.5.6,legacy,xpyriment,osweb,1.3.13,0,space,space,space,,18285,14449,18285,,2,legacy,824,1536,24,864,24,0,0,1536,1645873153828,1024,2,48000,-16,experiment,prototype5.png,0,even,Win32,496,126475,123473,496,496,621093,622605,616094,127978,616094,496,,,,,,visual_patterns,0,0,0,yes,1366
undefined,undefined,undefined,undefined,white,no,Mozilla,Netscape,"5.0 (Windows NT 10.0; Win64; x64) AppleWebKit/537.36 (KHTML, like Gecko) Chrome/97.0.4692.99 Safari/537.36 OPR/83.0.4254.70",xpyriment,legacy,legacy,0,uniform,0,0,0,0,24,24,24,0,0,73,73,73,73,73,0,73,0,,,,,,0,,26-01-22,26-01-22,11:58:50,Sat Feb 26 2022 11:58:50 GMT+0100 (Central European Standard Time),The main experiment item,yes,0,0,C:/Users/rrics/Documents/!!ResearchBMECOGSCI/gnet,0,0,0,prototype4.png,no,mono,no,18,no,black,no,no,768,1144,3.5.6,legacy,xpyriment,osweb,1.3.13,0,space,space,space,,18285,14449,18285,,2,legacy,824,1536,24,864,24,0,0,1536,1645873153828,1024,2,48000,-16,experiment,prototype3.png,0,even,Win32,496,126475,123473,496,496,627615,629128,622615,127978,622615,496,,,,,,visual_patterns,0,0,0,yes,1366
undefined,undefined,undefined,undefined,white,no,Mozilla,Netscape,"5.0 (Windows NT 10.0; Win64; x64) AppleWebKit/537.36 (KHTML, like Gecko) Chrome/97.0.4692.99 Safari/537.36 OPR/83.0.4254.70",xpyriment,legacy,legacy,0,uniform,0,0,0,0,24,24,24,0,0,74,74,74,74,74,0,74,0,,,,,,0,,26-01-22,26-01-22,11:58:50,Sat Feb 26 2022 11:58:50 GMT+0100 (Central European Standard Time),The main experiment item,yes,0,0,C:/Users/rrics/Documents/!!ResearchBMECOGSCI/gnet,0,0,0,prototype4.png,no,mono,no,18,no,black,no,no,768,1144,3.5.6,legacy,xpyriment,osweb,1.3.13,0,space,space,space,,18285,14449,18285,,2,legacy,824,1536,24,864,24,0,0,1536,1645873153828,1024,2,48000,-16,experiment,prototype2.png,0,even,Win32,496,126475,123473,496,496,634139,635652,629135,127978,629135,496,,,,,,visual_patterns,0,0,0,yes,1366
undefined,undefined,undefined,undefined,white,no,Mozilla,Netscape,"5.0 (Windows NT 10.0; Win64; x64) AppleWebKit/537.36 (KHTML, like Gecko) Chrome/97.0.4692.99 Safari/537.36 OPR/83.0.4254.70",xpyriment,legacy,legacy,0,uniform,0,0,0,0,24,24,24,0,0,74,74,74,74,74,0,74,0,0,0,0,0,0,0,0,26-01-22,26-01-22,11:58:50,Sat Feb 26 2022 11:58:50 GMT+0100 (Central European Standard Time),The main experiment item,yes,0,0,C:/Users/rrics/Documents/!!ResearchBMECOGSCI/gnet,0,0,0,prototype4.png,no,mono,no,18,no,black,no,no,768,1144,3.5.6,legacy,xpyriment,osweb,1.3.13,0,space,space,space,space,30976,14449,18285,30976,2,legacy,824,1536,24,864,24,0,0,1536,1645873153828,1024,2,48000,-16,experiment,p5sarrsha3.png,0,even,Win32,496,126475,123473,496,496,634139,635652,629135,127978,629135,496,669670,671174,666673,635657,666673,visual_patterns,0,0,0,yes,1366
undefined,undefined,undefined,undefined,white,no,Mozilla,Netscape,"5.0 (Windows NT 10.0; Win64; x64) AppleWebKit/537.36 (KHTML, like Gecko) Chrome/97.0.4692.99 Safari/537.36 OPR/83.0.4254.70",xpyriment,legacy,legacy,0,uniform,0,0,0,0,24,24,24,0,0,74,74,74,74,74,0,74,0,1,1,1,1,1,0,1,26-01-22,26-01-22,11:58:50,Sat Feb 26 2022 11:58:50 GMT+0100 (Central European Standard Time),The main experiment item,yes,0,0,C:/Users/rrics/Documents/!!ResearchBMECOGSCI/gnet,0,0,0,prototype4.png,no,mono,no,18,no,black,no,no,768,1144,3.5.6,legacy,xpyriment,osweb,1.3.13,0,space,space,space,space,30976,14449,18285,30976,2,legacy,824,1536,24,864,24,0,0,1536,1645873153828,1024,2,48000,-16,experiment,p2sarrshacol1.png,0,even,Win32,496,126475,123473,496,496,634139,635652,629135,127978,629135,496,674200,675713,671200,635657,671200,visual_patterns,0,0,0,yes,1366
undefined,undefined,undefined,undefined,white,no,Mozilla,Netscape,"5.0 (Windows NT 10.0; Win64; x64) AppleWebKit/537.36 (KHTML, like Gecko) Chrome/97.0.4692.99 Safari/537.36 OPR/83.0.4254.70",xpyriment,legacy,legacy,0,uniform,0,0,0,0,24,24,24,0,0,74,74,74,74,74,0,74,0,2,2,2,2,2,0,2,26-01-22,26-01-22,11:58:50,Sat Feb 26 2022 11:58:50 GMT+0100 (Central European Standard Time),The main experiment item,yes,0,0,C:/Users/rrics/Documents/!!ResearchBMECOGSCI/gnet,0,0,0,prototype4.png,no,mono,no,18,no,black,no,no,768,1144,3.5.6,legacy,xpyriment,osweb,1.3.13,0,space,space,space,space,30976,14449,18285,30976,2,legacy,824,1536,24,864,24,0,0,1536,1645873153828,1024,2,48000,-16,experiment,p4sarr4.png,0,even,Win32,496,126475,123473,496,496,634139,635652,629135,127978,629135,496,678730,680235,675728,635657,675728,visual_patterns,0,0,0,yes,1366
undefined,undefined,undefined,undefined,white,no,Mozilla,Netscape,"5.0 (Windows NT 10.0; Win64; x64) AppleWebKit/537.36 (KHTML, like Gecko) Chrome/97.0.4692.99 Safari/537.36 OPR/83.0.4254.70",xpyriment,legacy,legacy,0,uniform,0,0,0,0,24,24,24,0,0,74,74,74,74,74,0,74,0,3,3,3,3,3,0,3,26-01-22,26-01-22,11:58:50,Sat Feb 26 2022 11:58:50 GMT+0100 (Central European Standard Time),The main experiment item,yes,0,0,C:/Users/rrics/Documents/!!ResearchBMECOGSCI/gnet,0,0,0,prototype4.png,no,mono,no,18,no,black,no,no,768,1144,3.5.6,legacy,xpyriment,osweb,1.3.13,0,space,space,space,space,30976,14449,18285,30976,2,legacy,824,1536,24,864,24,0,0,1536,1645873153828,1024,2,48000,-16,experiment,p5sarrsha2.png,0,even,Win32,496,126475,123473,496,496,634139,635652,629135,127978,629135,496,683254,684756,680251,635657,680251,visual_patterns,0,0,0,yes,1366
undefined,undefined,undefined,undefined,white,no,Mozilla,Netscape,"5.0 (Windows NT 10.0; Win64; x64) AppleWebKit/537.36 (KHTML, like Gecko) Chrome/97.0.4692.99 Safari/537.36 OPR/83.0.4254.70",xpyriment,legacy,legacy,0,uniform,0,0,0,0,24,24,24,0,0,74,74,74,74,74,0,74,0,4,4,4,4,4,0,4,26-01-22,26-01-22,11:58:50,Sat Feb 26 2022 11:58:50 GMT+0100 (Central European Standard Time),The main experiment item,yes,0,0,C:/Users/rrics/Documents/!!ResearchBMECOGSCI/gnet,0,0,0,prototype4.png,no,mono,no,18,no,black,no,no,768,1144,3.5.6,legacy,xpyriment,osweb,1.3.13,0,space,space,space,space,30976,14449,18285,30976,2,legacy,824,1536,24,864,24,0,0,1536,1645873153828,1024,2,48000,-16,experiment,p7sarr2.png,0,even,Win32,496,126475,123473,496,496,634139,635652,629135,127978,629135,496,687770,689278,684770,635657,684770,visual_patterns,0,0,0,yes,1366
undefined,undefined,undefined,undefined,white,no,Mozilla,Netscape,"5.0 (Windows NT 10.0; Win64; x64) AppleWebKit/537.36 (KHTML, like Gecko) Chrome/97.0.4692.99 Safari/537.36 OPR/83.0.4254.70",xpyriment,legacy,legacy,0,uniform,0,0,0,0,24,24,24,0,0,74,74,74,74,74,0,74,0,5,5,5,5,5,0,5,26-01-22,26-01-22,11:58:50,Sat Feb 26 2022 11:58:50 GMT+0100 (Central European Standard Time),The main experiment item,yes,0,0,C:/Users/rrics/Documents/!!ResearchBMECOGSCI/gnet,0,0,0,prototype4.png,no,mono,no,18,no,black,no,no,768,1144,3.5.6,legacy,xpyriment,osweb,1.3.13,0,space,space,space,space,30976,14449,18285,30976,2,legacy,824,1536,24,864,24,0,0,1536,1645873153828,1024,2,48000,-16,experiment,p1sarrsha4.png,0,even,Win32,496,126475,123473,496,496,634139,635652,629135,127978,629135,496,692296,693799,689299,635657,689299,visual_patterns,0,0,0,yes,1366
undefined,undefined,undefined,undefined,white,no,Mozilla,Netscape,"5.0 (Windows NT 10.0; Win64; x64) AppleWebKit/537.36 (KHTML, like Gecko) Chrome/97.0.4692.99 Safari/537.36 OPR/83.0.4254.70",xpyriment,legacy,legacy,0,uniform,0,0,0,0,24,24,24,0,0,74,74,74,74,74,0,74,0,6,6,6,6,6,0,6,26-01-22,26-01-22,11:58:50,Sat Feb 26 2022 11:58:50 GMT+0100 (Central European Standard Time),The main experiment item,yes,0,0,C:/Users/rrics/Documents/!!ResearchBMECOGSCI/gnet,0,0,0,prototype4.png,no,mono,no,18,no,black,no,no,768,1144,3.5.6,legacy,xpyriment,osweb,1.3.13,0,space,space,space,space,30976,14449,18285,30976,2,legacy,824,1536,24,864,24,0,0,1536,1645873153828,1024,2,48000,-16,experiment,p3sarrcol2.png,0,even,Win32,496,126475,123473,496,496,634139,635652,629135,127978,629135,496,696824,698338,693824,635657,693824,visual_patterns,0,0,0,yes,1366
undefined,undefined,undefined,undefined,white,no,Mozilla,Netscape,"5.0 (Windows NT 10.0; Win64; x64) AppleWebKit/537.36 (KHTML, like Gecko) Chrome/97.0.4692.99 Safari/537.36 OPR/83.0.4254.70",xpyriment,legacy,legacy,0,uniform,0,0,0,0,24,24,24,0,0,74,74,74,74,74,0,74,0,7,7,7,7,7,0,7,26-01-22,26-01-22,11:58:50,Sat Feb 26 2022 11:58:50 GMT+0100 (Central European Standard Time),The main experiment item,yes,0,0,C:/Users/rrics/Documents/!!ResearchBMECOGSCI/gnet,0,0,0,prototype4.png,no,mono,no,18,no,black,no,no,768,1144,3.5.6,legacy,xpyriment,osweb,1.3.13,0,space,space,space,space,30976,14449,18285,30976,2,legacy,824,1536,24,864,24,0,0,1536,1645873153828,1024,2,48000,-16,experiment,p3sarrcol3.png,0,even,Win32,496,126475,123473,496,496,634139,635652,629135,127978,629135,496,701351,702860,698352,635657,698352,visual_patterns,0,0,0,yes,1366
undefined,undefined,undefined,undefined,white,no,Mozilla,Netscape,"5.0 (Windows NT 10.0; Win64; x64) AppleWebKit/537.36 (KHTML, like Gecko) Chrome/97.0.4692.99 Safari/537.36 OPR/83.0.4254.70",xpyriment,legacy,legacy,0,uniform,0,0,0,0,24,24,24,0,0,74,74,74,74,74,0,74,0,8,8,8,8,8,0,8,26-01-22,26-01-22,11:58:50,Sat Feb 26 2022 11:58:50 GMT+0100 (Central European Standard Time),The main experiment item,yes,0,0,C:/Users/rrics/Documents/!!ResearchBMECOGSCI/gnet,0,0,0,prototype4.png,no,mono,no,18,no,black,no,no,768,1144,3.5.6,legacy,xpyriment,osweb,1.3.13,0,space,space,space,space,30976,14449,18285,30976,2,legacy,824,1536,24,864,24,0,0,1536,1645873153828,1024,2,48000,-16,experiment,p1sarrsha1.png,0,even,Win32,496,126475,123473,496,496,634139,635652,629135,127978,629135,496,705880,707382,702877,635657,702877,visual_patterns,0,0,0,yes,1366
undefined,undefined,undefined,undefined,white,no,Mozilla,Netscape,"5.0 (Windows NT 10.0; Win64; x64) AppleWebKit/537.36 (KHTML, like Gecko) Chrome/97.0.4692.99 Safari/537.36 OPR/83.0.4254.70",xpyriment,legacy,legacy,0,uniform,0,0,0,0,24,24,24,0,0,74,74,74,74,74,0,74,0,9,9,9,9,9,0,9,26-01-22,26-01-22,11:58:50,Sat Feb 26 2022 11:58:50 GMT+0100 (Central European Standard Time),The main experiment item,yes,0,0,C:/Users/rrics/Documents/!!ResearchBMECOGSCI/gnet,0,0,0,prototype4.png,no,mono,no,18,no,black,no,no,768,1144,3.5.6,legacy,xpyriment,osweb,1.3.13,0,space,space,space,space,30976,14449,18285,30976,2,legacy,824,1536,24,864,24,0,0,1536,1645873153828,1024,2,48000,-16,experiment,p4sarr1.png,0,even,Win32,496,126475,123473,496,496,634139,635652,629135,127978,629135,496,710397,711903,707395,635657,707395,visual_patterns,0,0,0,yes,1366
undefined,undefined,undefined,undefined,white,no,Mozilla,Netscape,"5.0 (Windows NT 10.0; Win64; x64) AppleWebKit/537.36 (KHTML, like Gecko) Chrome/97.0.4692.99 Safari/537.36 OPR/83.0.4254.70",xpyriment,legacy,legacy,0,uniform,0,0,0,0,24,24,24,0,0,74,74,74,74,74,0,74,0,10,10,10,10,10,0,10,26-01-22,26-01-22,11:58:50,Sat Feb 26 2022 11:58:50 GMT+0100 (Central European Standard Time),The main experiment item,yes,0,0,C:/Users/rrics/Documents/!!ResearchBMECOGSCI/gnet,0,0,0,prototype4.png,no,mono,no,18,no,black,no,no,768,1144,3.5.6,legacy,xpyriment,osweb,1.3.13,0,space,space,space,space,30976,14449,18285,30976,2,legacy,824,1536,24,864,24,0,0,1536,1645873153828,1024,2,48000,-16,experiment,p9sarr2.png,0,even,Win32,496,126475,123473,496,496,634139,635652,629135,127978,629135,496,714916,716424,711916,635657,711916,visual_patterns,0,0,0,yes,1366
undefined,undefined,undefined,undefined,white,no,Mozilla,Netscape,"5.0 (Windows NT 10.0; Win64; x64) AppleWebKit/537.36 (KHTML, like Gecko) Chrome/97.0.4692.99 Safari/537.36 OPR/83.0.4254.70",xpyriment,legacy,legacy,0,uniform,0,0,0,0,24,24,24,0,0,74,74,74,74,74,0,74,0,11,11,11,11,11,0,11,26-01-22,26-01-22,11:58:50,Sat Feb 26 2022 11:58:50 GMT+0100 (Central European Standard Time),The main experiment item,yes,0,0,C:/Users/rrics/Documents/!!ResearchBMECOGSCI/gnet,0,0,0,prototype4.png,no,mono,no,18,no,black,no,no,768,1144,3.5.6,legacy,xpyriment,osweb,1.3.13,0,space,space,space,space,30976,14449,18285,30976,2,legacy,824,1536,24,864,24,0,0,1536,1645873153828,1024,2,48000,-16,experiment,p1sarr2.png,0,even,Win32,496,126475,123473,496,496,634139,635652,629135,127978,629135,496,719442,720946,716438,635657,716438,visual_patterns,0,0,0,yes,1366
undefined,undefined,undefined,undefined,white,no,Mozilla,Netscape,"5.0 (Windows NT 10.0; Win64; x64) AppleWebKit/537.36 (KHTML, like Gecko) Chrome/97.0.4692.99 Safari/537.36 OPR/83.0.4254.70",xpyriment,legacy,legacy,0,uniform,0,0,0,0,24,24,24,0,0,74,74,74,74,74,0,74,0,12,12,12,12,12,0,12,26-01-22,26-01-22,11:58:50,Sat Feb 26 2022 11:58:50 GMT+0100 (Central European Standard Time),The main experiment item,yes,0,0,C:/Users/rrics/Documents/!!ResearchBMECOGSCI/gnet,0,0,0,prototype4.png,no,mono,no,18,no,black,no,no,768,1144,3.5.6,legacy,xpyriment,osweb,1.3.13,0,space,space,space,space,30976,14449,18285,30976,2,legacy,824,1536,24,864,24,0,0,1536,1645873153828,1024,2,48000,-16,experiment,p3sarrcol4.png,0,even,Win32,496,126475,123473,496,496,634139,635652,629135,127978,629135,496,723960,725468,720961,635657,720961,visual_patterns,0,0,0,yes,1366
undefined,undefined,undefined,undefined,white,no,Mozilla,Netscape,"5.0 (Windows NT 10.0; Win64; x64) AppleWebKit/537.36 (KHTML, like Gecko) Chrome/97.0.4692.99 Safari/537.36 OPR/83.0.4254.70",xpyriment,legacy,legacy,0,uniform,0,0,0,0,24,24,24,0,0,74,74,74,74,74,0,74,0,13,13,13,13,13,0,13,26-01-22,26-01-22,11:58:50,Sat Feb 26 2022 11:58:50 GMT+0100 (Central European Standard Time),The main experiment item,yes,0,0,C:/Users/rrics/Documents/!!ResearchBMECOGSCI/gnet,0,0,0,prototype4.png,no,mono,no,18,no,black,no,no,768,1144,3.5.6,legacy,xpyriment,osweb,1.3.13,0,space,space,space,space,30976,14449,18285,30976,2,legacy,824,1536,24,864,24,0,0,1536,1645873153828,1024,2,48000,-16,experiment,p2sarrshacol2.png,0,even,Win32,496,126475,123473,496,496,634139,635652,629135,127978,629135,496,728488,729990,725486,635657,725486,visual_patterns,0,0,0,yes,1366
undefined,undefined,undefined,undefined,white,no,Mozilla,Netscape,"5.0 (Windows NT 10.0; Win64; x64) AppleWebKit/537.36 (KHTML, like Gecko) Chrome/97.0.4692.99 Safari/537.36 OPR/83.0.4254.70",xpyriment,legacy,legacy,0,uniform,0,0,0,0,24,24,24,0,0,74,74,74,74,74,0,74,0,14,14,14,14,14,0,14,26-01-22,26-01-22,11:58:50,Sat Feb 26 2022 11:58:50 GMT+0100 (Central European Standard Time),The main experiment item,yes,0,0,C:/Users/rrics/Documents/!!ResearchBMECOGSCI/gnet,0,0,0,prototype4.png,no,mono,no,18,no,black,no,no,768,1144,3.5.6,legacy,xpyriment,osweb,1.3.13,0,space,space,space,space,30976,14449,18285,30976,2,legacy,824,1536,24,864,24,0,0,1536,1645873153828,1024,2,48000,-16,experiment,p6sarr1.png,0,even,Win32,496,126475,123473,496,496,634139,635652,629135,127978,629135,496,733002,734511,730003,635657,730003,visual_patterns,0,0,0,yes,1366
undefined,undefined,undefined,undefined,white,no,Mozilla,Netscape,"5.0 (Windows NT 10.0; Win64; x64) AppleWebKit/537.36 (KHTML, like Gecko) Chrome/97.0.4692.99 Safari/537.36 OPR/83.0.4254.70",xpyriment,legacy,legacy,0,uniform,0,0,0,0,24,24,24,0,0,74,74,74,74,74,0,74,0,15,15,15,15,15,0,15,26-01-22,26-01-22,11:58:50,Sat Feb 26 2022 11:58:50 GMT+0100 (Central European Standard Time),The main experiment item,yes,0,0,C:/Users/rrics/Documents/!!ResearchBMECOGSCI/gnet,0,0,0,prototype4.png,no,mono,no,18,no,black,no,no,768,1144,3.5.6,legacy,xpyriment,osweb,1.3.13,0,space,space,space,space,30976,14449,18285,30976,2,legacy,824,1536,24,864,24,0,0,1536,1645873153828,1024,2,48000,-16,experiment,p4sarrshacol3.png,0,even,Win32,496,126475,123473,496,496,634139,635652,629135,127978,629135,496,737526,739033,734530,635657,734529,visual_patterns,0,0,0,yes,1366
undefined,undefined,undefined,undefined,white,no,Mozilla,Netscape,"5.0 (Windows NT 10.0; Win64; x64) AppleWebKit/537.36 (KHTML, like Gecko) Chrome/97.0.4692.99 Safari/537.36 OPR/83.0.4254.70",xpyriment,legacy,legacy,0,uniform,0,0,0,0,24,24,24,0,0,74,74,74,74,74,0,74,0,16,16,16,16,16,0,16,26-01-22,26-01-22,11:58:50,Sat Feb 26 2022 11:58:50 GMT+0100 (Central European Standard Time),The main experiment item,yes,0,0,C:/Users/rrics/Documents/!!ResearchBMECOGSCI/gnet,0,0,0,prototype4.png,no,mono,no,18,no,black,no,no,768,1144,3.5.6,legacy,xpyriment,osweb,1.3.13,0,space,space,space,space,30976,14449,18285,30976,2,legacy,824,1536,24,864,24,0,0,1536,1645873153828,1024,2,48000,-16,experiment,p4sarrshacol4.png,0,even,Win32,496,126475,123473,496,496,634139,635652,629135,127978,629135,496,742057,743571,739057,635657,739057,visual_patterns,0,0,0,yes,1366
undefined,undefined,undefined,undefined,white,no,Mozilla,Netscape,"5.0 (Windows NT 10.0; Win64; x64) AppleWebKit/537.36 (KHTML, like Gecko) Chrome/97.0.4692.99 Safari/537.36 OPR/83.0.4254.70",xpyriment,legacy,legacy,0,uniform,0,0,0,0,24,24,24,0,0,74,74,74,74,74,0,74,0,17,17,17,17,17,0,17,26-01-22,26-01-22,11:58:50,Sat Feb 26 2022 11:58:50 GMT+0100 (Central European Standard Time),The main experiment item,yes,0,0,C:/Users/rrics/Documents/!!ResearchBMECOGSCI/gnet,0,0,0,prototype4.png,no,mono,no,18,no,black,no,no,768,1144,3.5.6,legacy,xpyriment,osweb,1.3.13,0,space,space,space,space,30976,14449,18285,30976,2,legacy,824,1536,24,864,24,0,0,1536,1645873153828,1024,2,48000,-16,experiment,p2sarrcol1.png,0,even,Win32,496,126475,123473,496,496,634139,635652,629135,127978,629135,496,746591,748092,743586,635657,743586,visual_patterns,0,0,0,yes,1366
undefined,undefined,undefined,undefined,white,no,Mozilla,Netscape,"5.0 (Windows NT 10.0; Win64; x64) AppleWebKit/537.36 (KHTML, like Gecko) Chrome/97.0.4692.99 Safari/537.36 OPR/83.0.4254.70",xpyriment,legacy,legacy,0,uniform,0,0,0,0,24,24,24,0,0,74,74,74,74,74,0,74,0,18,18,18,18,18,0,18,26-01-22,26-01-22,11:58:50,Sat Feb 26 2022 11:58:50 GMT+0100 (Central European Standard Time),The main experiment item,yes,0,0,C:/Users/rrics/Documents/!!ResearchBMECOGSCI/gnet,0,0,0,prototype4.png,no,mono,no,18,no,black,no,no,768,1144,3.5.6,legacy,xpyriment,osweb,1.3.13,0,space,space,space,space,30976,14449,18285,30976,2,legacy,824,1536,24,864,24,0,0,1536,1645873153828,1024,2,48000,-16,experiment,p1sarr4.png,0,even,Win32,496,126475,123473,496,496,634139,635652,629135,127978,629135,496,751099,752614,748102,635657,748102,visual_patterns,0,0,0,yes,1366
undefined,undefined,undefined,undefined,white,no,Mozilla,Netscape,"5.0 (Windows NT 10.0; Win64; x64) AppleWebKit/537.36 (KHTML, like Gecko) Chrome/97.0.4692.99 Safari/537.36 OPR/83.0.4254.70",xpyriment,legacy,legacy,0,uniform,0,0,0,0,24,24,24,0,0,74,74,74,74,74,0,74,0,19,19,19,19,19,0,19,26-01-22,26-01-22,11:58:50,Sat Feb 26 2022 11:58:50 GMT+0100 (Central European Standard Time),The main experiment item,yes,0,0,C:/Users/rrics/Documents/!!ResearchBMECOGSCI/gnet,0,0,0,prototype4.png,no,mono,no,18,no,black,no,no,768,1144,3.5.6,legacy,xpyriment,osweb,1.3.13,0,space,space,space,space,30976,14449,18285,30976,2,legacy,824,1536,24,864,24,0,0,1536,1645873153828,1024,2,48000,-16,experiment,p10sarr1.png,0,even,Win32,496,126475,123473,496,496,634139,635652,629135,127978,629135,496,755628,757136,752627,635657,752627,visual_patterns,0,0,0,yes,1366
undefined,undefined,undefined,undefined,white,no,Mozilla,Netscape,"5.0 (Windows NT 10.0; Win64; x64) AppleWebKit/537.36 (KHTML, like Gecko) Chrome/97.0.4692.99 Safari/537.36 OPR/83.0.4254.70",xpyriment,legacy,legacy,0,uniform,0,0,0,0,24,24,24,0,0,74,74,74,74,74,0,74,0,20,20,20,20,20,0,20,26-01-22,26-01-22,11:58:50,Sat Feb 26 2022 11:58:50 GMT+0100 (Central European Standard Time),The main experiment item,yes,0,0,C:/Users/rrics/Documents/!!ResearchBMECOGSCI/gnet,0,0,0,prototype4.png,no,mono,no,18,no,black,no,no,768,1144,3.5.6,legacy,xpyriment,osweb,1.3.13,0,space,space,space,space,30976,14449,18285,30976,2,legacy,824,1536,24,864,24,0,0,1536,1645873153828,1024,2,48000,-16,experiment,p8sarr3.png,0,even,Win32,496,126475,123473,496,496,634139,635652,629135,127978,629135,496,760155,761658,757155,635657,757155,visual_patterns,0,0,0,yes,1366
undefined,undefined,undefined,undefined,white,no,Mozilla,Netscape,"5.0 (Windows NT 10.0; Win64; x64) AppleWebKit/537.36 (KHTML, like Gecko) Chrome/97.0.4692.99 Safari/537.36 OPR/83.0.4254.70",xpyriment,legacy,legacy,0,uniform,0,0,0,0,24,24,24,0,0,74,74,74,74,74,0,74,0,21,21,21,21,21,0,21,26-01-22,26-01-22,11:58:50,Sat Feb 26 2022 11:58:50 GMT+0100 (Central European Standard Time),The main experiment item,yes,0,0,C:/Users/rrics/Documents/!!ResearchBMECOGSCI/gnet,0,0,0,prototype4.png,no,mono,no,18,no,black,no,no,768,1144,3.5.6,legacy,xpyriment,osweb,1.3.13,0,space,space,space,space,30976,14449,18285,30976,2,legacy,824,1536,24,864,24,0,0,1536,1645873153828,1024,2,48000,-16,experiment,p9sarr4.png,0,even,Win32,496,126475,123473,496,496,634139,635652,629135,127978,629135,496,764685,766196,761688,635657,761688,visual_patterns,0,0,0,yes,1366
undefined,undefined,undefined,undefined,white,no,Mozilla,Netscape,"5.0 (Windows NT 10.0; Win64; x64) AppleWebKit/537.36 (KHTML, like Gecko) Chrome/97.0.4692.99 Safari/537.36 OPR/83.0.4254.70",xpyriment,legacy,legacy,0,uniform,0,0,0,0,24,24,24,0,0,74,74,74,74,74,0,74,0,22,22,22,22,22,0,22,26-01-22,26-01-22,11:58:50,Sat Feb 26 2022 11:58:50 GMT+0100 (Central European Standard Time),The main experiment item,yes,0,0,C:/Users/rrics/Documents/!!ResearchBMECOGSCI/gnet,0,0,0,prototype4.png,no,mono,no,18,no,black,no,no,768,1144,3.5.6,legacy,xpyriment,osweb,1.3.13,0,space,space,space,space,30976,14449,18285,30976,2,legacy,824,1536,24,864,24,0,0,1536,1645873153828,1024,2,48000,-16,experiment,p5sarrcol2.png,0,even,Win32,496,126475,123473,496,496,634139,635652,629135,127978,629135,496,769211,770718,766210,635657,766210,visual_patterns,0,0,0,yes,1366
undefined,undefined,undefined,undefined,white,no,Mozilla,Netscape,"5.0 (Windows NT 10.0; Win64; x64) AppleWebKit/537.36 (KHTML, like Gecko) Chrome/97.0.4692.99 Safari/537.36 OPR/83.0.4254.70",xpyriment,legacy,legacy,0,uniform,0,0,0,0,24,24,24,0,0,74,74,74,74,74,0,74,0,23,23,23,23,23,0,23,26-01-22,26-01-22,11:58:50,Sat Feb 26 2022 11:58:50 GMT+0100 (Central European Standard Time),The main experiment item,yes,0,0,C:/Users/rrics/Documents/!!ResearchBMECOGSCI/gnet,0,0,0,prototype4.png,no,mono,no,18,no,black,no,no,768,1144,3.5.6,legacy,xpyriment,osweb,1.3.13,0,space,space,space,space,30976,14449,18285,30976,2,legacy,824,1536,24,864,24,0,0,1536,1645873153828,1024,2,48000,-16,experiment,p7sarr4.png,0,even,Win32,496,126475,123473,496,496,634139,635652,629135,127978,629135,496,773733,775239,770733,635657,770733,visual_patterns,0,0,0,yes,1366
undefined,undefined,undefined,undefined,white,no,Mozilla,Netscape,"5.0 (Windows NT 10.0; Win64; x64) AppleWebKit/537.36 (KHTML, like Gecko) Chrome/97.0.4692.99 Safari/537.36 OPR/83.0.4254.70",xpyriment,legacy,legacy,0,uniform,0,0,0,0,24,24,24,0,0,74,74,74,74,74,0,74,0,24,24,24,24,24,0,24,26-01-22,26-01-22,11:58:50,Sat Feb 26 2022 11:58:50 GMT+0100 (Central European Standard Time),The main experiment item,yes,0,0,C:/Users/rrics/Documents/!!ResearchBMECOGSCI/gnet,0,0,0,prototype4.png,no,mono,no,18,no,black,no,no,768,1144,3.5.6,legacy,xpyriment,osweb,1.3.13,0,space,space,space,space,30976,14449,18285,30976,2,legacy,824,1536,24,864,24,0,0,1536,1645873153828,1024,2,48000,-16,experiment,p3sarrsha3.png,0,even,Win32,496,126475,123473,496,496,634139,635652,629135,127978,629135,496,778255,779761,775256,635657,775256,visual_patterns,0,0,0,yes,1366
undefined,undefined,undefined,undefined,white,no,Mozilla,Netscape,"5.0 (Windows NT 10.0; Win64; x64) AppleWebKit/537.36 (KHTML, like Gecko) Chrome/97.0.4692.99 Safari/537.36 OPR/83.0.4254.70",xpyriment,legacy,legacy,0,uniform,0,0,0,0,24,24,24,0,0,74,74,74,74,74,0,74,0,25,25,25,25,25,0,25,26-01-22,26-01-22,11:58:50,Sat Feb 26 2022 11:58:50 GMT+0100 (Central European Standard Time),The main experiment item,yes,0,0,C:/Users/rrics/Documents/!!ResearchBMECOGSCI/gnet,0,0,0,prototype4.png,no,mono,no,18,no,black,no,no,768,1144,3.5.6,legacy,xpyriment,osweb,1.3.13,0,space,space,space,space,30976,14449,18285,30976,2,legacy,824,1536,24,864,24,0,0,1536,1645873153828,1024,2,48000,-16,experiment,p8sarr4.png,0,even,Win32,496,126475,123473,496,496,634139,635652,629135,127978,629135,496,782777,784283,779780,635657,779780,visual_patterns,0,0,0,yes,1366
undefined,undefined,undefined,undefined,white,no,Mozilla,Netscape,"5.0 (Windows NT 10.0; Win64; x64) AppleWebKit/537.36 (KHTML, like Gecko) Chrome/97.0.4692.99 Safari/537.36 OPR/83.0.4254.70",xpyriment,legacy,legacy,0,uniform,0,0,0,0,24,24,24,0,0,74,74,74,74,74,0,74,0,26,26,26,26,26,0,26,26-01-22,26-01-22,11:58:50,Sat Feb 26 2022 11:58:50 GMT+0100 (Central European Standard Time),The main experiment item,yes,0,0,C:/Users/rrics/Documents/!!ResearchBMECOGSCI/gnet,0,0,0,prototype4.png,no,mono,no,18,no,black,no,no,768,1144,3.5.6,legacy,xpyriment,osweb,1.3.13,0,space,space,space,space,30976,14449,18285,30976,2,legacy,824,1536,24,864,24,0,0,1536,1645873153828,1024,2,48000,-16,experiment,p2sarrshacol4.png,0,even,Win32,496,126475,123473,496,496,634139,635652,629135,127978,629135,496,787315,788821,784312,635657,784312,visual_patterns,0,0,0,yes,1366
undefined,undefined,undefined,undefined,white,no,Mozilla,Netscape,"5.0 (Windows NT 10.0; Win64; x64) AppleWebKit/537.36 (KHTML, like Gecko) Chrome/97.0.4692.99 Safari/537.36 OPR/83.0.4254.70",xpyriment,legacy,legacy,0,uniform,0,0,0,0,24,24,24,0,0,74,74,74,74,74,0,74,0,27,27,27,27,27,0,27,26-01-22,26-01-22,11:58:50,Sat Feb 26 2022 11:58:50 GMT+0100 (Central European Standard Time),The main experiment item,yes,0,0,C:/Users/rrics/Documents/!!ResearchBMECOGSCI/gnet,0,0,0,prototype4.png,no,mono,no,18,no,black,no,no,768,1144,3.5.6,legacy,xpyriment,osweb,1.3.13,0,space,space,space,space,30976,14449,18285,30976,2,legacy,824,1536,24,864,24,0,0,1536,1645873153828,1024,2,48000,-16,experiment,p4sarrshacol1.png,0,even,Win32,496,126475,123473,496,496,634139,635652,629135,127978,629135,496,791837,793343,788834,635657,788834,visual_patterns,0,0,0,yes,1366
undefined,undefined,undefined,undefined,white,no,Mozilla,Netscape,"5.0 (Windows NT 10.0; Win64; x64) AppleWebKit/537.36 (KHTML, like Gecko) Chrome/97.0.4692.99 Safari/537.36 OPR/83.0.4254.70",xpyriment,legacy,legacy,0,uniform,0,0,0,0,24,24,24,0,0,74,74,74,74,74,0,74,0,28,28,28,28,28,0,28,26-01-22,26-01-22,11:58:50,Sat Feb 26 2022 11:58:50 GMT+0100 (Central European Standard Time),The main experiment item,yes,0,0,C:/Users/rrics/Documents/!!ResearchBMECOGSCI/gnet,0,0,0,prototype4.png,no,mono,no,18,no,black,no,no,768,1144,3.5.6,legacy,xpyriment,osweb,1.3.13,0,space,space,space,space,30976,14449,18285,30976,2,legacy,824,1536,24,864,24,0,0,1536,1645873153828,1024,2,48000,-16,experiment,p1sarrshacol3.png,0,even,Win32,496,126475,123473,496,496,634139,635652,629135,127978,629135,496,796360,797864,793358,635657,793358,visual_patterns,0,0,0,yes,1366
undefined,undefined,undefined,undefined,white,no,Mozilla,Netscape,"5.0 (Windows NT 10.0; Win64; x64) AppleWebKit/537.36 (KHTML, like Gecko) Chrome/97.0.4692.99 Safari/537.36 OPR/83.0.4254.70",xpyriment,legacy,legacy,0,uniform,0,0,0,0,24,24,24,0,0,74,74,74,74,74,0,74,0,29,29,29,29,29,0,29,26-01-22,26-01-22,11:58:50,Sat Feb 26 2022 11:58:50 GMT+0100 (Central European Standard Time),The main experiment item,yes,0,0,C:/Users/rrics/Documents/!!ResearchBMECOGSCI/gnet,0,0,0,prototype4.png,no,mono,no,18,no,black,no,no,768,1144,3.5.6,legacy,xpyriment,osweb,1.3.13,0,space,space,space,space,30976,14449,18285,30976,2,legacy,824,1536,24,864,24,0,0,1536,1645873153828,1024,2,48000,-16,experiment,p2sarrsha1.png,0,even,Win32,496,126475,123473,496,496,634139,635652,629135,127978,629135,496,800882,802385,797880,635657,797880,visual_patterns,0,0,0,yes,1366
undefined,undefined,undefined,undefined,white,no,Mozilla,Netscape,"5.0 (Windows NT 10.0; Win64; x64) AppleWebKit/537.36 (KHTML, like Gecko) Chrome/97.0.4692.99 Safari/537.36 OPR/83.0.4254.70",xpyriment,legacy,legacy,0,uniform,0,0,0,0,24,24,24,0,0,74,74,74,74,74,0,74,0,30,30,30,30,30,0,30,26-01-22,26-01-22,11:58:50,Sat Feb 26 2022 11:58:50 GMT+0100 (Central European Standard Time),The main experiment item,yes,0,0,C:/Users/rrics/Documents/!!ResearchBMECOGSCI/gnet,0,0,0,prototype4.png,no,mono,no,18,no,black,no,no,768,1144,3.5.6,legacy,xpyriment,osweb,1.3.13,0,space,space,space,space,30976,14449,18285,30976,2,legacy,824,1536,24,864,24,0,0,1536,1645873153828,1024,2,48000,-16,experiment,p3sarr2.png,0,even,Win32,496,126475,123473,496,496,634139,635652,629135,127978,629135,496,805400,806907,802397,635657,802397,visual_patterns,0,0,0,yes,1366
undefined,undefined,undefined,undefined,white,no,Mozilla,Netscape,"5.0 (Windows NT 10.0; Win64; x64) AppleWebKit/537.36 (KHTML, like Gecko) Chrome/97.0.4692.99 Safari/537.36 OPR/83.0.4254.70",xpyriment,legacy,legacy,0,uniform,0,0,0,0,24,24,24,0,0,74,74,74,74,74,0,74,0,31,31,31,31,31,0,31,26-01-22,26-01-22,11:58:50,Sat Feb 26 2022 11:58:50 GMT+0100 (Central European Standard Time),The main experiment item,yes,0,0,C:/Users/rrics/Documents/!!ResearchBMECOGSCI/gnet,0,0,0,prototype4.png,no,mono,no,18,no,black,no,no,768,1144,3.5.6,legacy,xpyriment,osweb,1.3.13,0,space,space,space,space,30976,14449,18285,30976,2,legacy,824,1536,24,864,24,0,0,1536,1645873153828,1024,2,48000,-16,experiment,p3sarrshacol3.png,0,even,Win32,496,126475,123473,496,496,634139,635652,629135,127978,629135,496,809921,811429,806922,635657,806922,visual_patterns,0,0,0,yes,1366
undefined,undefined,undefined,undefined,white,no,Mozilla,Netscape,"5.0 (Windows NT 10.0; Win64; x64) AppleWebKit/537.36 (KHTML, like Gecko) Chrome/97.0.4692.99 Safari/537.36 OPR/83.0.4254.70",xpyriment,legacy,legacy,0,uniform,0,0,0,0,24,24,24,0,0,74,74,74,74,74,0,74,0,32,32,32,32,32,0,32,26-01-22,26-01-22,11:58:50,Sat Feb 26 2022 11:58:50 GMT+0100 (Central European Standard Time),The main experiment item,yes,0,0,C:/Users/rrics/Documents/!!ResearchBMECOGSCI/gnet,0,0,0,prototype4.png,no,mono,no,18,no,black,no,no,768,1144,3.5.6,legacy,xpyriment,osweb,1.3.13,0,space,space,space,space,30976,14449,18285,30976,2,legacy,824,1536,24,864,24,0,0,1536,1645873153828,1024,2,48000,-16,experiment,p2sarrcol4.png,0,even,Win32,496,126475,123473,496,496,634139,635652,629135,127978,629135,496,814447,815951,811446,635657,811446,visual_patterns,0,0,0,yes,1366
undefined,undefined,undefined,undefined,white,no,Mozilla,Netscape,"5.0 (Windows NT 10.0; Win64; x64) AppleWebKit/537.36 (KHTML, like Gecko) Chrome/97.0.4692.99 Safari/537.36 OPR/83.0.4254.70",xpyriment,legacy,legacy,0,uniform,0,0,0,0,24,24,24,0,0,74,74,74,74,74,0,74,0,33,33,33,33,33,0,33,26-01-22,26-01-22,11:58:50,Sat Feb 26 2022 11:58:50 GMT+0100 (Central European Standard Time),The main experiment item,yes,0,0,C:/Users/rrics/Documents/!!ResearchBMECOGSCI/gnet,0,0,0,prototype4.png,no,mono,no,18,no,black,no,no,768,1144,3.5.6,legacy,xpyriment,osweb,1.3.13,0,space,space,space,space,30976,14449,18285,30976,2,legacy,824,1536,24,864,24,0,0,1536,1645873153828,1024,2,48000,-16,experiment,p5sarrcol1.png,0,even,Win32,496,126475,123473,496,496,634139,635652,629135,127978,629135,496,818965,820472,815966,635657,815966,visual_patterns,0,0,0,yes,1366
undefined,undefined,undefined,undefined,white,no,Mozilla,Netscape,"5.0 (Windows NT 10.0; Win64; x64) AppleWebKit/537.36 (KHTML, like Gecko) Chrome/97.0.4692.99 Safari/537.36 OPR/83.0.4254.70",xpyriment,legacy,legacy,0,uniform,0,0,0,0,24,24,24,0,0,74,74,74,74,74,0,74,0,34,34,34,34,34,0,34,26-01-22,26-01-22,11:58:50,Sat Feb 26 2022 11:58:50 GMT+0100 (Central European Standard Time),The main experiment item,yes,0,0,C:/Users/rrics/Documents/!!ResearchBMECOGSCI/gnet,0,0,0,prototype4.png,no,mono,no,18,no,black,no,no,768,1144,3.5.6,legacy,xpyriment,osweb,1.3.13,0,space,space,space,space,30976,14449,18285,30976,2,legacy,824,1536,24,864,24,0,0,1536,1645873153828,1024,2,48000,-16,experiment,p8sarr2.png,0,even,Win32,496,126475,123473,496,496,634139,635652,629135,127978,629135,496,823486,824994,820485,635657,820485,visual_patterns,0,0,0,yes,1366
undefined,undefined,undefined,undefined,white,no,Mozilla,Netscape,"5.0 (Windows NT 10.0; Win64; x64) AppleWebKit/537.36 (KHTML, like Gecko) Chrome/97.0.4692.99 Safari/537.36 OPR/83.0.4254.70",xpyriment,legacy,legacy,0,uniform,0,0,0,0,24,24,24,0,0,74,74,74,74,74,0,74,0,35,35,35,35,35,0,35,26-01-22,26-01-22,11:58:50,Sat Feb 26 2022 11:58:50 GMT+0100 (Central European Standard Time),The main experiment item,yes,0,0,C:/Users/rrics/Documents/!!ResearchBMECOGSCI/gnet,0,0,0,prototype4.png,no,mono,no,18,no,black,no,no,768,1144,3.5.6,legacy,xpyriment,osweb,1.3.13,0,space,space,space,space,30976,14449,18285,30976,2,legacy,824,1536,24,864,24,0,0,1536,1645873153828,1024,2,48000,-16,experiment,p5sarr3.png,0,even,Win32,496,126475,123473,496,496,634139,635652,629135,127978,629135,496,828010,829515,825010,635657,825010,visual_patterns,0,0,0,yes,1366
undefined,undefined,undefined,undefined,white,no,Mozilla,Netscape,"5.0 (Windows NT 10.0; Win64; x64) AppleWebKit/537.36 (KHTML, like Gecko) Chrome/97.0.4692.99 Safari/537.36 OPR/83.0.4254.70",xpyriment,legacy,legacy,0,uniform,0,0,0,0,24,24,24,0,0,74,74,74,74,74,0,74,0,36,36,36,36,36,0,36,26-01-22,26-01-22,11:58:50,Sat Feb 26 2022 11:58:50 GMT+0100 (Central European Standard Time),The main experiment item,yes,0,0,C:/Users/rrics/Documents/!!ResearchBMECOGSCI/gnet,0,0,0,prototype4.png,no,mono,no,18,no,black,no,no,768,1144,3.5.6,legacy,xpyriment,osweb,1.3.13,0,space,space,space,space,30976,14449,18285,30976,2,legacy,824,1536,24,864,24,0,0,1536,1645873153828,1024,2,48000,-16,experiment,p7sarr1.png,0,even,Win32,496,126475,123473,496,496,634139,635652,629135,127978,629135,496,832536,834037,829533,635657,829533,visual_patterns,0,0,0,yes,1366
undefined,undefined,undefined,undefined,white,no,Mozilla,Netscape,"5.0 (Windows NT 10.0; Win64; x64) AppleWebKit/537.36 (KHTML, like Gecko) Chrome/97.0.4692.99 Safari/537.36 OPR/83.0.4254.70",xpyriment,legacy,legacy,0,uniform,0,0,0,0,24,24,24,0,0,74,74,74,74,74,0,74,0,37,37,37,37,37,0,37,26-01-22,26-01-22,11:58:50,Sat Feb 26 2022 11:58:50 GMT+0100 (Central European Standard Time),The main experiment item,yes,0,0,C:/Users/rrics/Documents/!!ResearchBMECOGSCI/gnet,0,0,0,prototype4.png,no,mono,no,18,no,black,no,no,768,1144,3.5.6,legacy,xpyriment,osweb,1.3.13,0,space,space,space,space,30976,14449,18285,30976,2,legacy,824,1536,24,864,24,0,0,1536,1645873153828,1024,2,48000,-16,experiment,p1sarrcol4.png,0,even,Win32,496,126475,123473,496,496,634139,635652,629135,127978,629135,496,837051,838559,834052,635657,834052,visual_patterns,0,0,0,yes,1366
undefined,undefined,undefined,undefined,white,no,Mozilla,Netscape,"5.0 (Windows NT 10.0; Win64; x64) AppleWebKit/537.36 (KHTML, like Gecko) Chrome/97.0.4692.99 Safari/537.36 OPR/83.0.4254.70",xpyriment,legacy,legacy,0,uniform,0,0,0,0,24,24,24,0,0,74,74,74,74,74,0,74,0,38,38,38,38,38,0,38,26-01-22,26-01-22,11:58:50,Sat Feb 26 2022 11:58:50 GMT+0100 (Central European Standard Time),The main experiment item,yes,0,0,C:/Users/rrics/Documents/!!ResearchBMECOGSCI/gnet,0,0,0,prototype4.png,no,mono,no,18,no,black,no,no,768,1144,3.5.6,legacy,xpyriment,osweb,1.3.13,0,space,space,space,space,30976,14449,18285,30976,2,legacy,824,1536,24,864,24,0,0,1536,1645873153828,1024,2,48000,-16,experiment,p3sarrsha4.png,0,even,Win32,496,126475,123473,496,496,634139,635652,629135,127978,629135,496,841573,843081,838576,635657,838575,visual_patterns,0,0,0,yes,1366
undefined,undefined,undefined,undefined,white,no,Mozilla,Netscape,"5.0 (Windows NT 10.0; Win64; x64) AppleWebKit/537.36 (KHTML, like Gecko) Chrome/97.0.4692.99 Safari/537.36 OPR/83.0.4254.70",xpyriment,legacy,legacy,0,uniform,0,0,0,0,24,24,24,0,0,74,74,74,74,74,0,74,0,39,39,39,39,39,0,39,26-01-22,26-01-22,11:58:50,Sat Feb 26 2022 11:58:50 GMT+0100 (Central European Standard Time),The main experiment item,yes,0,0,C:/Users/rrics/Documents/!!ResearchBMECOGSCI/gnet,0,0,0,prototype4.png,no,mono,no,18,no,black,no,no,768,1144,3.5.6,legacy,xpyriment,osweb,1.3.13,0,space,space,space,space,30976,14449,18285,30976,2,legacy,824,1536,24,864,24,0,0,1536,1645873153828,1024,2,48000,-16,experiment,p3sarr1.png,0,even,Win32,496,126475,123473,496,496,634139,635652,629135,127978,629135,496,846101,847602,843097,635657,843097,visual_patterns,0,0,0,yes,1366
undefined,undefined,undefined,undefined,white,no,Mozilla,Netscape,"5.0 (Windows NT 10.0; Win64; x64) AppleWebKit/537.36 (KHTML, like Gecko) Chrome/97.0.4692.99 Safari/537.36 OPR/83.0.4254.70",xpyriment,legacy,legacy,0,uniform,0,0,0,0,24,24,24,0,0,74,74,74,74,74,0,74,0,40,40,40,40,40,0,40,26-01-22,26-01-22,11:58:50,Sat Feb 26 2022 11:58:50 GMT+0100 (Central European Standard Time),The main experiment item,yes,0,0,C:/Users/rrics/Documents/!!ResearchBMECOGSCI/gnet,0,0,0,prototype4.png,no,mono,no,18,no,black,no,no,768,1144,3.5.6,legacy,xpyriment,osweb,1.3.13,0,space,space,space,space,30976,14449,18285,30976,2,legacy,824,1536,24,864,24,0,0,1536,1645873153828,1024,2,48000,-16,experiment,p2sarrsha3.png,0,even,Win32,496,126475,123473,496,496,634139,635652,629135,127978,629135,496,850615,852125,847619,635657,847619,visual_patterns,0,0,0,yes,1366
undefined,undefined,undefined,undefined,white,no,Mozilla,Netscape,"5.0 (Windows NT 10.0; Win64; x64) AppleWebKit/537.36 (KHTML, like Gecko) Chrome/97.0.4692.99 Safari/537.36 OPR/83.0.4254.70",xpyriment,legacy,legacy,0,uniform,0,0,0,0,24,24,24,0,0,74,74,74,74,74,0,74,0,41,41,41,41,41,0,41,26-01-22,26-01-22,11:58:50,Sat Feb 26 2022 11:58:50 GMT+0100 (Central European Standard Time),The main experiment item,yes,0,0,C:/Users/rrics/Documents/!!ResearchBMECOGSCI/gnet,0,0,0,prototype4.png,no,mono,no,18,no,black,no,no,768,1144,3.5.6,legacy,xpyriment,osweb,1.3.13,0,space,space,space,space,30976,14449,18285,30976,2,legacy,824,1536,24,864,24,0,0,1536,1645873153828,1024,2,48000,-16,experiment,p9sarr3.png,0,even,Win32,496,126475,123473,496,496,634139,635652,629135,127978,629135,496,855156,856663,852153,635657,852153,visual_patterns,0,0,0,yes,1366
undefined,undefined,undefined,undefined,white,no,Mozilla,Netscape,"5.0 (Windows NT 10.0; Win64; x64) AppleWebKit/537.36 (KHTML, like Gecko) Chrome/97.0.4692.99 Safari/537.36 OPR/83.0.4254.70",xpyriment,legacy,legacy,0,uniform,0,0,0,0,24,24,24,0,0,74,74,74,74,74,0,74,0,42,42,42,42,42,0,42,26-01-22,26-01-22,11:58:50,Sat Feb 26 2022 11:58:50 GMT+0100 (Central European Standard Time),The main experiment item,yes,0,0,C:/Users/rrics/Documents/!!ResearchBMECOGSCI/gnet,0,0,0,prototype4.png,no,mono,no,18,no,black,no,no,768,1144,3.5.6,legacy,xpyriment,osweb,1.3.13,0,space,space,space,space,30976,14449,18285,30976,2,legacy,824,1536,24,864,24,0,0,1536,1645873153828,1024,2,48000,-16,experiment,p10sarr4.png,0,even,Win32,496,126475,123473,496,496,634139,635652,629135,127978,629135,496,859676,861184,856678,635657,856678,visual_patterns,0,0,0,yes,1366
undefined,undefined,undefined,undefined,white,no,Mozilla,Netscape,"5.0 (Windows NT 10.0; Win64; x64) AppleWebKit/537.36 (KHTML, like Gecko) Chrome/97.0.4692.99 Safari/537.36 OPR/83.0.4254.70",xpyriment,legacy,legacy,0,uniform,0,0,0,0,24,24,24,0,0,74,74,74,74,74,0,74,0,43,43,43,43,43,0,43,26-01-22,26-01-22,11:58:50,Sat Feb 26 2022 11:58:50 GMT+0100 (Central European Standard Time),The main experiment item,yes,0,0,C:/Users/rrics/Documents/!!ResearchBMECOGSCI/gnet,0,0,0,prototype4.png,no,mono,no,18,no,black,no,no,768,1144,3.5.6,legacy,xpyriment,osweb,1.3.13,0,space,space,space,space,30976,14449,18285,30976,2,legacy,824,1536,24,864,24,0,0,1536,1645873153828,1024,2,48000,-16,experiment,p4sarrcol1.png,0,even,Win32,496,126475,123473,496,496,634139,635652,629135,127978,629135,496,864198,865705,861196,635657,861196,visual_patterns,0,0,0,yes,1366
undefined,undefined,undefined,undefined,white,no,Mozilla,Netscape,"5.0 (Windows NT 10.0; Win64; x64) AppleWebKit/537.36 (KHTML, like Gecko) Chrome/97.0.4692.99 Safari/537.36 OPR/83.0.4254.70",xpyriment,legacy,legacy,0,uniform,0,0,0,0,24,24,24,0,0,74,74,74,74,74,0,74,0,44,44,44,44,44,0,44,26-01-22,26-01-22,11:58:50,Sat Feb 26 2022 11:58:50 GMT+0100 (Central European Standard Time),The main experiment item,yes,0,0,C:/Users/rrics/Documents/!!ResearchBMECOGSCI/gnet,0,0,0,prototype4.png,no,mono,no,18,no,black,no,no,768,1144,3.5.6,legacy,xpyriment,osweb,1.3.13,0,space,space,space,space,30976,14449,18285,30976,2,legacy,824,1536,24,864,24,0,0,1536,1645873153828,1024,2,48000,-16,experiment,p5sarrshacol4.png,0,even,Win32,496,126475,123473,496,496,634139,635652,629135,127978,629135,496,868721,870227,865720,635657,865720,visual_patterns,0,0,0,yes,1366
