acc,accuracy,average_response_time,avg_rt,background,bidi,browser_codename,browser_name,browser_version,canvas_backend,clock_backend,color_backend,compensation,coordinates,count_end,count_experiment,count_osweb,count_prestudy,count_prestudy_isi,count_prestudy_sequence,count_prestudy_stimpres,count_start,count_study,count_study_coroutines,count_study_isi,count_study_logger,count_study_response,count_study_sequence,count_study_start,count_study_stimpres,count_test,count_test_coroutines,count_test_isi,count_test_logger,count_test_response,count_test_sequence,count_test_start,count_test_stimpres,date_startdate,date_startdateUTC,date_starttime,datetime,description,disable_garbage_collection,experiment_debug,experiment_parameters,experiment_path,experiment_pilot,experiment_taskname,experiment_taskversion,fampict,font_bold,font_family,font_italic,font_size,font_underline,foreground,form_clicks,fullscreen,height,jatosStudyResultId,jatosVersion,keyboard_backend,mouse_backend,opensesame_codename,opensesame_version,repeat_cycle,response,response_start,response_study_start,response_test_start,response_time,response_time_start,response_time_study_start,response_time_test_start,round_decimals,sampler_backend,screen_availableHeight,screen_availableWidth,screen_colorDepth,screen_height,screen_pixelDepth,screen_screenX,screen_screenY,screen_width,sessionid,sound_buf_size,sound_channels,sound_freq,sound_sample_size,start,stim,subject_nr,subject_parity,system_os,time_prestudy,time_prestudy_isi,time_prestudy_stimpres,time_start,time_study,time_study_isi,time_study_logger,time_study_response,time_study_start,time_study_stimpres,time_test,time_test_isi,time_test_logger,time_test_response,time_test_start,time_test_stimpres,title,total_correct,total_response_time,total_responses,uniform_coordinates,width
undefined,undefined,undefined,undefined,white,no,Mozilla,Netscape,"5.0 (Windows NT 10.0; Win64; x64) AppleWebKit/537.36 (KHTML, like Gecko) Chrome/98.0.4758.102 Safari/537.36",xpyriment,legacy,legacy,0,uniform,0,0,0,0,24,24,24,0,0,0,0,0,0,0,0,0,0,,,,,,0,,26-01-22,26-01-22,12:59:49,Sat Feb 26 2022 12:59:49 GMT+0100 (közép-európai téli idő),The main experiment item,yes,0,0,C:/Users/rrics/Documents/!!ResearchBMECOGSCI/gnet,0,0,0,prototype2.png,no,mono,no,18,no,black,no,no,768,1145,3.5.6,legacy,xpyriment,osweb,1.3.13,0,space,space,space,,38668,28462,38668,,2,legacy,824,1536,24,864,24,0,0,1536,1645876861621,1024,2,48000,-16,experiment,p6sarr1.png,1,odd,Win32,80,139887,136885,80,80,185080,186589,180078,141390,180078,80,,,,,,visual_patterns,0,0,0,yes,1366
undefined,undefined,undefined,undefined,white,no,Mozilla,Netscape,"5.0 (Windows NT 10.0; Win64; x64) AppleWebKit/537.36 (KHTML, like Gecko) Chrome/98.0.4758.102 Safari/537.36",xpyriment,legacy,legacy,0,uniform,0,0,0,0,24,24,24,0,0,1,1,1,1,1,0,1,0,,,,,,0,,26-01-22,26-01-22,12:59:49,Sat Feb 26 2022 12:59:49 GMT+0100 (közép-európai téli idő),The main experiment item,yes,0,0,C:/Users/rrics/Documents/!!ResearchBMECOGSCI/gnet,0,0,0,prototype2.png,no,mono,no,18,no,black,no,no,768,1145,3.5.6,legacy,xpyriment,osweb,1.3.13,0,space,space,space,,38668,28462,38668,,2,legacy,824,1536,24,864,24,0,0,1536,1645876861621,1024,2,48000,-16,experiment,prototype3.png,1,odd,Win32,80,139887,136885,80,80,191597,193111,186596,141390,186596,80,,,,,,visual_patterns,0,0,0,yes,1366
undefined,undefined,undefined,undefined,white,no,Mozilla,Netscape,"5.0 (Windows NT 10.0; Win64; x64) AppleWebKit/537.36 (KHTML, like Gecko) Chrome/98.0.4758.102 Safari/537.36",xpyriment,legacy,legacy,0,uniform,0,0,0,0,24,24,24,0,0,2,2,2,2,2,0,2,0,,,,,,0,,26-01-22,26-01-22,12:59:49,Sat Feb 26 2022 12:59:49 GMT+0100 (közép-európai téli idő),The main experiment item,yes,0,0,C:/Users/rrics/Documents/!!ResearchBMECOGSCI/gnet,0,0,0,prototype2.png,no,mono,no,18,no,black,no,no,768,1145,3.5.6,legacy,xpyriment,osweb,1.3.13,0,space,space,space,,38668,28462,38668,,2,legacy,824,1536,24,864,24,0,0,1536,1645876861621,1024,2,48000,-16,experiment,p3sarr1.png,1,odd,Win32,80,139887,136885,80,80,198119,199635,193121,141390,193120,80,,,,,,visual_patterns,0,0,0,yes,1366
undefined,undefined,undefined,undefined,white,no,Mozilla,Netscape,"5.0 (Windows NT 10.0; Win64; x64) AppleWebKit/537.36 (KHTML, like Gecko) Chrome/98.0.4758.102 Safari/537.36",xpyriment,legacy,legacy,0,uniform,0,0,0,0,24,24,24,0,0,3,3,3,3,3,0,3,0,,,,,,0,,26-01-22,26-01-22,12:59:49,Sat Feb 26 2022 12:59:49 GMT+0100 (közép-európai téli idő),The main experiment item,yes,0,0,C:/Users/rrics/Documents/!!ResearchBMECOGSCI/gnet,0,0,0,prototype2.png,no,mono,no,18,no,black,no,no,768,1145,3.5.6,legacy,xpyriment,osweb,1.3.13,0,space,space,space,,38668,28462,38668,,2,legacy,824,1536,24,864,24,0,0,1536,1645876861621,1024,2,48000,-16,experiment,p9sarr2.png,1,odd,Win32,80,139887,136885,80,80,204645,206159,199643,141390,199643,80,,,,,,visual_patterns,0,0,0,yes,1366
undefined,undefined,undefined,undefined,white,no,Mozilla,Netscape,"5.0 (Windows NT 10.0; Win64; x64) AppleWebKit/537.36 (KHTML, like Gecko) Chrome/98.0.4758.102 Safari/537.36",xpyriment,legacy,legacy,0,uniform,0,0,0,0,24,24,24,0,0,4,4,4,4,4,0,4,0,,,,,,0,,26-01-22,26-01-22,12:59:49,Sat Feb 26 2022 12:59:49 GMT+0100 (közép-európai téli idő),The main experiment item,yes,0,0,C:/Users/rrics/Documents/!!ResearchBMECOGSCI/gnet,0,0,0,prototype2.png,no,mono,no,18,no,black,no,no,768,1145,3.5.6,legacy,xpyriment,osweb,1.3.13,0,space,space,space,,38668,28462,38668,,2,legacy,824,1536,24,864,24,0,0,1536,1645876861621,1024,2,48000,-16,experiment,p4sarr2.png,1,odd,Win32,80,139887,136885,80,80,211170,212683,206167,141390,206166,80,,,,,,visual_patterns,0,0,0,yes,1366
undefined,undefined,undefined,undefined,white,no,Mozilla,Netscape,"5.0 (Windows NT 10.0; Win64; x64) AppleWebKit/537.36 (KHTML, like Gecko) Chrome/98.0.4758.102 Safari/537.36",xpyriment,legacy,legacy,0,uniform,0,0,0,0,24,24,24,0,0,5,5,5,5,5,0,5,0,,,,,,0,,26-01-22,26-01-22,12:59:49,Sat Feb 26 2022 12:59:49 GMT+0100 (közép-európai téli idő),The main experiment item,yes,0,0,C:/Users/rrics/Documents/!!ResearchBMECOGSCI/gnet,0,0,0,prototype2.png,no,mono,no,18,no,black,no,no,768,1145,3.5.6,legacy,xpyriment,osweb,1.3.13,0,space,space,space,,38668,28462,38668,,2,legacy,824,1536,24,864,24,0,0,1536,1645876861621,1024,2,48000,-16,experiment,p4sarrshacol2.png,1,odd,Win32,80,139887,136885,80,80,217691,219207,212690,141390,212690,80,,,,,,visual_patterns,0,0,0,yes,1366
undefined,undefined,undefined,undefined,white,no,Mozilla,Netscape,"5.0 (Windows NT 10.0; Win64; x64) AppleWebKit/537.36 (KHTML, like Gecko) Chrome/98.0.4758.102 Safari/537.36",xpyriment,legacy,legacy,0,uniform,0,0,0,0,24,24,24,0,0,6,6,6,6,6,0,6,0,,,,,,0,,26-01-22,26-01-22,12:59:49,Sat Feb 26 2022 12:59:49 GMT+0100 (közép-európai téli idő),The main experiment item,yes,0,0,C:/Users/rrics/Documents/!!ResearchBMECOGSCI/gnet,0,0,0,prototype2.png,no,mono,no,18,no,black,no,no,768,1145,3.5.6,legacy,xpyriment,osweb,1.3.13,0,space,space,space,,38668,28462,38668,,2,legacy,824,1536,24,864,24,0,0,1536,1645876861621,1024,2,48000,-16,experiment,p5sarrsha2.png,1,odd,Win32,80,139887,136885,80,80,224214,225731,219215,141390,219215,80,,,,,,visual_patterns,0,0,0,yes,1366
undefined,undefined,undefined,undefined,white,no,Mozilla,Netscape,"5.0 (Windows NT 10.0; Win64; x64) AppleWebKit/537.36 (KHTML, like Gecko) Chrome/98.0.4758.102 Safari/537.36",xpyriment,legacy,legacy,0,uniform,0,0,0,0,24,24,24,0,0,7,7,7,7,7,0,7,0,,,,,,0,,26-01-22,26-01-22,12:59:49,Sat Feb 26 2022 12:59:49 GMT+0100 (közép-európai téli idő),The main experiment item,yes,0,0,C:/Users/rrics/Documents/!!ResearchBMECOGSCI/gnet,0,0,0,prototype2.png,no,mono,no,18,no,black,no,no,768,1145,3.5.6,legacy,xpyriment,osweb,1.3.13,0,space,space,space,,38668,28462,38668,,2,legacy,824,1536,24,864,24,0,0,1536,1645876861621,1024,2,48000,-16,experiment,p2sarr1.png,1,odd,Win32,80,139887,136885,80,80,230738,232255,225738,141390,225738,80,,,,,,visual_patterns,0,0,0,yes,1366
undefined,undefined,undefined,undefined,white,no,Mozilla,Netscape,"5.0 (Windows NT 10.0; Win64; x64) AppleWebKit/537.36 (KHTML, like Gecko) Chrome/98.0.4758.102 Safari/537.36",xpyriment,legacy,legacy,0,uniform,0,0,0,0,24,24,24,0,0,8,8,8,8,8,0,8,0,,,,,,0,,26-01-22,26-01-22,12:59:49,Sat Feb 26 2022 12:59:49 GMT+0100 (közép-európai téli idő),The main experiment item,yes,0,0,C:/Users/rrics/Documents/!!ResearchBMECOGSCI/gnet,0,0,0,prototype2.png,no,mono,no,18,no,black,no,no,768,1145,3.5.6,legacy,xpyriment,osweb,1.3.13,0,space,space,space,,38668,28462,38668,,2,legacy,824,1536,24,864,24,0,0,1536,1645876861621,1024,2,48000,-16,experiment,prototype4.png,1,odd,Win32,80,139887,136885,80,80,237263,238778,232261,141390,232261,80,,,,,,visual_patterns,0,0,0,yes,1366
undefined,undefined,undefined,undefined,white,no,Mozilla,Netscape,"5.0 (Windows NT 10.0; Win64; x64) AppleWebKit/537.36 (KHTML, like Gecko) Chrome/98.0.4758.102 Safari/537.36",xpyriment,legacy,legacy,0,uniform,0,0,0,0,24,24,24,0,0,9,9,9,9,9,0,9,0,,,,,,0,,26-01-22,26-01-22,12:59:49,Sat Feb 26 2022 12:59:49 GMT+0100 (közép-európai téli idő),The main experiment item,yes,0,0,C:/Users/rrics/Documents/!!ResearchBMECOGSCI/gnet,0,0,0,prototype2.png,no,mono,no,18,no,black,no,no,768,1145,3.5.6,legacy,xpyriment,osweb,1.3.13,0,space,space,space,,38668,28462,38668,,2,legacy,824,1536,24,864,24,0,0,1536,1645876861621,1024,2,48000,-16,experiment,p5sarrsha1.png,1,odd,Win32,80,139887,136885,80,80,243786,245302,238784,141390,238784,80,,,,,,visual_patterns,0,0,0,yes,1366
undefined,undefined,undefined,undefined,white,no,Mozilla,Netscape,"5.0 (Windows NT 10.0; Win64; x64) AppleWebKit/537.36 (KHTML, like Gecko) Chrome/98.0.4758.102 Safari/537.36",xpyriment,legacy,legacy,0,uniform,0,0,0,0,24,24,24,0,0,10,10,10,10,10,0,10,0,,,,,,0,,26-01-22,26-01-22,12:59:49,Sat Feb 26 2022 12:59:49 GMT+0100 (közép-európai téli idő),The main experiment item,yes,0,0,C:/Users/rrics/Documents/!!ResearchBMECOGSCI/gnet,0,0,0,prototype2.png,no,mono,no,18,no,black,no,no,768,1145,3.5.6,legacy,xpyriment,osweb,1.3.13,0,space,space,space,,38668,28462,38668,,2,legacy,824,1536,24,864,24,0,0,1536,1645876861621,1024,2,48000,-16,experiment,p5sarrcol1.png,1,odd,Win32,80,139887,136885,80,80,250310,251826,245309,141390,245309,80,,,,,,visual_patterns,0,0,0,yes,1366
undefined,undefined,undefined,undefined,white,no,Mozilla,Netscape,"5.0 (Windows NT 10.0; Win64; x64) AppleWebKit/537.36 (KHTML, like Gecko) Chrome/98.0.4758.102 Safari/537.36",xpyriment,legacy,legacy,0,uniform,0,0,0,0,24,24,24,0,0,11,11,11,11,11,0,11,0,,,,,,0,,26-01-22,26-01-22,12:59:49,Sat Feb 26 2022 12:59:49 GMT+0100 (közép-európai téli idő),The main experiment item,yes,0,0,C:/Users/rrics/Documents/!!ResearchBMECOGSCI/gnet,0,0,0,prototype2.png,no,mono,no,18,no,black,no,no,768,1145,3.5.6,legacy,xpyriment,osweb,1.3.13,0,space,space,space,,38668,28462,38668,,2,legacy,824,1536,24,864,24,0,0,1536,1645876861621,1024,2,48000,-16,experiment,p8sarr2.png,1,odd,Win32,80,139887,136885,80,80,256835,258350,251832,141390,251832,80,,,,,,visual_patterns,0,0,0,yes,1366
undefined,undefined,undefined,undefined,white,no,Mozilla,Netscape,"5.0 (Windows NT 10.0; Win64; x64) AppleWebKit/537.36 (KHTML, like Gecko) Chrome/98.0.4758.102 Safari/537.36",xpyriment,legacy,legacy,0,uniform,0,0,0,0,24,24,24,0,0,12,12,12,12,12,0,12,0,,,,,,0,,26-01-22,26-01-22,12:59:49,Sat Feb 26 2022 12:59:49 GMT+0100 (közép-európai téli idő),The main experiment item,yes,0,0,C:/Users/rrics/Documents/!!ResearchBMECOGSCI/gnet,0,0,0,prototype2.png,no,mono,no,18,no,black,no,no,768,1145,3.5.6,legacy,xpyriment,osweb,1.3.13,0,space,space,space,,38668,28462,38668,,2,legacy,824,1536,24,864,24,0,0,1536,1645876861621,1024,2,48000,-16,experiment,p5sarrshacol2.png,1,odd,Win32,80,139887,136885,80,80,263365,264873,258362,141390,258362,80,,,,,,visual_patterns,0,0,0,yes,1366
undefined,undefined,undefined,undefined,white,no,Mozilla,Netscape,"5.0 (Windows NT 10.0; Win64; x64) AppleWebKit/537.36 (KHTML, like Gecko) Chrome/98.0.4758.102 Safari/537.36",xpyriment,legacy,legacy,0,uniform,0,0,0,0,24,24,24,0,0,13,13,13,13,13,0,13,0,,,,,,0,,26-01-22,26-01-22,12:59:49,Sat Feb 26 2022 12:59:49 GMT+0100 (közép-európai téli idő),The main experiment item,yes,0,0,C:/Users/rrics/Documents/!!ResearchBMECOGSCI/gnet,0,0,0,prototype2.png,no,mono,no,18,no,black,no,no,768,1145,3.5.6,legacy,xpyriment,osweb,1.3.13,0,space,space,space,,38668,28462,38668,,2,legacy,824,1536,24,864,24,0,0,1536,1645876861621,1024,2,48000,-16,experiment,p8sarr1.png,1,odd,Win32,80,139887,136885,80,80,269883,271398,264881,141390,264881,80,,,,,,visual_patterns,0,0,0,yes,1366
undefined,undefined,undefined,undefined,white,no,Mozilla,Netscape,"5.0 (Windows NT 10.0; Win64; x64) AppleWebKit/537.36 (KHTML, like Gecko) Chrome/98.0.4758.102 Safari/537.36",xpyriment,legacy,legacy,0,uniform,0,0,0,0,24,24,24,0,0,14,14,14,14,14,0,14,0,,,,,,0,,26-01-22,26-01-22,12:59:49,Sat Feb 26 2022 12:59:49 GMT+0100 (közép-európai téli idő),The main experiment item,yes,0,0,C:/Users/rrics/Documents/!!ResearchBMECOGSCI/gnet,0,0,0,prototype2.png,no,mono,no,18,no,black,no,no,768,1145,3.5.6,legacy,xpyriment,osweb,1.3.13,0,space,space,space,,38668,28462,38668,,2,legacy,824,1536,24,864,24,0,0,1536,1645876861621,1024,2,48000,-16,experiment,p3sarrcol1.png,1,odd,Win32,80,139887,136885,80,80,276406,277922,271405,141390,271405,80,,,,,,visual_patterns,0,0,0,yes,1366
undefined,undefined,undefined,undefined,white,no,Mozilla,Netscape,"5.0 (Windows NT 10.0; Win64; x64) AppleWebKit/537.36 (KHTML, like Gecko) Chrome/98.0.4758.102 Safari/537.36",xpyriment,legacy,legacy,0,uniform,0,0,0,0,24,24,24,0,0,15,15,15,15,15,0,15,0,,,,,,0,,26-01-22,26-01-22,12:59:49,Sat Feb 26 2022 12:59:49 GMT+0100 (közép-európai téli idő),The main experiment item,yes,0,0,C:/Users/rrics/Documents/!!ResearchBMECOGSCI/gnet,0,0,0,prototype2.png,no,mono,no,18,no,black,no,no,768,1145,3.5.6,legacy,xpyriment,osweb,1.3.13,0,space,space,space,,38668,28462,38668,,2,legacy,824,1536,24,864,24,0,0,1536,1645876861621,1024,2,48000,-16,experiment,prototype1.png,1,odd,Win32,80,139887,136885,80,80,282928,284445,277927,141390,277927,80,,,,,,visual_patterns,0,0,0,yes,1366
undefined,undefined,undefined,undefined,white,no,Mozilla,Netscape,"5.0 (Windows NT 10.0; Win64; x64) AppleWebKit/537.36 (KHTML, like Gecko) Chrome/98.0.4758.102 Safari/537.36",xpyriment,legacy,legacy,0,uniform,0,0,0,0,24,24,24,0,0,16,16,16,16,16,0,16,0,,,,,,0,,26-01-22,26-01-22,12:59:49,Sat Feb 26 2022 12:59:49 GMT+0100 (közép-európai téli idő),The main experiment item,yes,0,0,C:/Users/rrics/Documents/!!ResearchBMECOGSCI/gnet,0,0,0,prototype2.png,no,mono,no,18,no,black,no,no,768,1145,3.5.6,legacy,xpyriment,osweb,1.3.13,0,space,space,space,,38668,28462,38668,,2,legacy,824,1536,24,864,24,0,0,1536,1645876861621,1024,2,48000,-16,experiment,p2sarr2.png,1,odd,Win32,80,139887,136885,80,80,289452,290969,284454,141390,284454,80,,,,,,visual_patterns,0,0,0,yes,1366
undefined,undefined,undefined,undefined,white,no,Mozilla,Netscape,"5.0 (Windows NT 10.0; Win64; x64) AppleWebKit/537.36 (KHTML, like Gecko) Chrome/98.0.4758.102 Safari/537.36",xpyriment,legacy,legacy,0,uniform,0,0,0,0,24,24,24,0,0,17,17,17,17,17,0,17,0,,,,,,0,,26-01-22,26-01-22,12:59:49,Sat Feb 26 2022 12:59:49 GMT+0100 (közép-európai téli idő),The main experiment item,yes,0,0,C:/Users/rrics/Documents/!!ResearchBMECOGSCI/gnet,0,0,0,prototype2.png,no,mono,no,18,no,black,no,no,768,1145,3.5.6,legacy,xpyriment,osweb,1.3.13,0,space,space,space,,38668,28462,38668,,2,legacy,824,1536,24,864,24,0,0,1536,1645876861621,1024,2,48000,-16,experiment,p3sarrsha2.png,1,odd,Win32,80,139887,136885,80,80,295985,297493,290982,141390,290982,80,,,,,,visual_patterns,0,0,0,yes,1366
undefined,undefined,undefined,undefined,white,no,Mozilla,Netscape,"5.0 (Windows NT 10.0; Win64; x64) AppleWebKit/537.36 (KHTML, like Gecko) Chrome/98.0.4758.102 Safari/537.36",xpyriment,legacy,legacy,0,uniform,0,0,0,0,24,24,24,0,0,18,18,18,18,18,0,18,0,,,,,,0,,26-01-22,26-01-22,12:59:49,Sat Feb 26 2022 12:59:49 GMT+0100 (közép-európai téli idő),The main experiment item,yes,0,0,C:/Users/rrics/Documents/!!ResearchBMECOGSCI/gnet,0,0,0,prototype2.png,no,mono,no,18,no,black,no,no,768,1145,3.5.6,legacy,xpyriment,osweb,1.3.13,0,space,space,space,,38668,28462,38668,,2,legacy,824,1536,24,864,24,0,0,1536,1645876861621,1024,2,48000,-16,experiment,prototype4.png,1,odd,Win32,80,139887,136885,80,80,302501,304017,297499,141390,297499,80,,,,,,visual_patterns,0,0,0,yes,1366
undefined,undefined,undefined,undefined,white,no,Mozilla,Netscape,"5.0 (Windows NT 10.0; Win64; x64) AppleWebKit/537.36 (KHTML, like Gecko) Chrome/98.0.4758.102 Safari/537.36",xpyriment,legacy,legacy,0,uniform,0,0,0,0,24,24,24,0,0,19,19,19,19,19,0,19,0,,,,,,0,,26-01-22,26-01-22,12:59:49,Sat Feb 26 2022 12:59:49 GMT+0100 (közép-európai téli idő),The main experiment item,yes,0,0,C:/Users/rrics/Documents/!!ResearchBMECOGSCI/gnet,0,0,0,prototype2.png,no,mono,no,18,no,black,no,no,768,1145,3.5.6,legacy,xpyriment,osweb,1.3.13,0,space,space,space,,38668,28462,38668,,2,legacy,824,1536,24,864,24,0,0,1536,1645876861621,1024,2,48000,-16,experiment,p3sarrsha1.png,1,odd,Win32,80,139887,136885,80,80,309023,310541,304023,141390,304023,80,,,,,,visual_patterns,0,0,0,yes,1366
undefined,undefined,undefined,undefined,white,no,Mozilla,Netscape,"5.0 (Windows NT 10.0; Win64; x64) AppleWebKit/537.36 (KHTML, like Gecko) Chrome/98.0.4758.102 Safari/537.36",xpyriment,legacy,legacy,0,uniform,0,0,0,0,24,24,24,0,0,20,20,20,20,20,0,20,0,,,,,,0,,26-01-22,26-01-22,12:59:49,Sat Feb 26 2022 12:59:49 GMT+0100 (közép-európai téli idő),The main experiment item,yes,0,0,C:/Users/rrics/Documents/!!ResearchBMECOGSCI/gnet,0,0,0,prototype2.png,no,mono,no,18,no,black,no,no,768,1145,3.5.6,legacy,xpyriment,osweb,1.3.13,0,space,space,space,,38668,28462,38668,,2,legacy,824,1536,24,864,24,0,0,1536,1645876861621,1024,2,48000,-16,experiment,prototype2.png,1,odd,Win32,80,139887,136885,80,80,315545,317047,310544,141390,310544,80,,,,,,visual_patterns,0,0,0,yes,1366
undefined,undefined,undefined,undefined,white,no,Mozilla,Netscape,"5.0 (Windows NT 10.0; Win64; x64) AppleWebKit/537.36 (KHTML, like Gecko) Chrome/98.0.4758.102 Safari/537.36",xpyriment,legacy,legacy,0,uniform,0,0,0,0,24,24,24,0,0,21,21,21,21,21,0,21,0,,,,,,0,,26-01-22,26-01-22,12:59:49,Sat Feb 26 2022 12:59:49 GMT+0100 (közép-európai téli idő),The main experiment item,yes,0,0,C:/Users/rrics/Documents/!!ResearchBMECOGSCI/gnet,0,0,0,prototype2.png,no,mono,no,18,no,black,no,no,768,1145,3.5.6,legacy,xpyriment,osweb,1.3.13,0,space,space,space,,38668,28462,38668,,2,legacy,824,1536,24,864,24,0,0,1536,1645876861621,1024,2,48000,-16,experiment,p4sarrcol2.png,1,odd,Win32,80,139887,136885,80,80,322054,323555,317054,141390,317054,80,,,,,,visual_patterns,0,0,0,yes,1366
undefined,undefined,undefined,undefined,white,no,Mozilla,Netscape,"5.0 (Windows NT 10.0; Win64; x64) AppleWebKit/537.36 (KHTML, like Gecko) Chrome/98.0.4758.102 Safari/537.36",xpyriment,legacy,legacy,0,uniform,0,0,0,0,24,24,24,0,0,22,22,22,22,22,0,22,0,,,,,,0,,26-01-22,26-01-22,12:59:49,Sat Feb 26 2022 12:59:49 GMT+0100 (közép-európai téli idő),The main experiment item,yes,0,0,C:/Users/rrics/Documents/!!ResearchBMECOGSCI/gnet,0,0,0,prototype2.png,no,mono,no,18,no,black,no,no,768,1145,3.5.6,legacy,xpyriment,osweb,1.3.13,0,space,space,space,,38668,28462,38668,,2,legacy,824,1536,24,864,24,0,0,1536,1645876861621,1024,2,48000,-16,experiment,p5sarrshacol1.png,1,odd,Win32,80,139887,136885,80,80,328565,330079,323562,141390,323562,80,,,,,,visual_patterns,0,0,0,yes,1366
undefined,undefined,undefined,undefined,white,no,Mozilla,Netscape,"5.0 (Windows NT 10.0; Win64; x64) AppleWebKit/537.36 (KHTML, like Gecko) Chrome/98.0.4758.102 Safari/537.36",xpyriment,legacy,legacy,0,uniform,0,0,0,0,24,24,24,0,0,23,23,23,23,23,0,23,0,,,,,,0,,26-01-22,26-01-22,12:59:49,Sat Feb 26 2022 12:59:49 GMT+0100 (közép-európai téli idő),The main experiment item,yes,0,0,C:/Users/rrics/Documents/!!ResearchBMECOGSCI/gnet,0,0,0,prototype2.png,no,mono,no,18,no,black,no,no,768,1145,3.5.6,legacy,xpyriment,osweb,1.3.13,0,space,space,space,,38668,28462,38668,,2,legacy,824,1536,24,864,24,0,0,1536,1645876861621,1024,2,48000,-16,experiment,prototype2.png,1,odd,Win32,80,139887,136885,80,80,335086,336603,330086,141390,330086,80,,,,,,visual_patterns,0,0,0,yes,1366
undefined,undefined,undefined,undefined,white,no,Mozilla,Netscape,"5.0 (Windows NT 10.0; Win64; x64) AppleWebKit/537.36 (KHTML, like Gecko) Chrome/98.0.4758.102 Safari/537.36",xpyriment,legacy,legacy,0,uniform,0,0,0,0,24,24,24,0,0,24,24,24,24,24,0,24,0,,,,,,0,,26-01-22,26-01-22,12:59:49,Sat Feb 26 2022 12:59:49 GMT+0100 (közép-európai téli idő),The main experiment item,yes,0,0,C:/Users/rrics/Documents/!!ResearchBMECOGSCI/gnet,0,0,0,prototype2.png,no,mono,no,18,no,black,no,no,768,1145,3.5.6,legacy,xpyriment,osweb,1.3.13,0,space,space,space,,38668,28462,38668,,2,legacy,824,1536,24,864,24,0,0,1536,1645876861621,1024,2,48000,-16,experiment,p4sarrsha2.png,1,odd,Win32,80,139887,136885,80,80,341614,343126,336610,141390,336610,80,,,,,,visual_patterns,0,0,0,yes,1366
undefined,undefined,undefined,undefined,white,no,Mozilla,Netscape,"5.0 (Windows NT 10.0; Win64; x64) AppleWebKit/537.36 (KHTML, like Gecko) Chrome/98.0.4758.102 Safari/537.36",xpyriment,legacy,legacy,0,uniform,0,0,0,0,24,24,24,0,0,25,25,25,25,25,0,25,0,,,,,,0,,26-01-22,26-01-22,12:59:49,Sat Feb 26 2022 12:59:49 GMT+0100 (közép-európai téli idő),The main experiment item,yes,0,0,C:/Users/rrics/Documents/!!ResearchBMECOGSCI/gnet,0,0,0,prototype2.png,no,mono,no,18,no,black,no,no,768,1145,3.5.6,legacy,xpyriment,osweb,1.3.13,0,space,space,space,,38668,28462,38668,,2,legacy,824,1536,24,864,24,0,0,1536,1645876861621,1024,2,48000,-16,experiment,p9sarr1.png,1,odd,Win32,80,139887,136885,80,80,348131,349634,343132,141390,343132,80,,,,,,visual_patterns,0,0,0,yes,1366
undefined,undefined,undefined,undefined,white,no,Mozilla,Netscape,"5.0 (Windows NT 10.0; Win64; x64) AppleWebKit/537.36 (KHTML, like Gecko) Chrome/98.0.4758.102 Safari/537.36",xpyriment,legacy,legacy,0,uniform,0,0,0,0,24,24,24,0,0,26,26,26,26,26,0,26,0,,,,,,0,,26-01-22,26-01-22,12:59:49,Sat Feb 26 2022 12:59:49 GMT+0100 (közép-európai téli idő),The main experiment item,yes,0,0,C:/Users/rrics/Documents/!!ResearchBMECOGSCI/gnet,0,0,0,prototype2.png,no,mono,no,18,no,black,no,no,768,1145,3.5.6,legacy,xpyriment,osweb,1.3.13,0,space,space,space,,38668,28462,38668,,2,legacy,824,1536,24,864,24,0,0,1536,1645876861621,1024,2,48000,-16,experiment,prototype1.png,1,odd,Win32,80,139887,136885,80,80,354641,356157,349640,141390,349640,80,,,,,,visual_patterns,0,0,0,yes,1366
undefined,undefined,undefined,undefined,white,no,Mozilla,Netscape,"5.0 (Windows NT 10.0; Win64; x64) AppleWebKit/537.36 (KHTML, like Gecko) Chrome/98.0.4758.102 Safari/537.36",xpyriment,legacy,legacy,0,uniform,0,0,0,0,24,24,24,0,0,27,27,27,27,27,0,27,0,,,,,,0,,26-01-22,26-01-22,12:59:49,Sat Feb 26 2022 12:59:49 GMT+0100 (közép-európai téli idő),The main experiment item,yes,0,0,C:/Users/rrics/Documents/!!ResearchBMECOGSCI/gnet,0,0,0,prototype2.png,no,mono,no,18,no,black,no,no,768,1145,3.5.6,legacy,xpyriment,osweb,1.3.13,0,space,space,space,,38668,28462,38668,,2,legacy,824,1536,24,864,24,0,0,1536,1645876861621,1024,2,48000,-16,experiment,p4sarrcol1.png,1,odd,Win32,80,139887,136885,80,80,361167,362681,356165,141390,356165,80,,,,,,visual_patterns,0,0,0,yes,1366
undefined,undefined,undefined,undefined,white,no,Mozilla,Netscape,"5.0 (Windows NT 10.0; Win64; x64) AppleWebKit/537.36 (KHTML, like Gecko) Chrome/98.0.4758.102 Safari/537.36",xpyriment,legacy,legacy,0,uniform,0,0,0,0,24,24,24,0,0,28,28,28,28,28,0,28,0,,,,,,0,,26-01-22,26-01-22,12:59:49,Sat Feb 26 2022 12:59:49 GMT+0100 (közép-európai téli idő),The main experiment item,yes,0,0,C:/Users/rrics/Documents/!!ResearchBMECOGSCI/gnet,0,0,0,prototype2.png,no,mono,no,18,no,black,no,no,768,1145,3.5.6,legacy,xpyriment,osweb,1.3.13,0,space,space,space,,38668,28462,38668,,2,legacy,824,1536,24,864,24,0,0,1536,1645876861621,1024,2,48000,-16,experiment,prototype4.png,1,odd,Win32,80,139887,136885,80,80,367692,369205,362688,141390,362688,80,,,,,,visual_patterns,0,0,0,yes,1366
undefined,undefined,undefined,undefined,white,no,Mozilla,Netscape,"5.0 (Windows NT 10.0; Win64; x64) AppleWebKit/537.36 (KHTML, like Gecko) Chrome/98.0.4758.102 Safari/537.36",xpyriment,legacy,legacy,0,uniform,0,0,0,0,24,24,24,0,0,29,29,29,29,29,0,29,0,,,,,,0,,26-01-22,26-01-22,12:59:49,Sat Feb 26 2022 12:59:49 GMT+0100 (közép-európai téli idő),The main experiment item,yes,0,0,C:/Users/rrics/Documents/!!ResearchBMECOGSCI/gnet,0,0,0,prototype2.png,no,mono,no,18,no,black,no,no,768,1145,3.5.6,legacy,xpyriment,osweb,1.3.13,0,space,space,space,,38668,28462,38668,,2,legacy,824,1536,24,864,24,0,0,1536,1645876861621,1024,2,48000,-16,experiment,prototype5.png,1,odd,Win32,80,139887,136885,80,80,374215,375729,369211,141390,369211,80,,,,,,visual_patterns,0,0,0,yes,1366
undefined,undefined,undefined,undefined,white,no,Mozilla,Netscape,"5.0 (Windows NT 10.0; Win64; x64) AppleWebKit/537.36 (KHTML, like Gecko) Chrome/98.0.4758.102 Safari/537.36",xpyriment,legacy,legacy,0,uniform,0,0,0,0,24,24,24,0,0,30,30,30,30,30,0,30,0,,,,,,0,,26-01-22,26-01-22,12:59:49,Sat Feb 26 2022 12:59:49 GMT+0100 (közép-európai téli idő),The main experiment item,yes,0,0,C:/Users/rrics/Documents/!!ResearchBMECOGSCI/gnet,0,0,0,prototype2.png,no,mono,no,18,no,black,no,no,768,1145,3.5.6,legacy,xpyriment,osweb,1.3.13,0,space,space,space,,38668,28462,38668,,2,legacy,824,1536,24,864,24,0,0,1536,1645876861621,1024,2,48000,-16,experiment,p5sarrcol2.png,1,odd,Win32,80,139887,136885,80,80,380738,382253,375736,141390,375736,80,,,,,,visual_patterns,0,0,0,yes,1366
undefined,undefined,undefined,undefined,white,no,Mozilla,Netscape,"5.0 (Windows NT 10.0; Win64; x64) AppleWebKit/537.36 (KHTML, like Gecko) Chrome/98.0.4758.102 Safari/537.36",xpyriment,legacy,legacy,0,uniform,0,0,0,0,24,24,24,0,0,31,31,31,31,31,0,31,0,,,,,,0,,26-01-22,26-01-22,12:59:49,Sat Feb 26 2022 12:59:49 GMT+0100 (közép-európai téli idő),The main experiment item,yes,0,0,C:/Users/rrics/Documents/!!ResearchBMECOGSCI/gnet,0,0,0,prototype2.png,no,mono,no,18,no,black,no,no,768,1145,3.5.6,legacy,xpyriment,osweb,1.3.13,0,space,space,space,,38668,28462,38668,,2,legacy,824,1536,24,864,24,0,0,1536,1645876861621,1024,2,48000,-16,experiment,p2sarrsha2.png,1,odd,Win32,80,139887,136885,80,80,387262,388778,382260,141390,382260,80,,,,,,visual_patterns,0,0,0,yes,1366
undefined,undefined,undefined,undefined,white,no,Mozilla,Netscape,"5.0 (Windows NT 10.0; Win64; x64) AppleWebKit/537.36 (KHTML, like Gecko) Chrome/98.0.4758.102 Safari/537.36",xpyriment,legacy,legacy,0,uniform,0,0,0,0,24,24,24,0,0,32,32,32,32,32,0,32,0,,,,,,0,,26-01-22,26-01-22,12:59:49,Sat Feb 26 2022 12:59:49 GMT+0100 (közép-európai téli idő),The main experiment item,yes,0,0,C:/Users/rrics/Documents/!!ResearchBMECOGSCI/gnet,0,0,0,prototype2.png,no,mono,no,18,no,black,no,no,768,1145,3.5.6,legacy,xpyriment,osweb,1.3.13,0,space,space,space,,38668,28462,38668,,2,legacy,824,1536,24,864,24,0,0,1536,1645876861621,1024,2,48000,-16,experiment,p5sarr1.png,1,odd,Win32,80,139887,136885,80,80,393786,395301,388784,141390,388784,80,,,,,,visual_patterns,0,0,0,yes,1366
undefined,undefined,undefined,undefined,white,no,Mozilla,Netscape,"5.0 (Windows NT 10.0; Win64; x64) AppleWebKit/537.36 (KHTML, like Gecko) Chrome/98.0.4758.102 Safari/537.36",xpyriment,legacy,legacy,0,uniform,0,0,0,0,24,24,24,0,0,33,33,33,33,33,0,33,0,,,,,,0,,26-01-22,26-01-22,12:59:49,Sat Feb 26 2022 12:59:49 GMT+0100 (közép-európai téli idő),The main experiment item,yes,0,0,C:/Users/rrics/Documents/!!ResearchBMECOGSCI/gnet,0,0,0,prototype2.png,no,mono,no,18,no,black,no,no,768,1145,3.5.6,legacy,xpyriment,osweb,1.3.13,0,space,space,space,,38668,28462,38668,,2,legacy,824,1536,24,864,24,0,0,1536,1645876861621,1024,2,48000,-16,experiment,p3sarrshacol1.png,1,odd,Win32,80,139887,136885,80,80,400310,401824,395308,141390,395308,80,,,,,,visual_patterns,0,0,0,yes,1366
undefined,undefined,undefined,undefined,white,no,Mozilla,Netscape,"5.0 (Windows NT 10.0; Win64; x64) AppleWebKit/537.36 (KHTML, like Gecko) Chrome/98.0.4758.102 Safari/537.36",xpyriment,legacy,legacy,0,uniform,0,0,0,0,24,24,24,0,0,34,34,34,34,34,0,34,0,,,,,,0,,26-01-22,26-01-22,12:59:49,Sat Feb 26 2022 12:59:49 GMT+0100 (közép-európai téli idő),The main experiment item,yes,0,0,C:/Users/rrics/Documents/!!ResearchBMECOGSCI/gnet,0,0,0,prototype2.png,no,mono,no,18,no,black,no,no,768,1145,3.5.6,legacy,xpyriment,osweb,1.3.13,0,space,space,space,,38668,28462,38668,,2,legacy,824,1536,24,864,24,0,0,1536,1645876861621,1024,2,48000,-16,experiment,prototype1.png,1,odd,Win32,80,139887,136885,80,80,406833,408348,401831,141390,401831,80,,,,,,visual_patterns,0,0,0,yes,1366
undefined,undefined,undefined,undefined,white,no,Mozilla,Netscape,"5.0 (Windows NT 10.0; Win64; x64) AppleWebKit/537.36 (KHTML, like Gecko) Chrome/98.0.4758.102 Safari/537.36",xpyriment,legacy,legacy,0,uniform,0,0,0,0,24,24,24,0,0,35,35,35,35,35,0,35,0,,,,,,0,,26-01-22,26-01-22,12:59:49,Sat Feb 26 2022 12:59:49 GMT+0100 (közép-európai téli idő),The main experiment item,yes,0,0,C:/Users/rrics/Documents/!!ResearchBMECOGSCI/gnet,0,0,0,prototype2.png,no,mono,no,18,no,black,no,no,768,1145,3.5.6,legacy,xpyriment,osweb,1.3.13,0,space,space,space,,38668,28462,38668,,2,legacy,824,1536,24,864,24,0,0,1536,1645876861621,1024,2,48000,-16,experiment,p4sarrshacol1.png,1,odd,Win32,80,139887,136885,80,80,413356,414872,408356,141390,408356,80,,,,,,visual_patterns,0,0,0,yes,1366
undefined,undefined,undefined,undefined,white,no,Mozilla,Netscape,"5.0 (Windows NT 10.0; Win64; x64) AppleWebKit/537.36 (KHTML, like Gecko) Chrome/98.0.4758.102 Safari/537.36",xpyriment,legacy,legacy,0,uniform,0,0,0,0,24,24,24,0,0,36,36,36,36,36,0,36,0,,,,,,0,,26-01-22,26-01-22,12:59:49,Sat Feb 26 2022 12:59:49 GMT+0100 (közép-európai téli idő),The main experiment item,yes,0,0,C:/Users/rrics/Documents/!!ResearchBMECOGSCI/gnet,0,0,0,prototype2.png,no,mono,no,18,no,black,no,no,768,1145,3.5.6,legacy,xpyriment,osweb,1.3.13,0,space,space,space,,38668,28462,38668,,2,legacy,824,1536,24,864,24,0,0,1536,1645876861621,1024,2,48000,-16,experiment,prototype3.png,1,odd,Win32,80,139887,136885,80,80,419881,421396,414878,141390,414878,80,,,,,,visual_patterns,0,0,0,yes,1366
undefined,undefined,undefined,undefined,white,no,Mozilla,Netscape,"5.0 (Windows NT 10.0; Win64; x64) AppleWebKit/537.36 (KHTML, like Gecko) Chrome/98.0.4758.102 Safari/537.36",xpyriment,legacy,legacy,0,uniform,0,0,0,0,24,24,24,0,0,37,37,37,37,37,0,37,0,,,,,,0,,26-01-22,26-01-22,12:59:49,Sat Feb 26 2022 12:59:49 GMT+0100 (közép-európai téli idő),The main experiment item,yes,0,0,C:/Users/rrics/Documents/!!ResearchBMECOGSCI/gnet,0,0,0,prototype2.png,no,mono,no,18,no,black,no,no,768,1145,3.5.6,legacy,xpyriment,osweb,1.3.13,0,space,space,space,,38668,28462,38668,,2,legacy,824,1536,24,864,24,0,0,1536,1645876861621,1024,2,48000,-16,experiment,prototype3.png,1,odd,Win32,80,139887,136885,80,80,426404,427920,421399,141390,421399,80,,,,,,visual_patterns,0,0,0,yes,1366
undefined,undefined,undefined,undefined,white,no,Mozilla,Netscape,"5.0 (Windows NT 10.0; Win64; x64) AppleWebKit/537.36 (KHTML, like Gecko) Chrome/98.0.4758.102 Safari/537.36",xpyriment,legacy,legacy,0,uniform,0,0,0,0,24,24,24,0,0,38,38,38,38,38,0,38,0,,,,,,0,,26-01-22,26-01-22,12:59:49,Sat Feb 26 2022 12:59:49 GMT+0100 (közép-európai téli idő),The main experiment item,yes,0,0,C:/Users/rrics/Documents/!!ResearchBMECOGSCI/gnet,0,0,0,prototype2.png,no,mono,no,18,no,black,no,no,768,1145,3.5.6,legacy,xpyriment,osweb,1.3.13,0,space,space,space,,38668,28462,38668,,2,legacy,824,1536,24,864,24,0,0,1536,1645876861621,1024,2,48000,-16,experiment,p7sarr1.png,1,odd,Win32,80,139887,136885,80,80,432930,434444,427930,141390,427929,80,,,,,,visual_patterns,0,0,0,yes,1366
undefined,undefined,undefined,undefined,white,no,Mozilla,Netscape,"5.0 (Windows NT 10.0; Win64; x64) AppleWebKit/537.36 (KHTML, like Gecko) Chrome/98.0.4758.102 Safari/537.36",xpyriment,legacy,legacy,0,uniform,0,0,0,0,24,24,24,0,0,39,39,39,39,39,0,39,0,,,,,,0,,26-01-22,26-01-22,12:59:49,Sat Feb 26 2022 12:59:49 GMT+0100 (közép-európai téli idő),The main experiment item,yes,0,0,C:/Users/rrics/Documents/!!ResearchBMECOGSCI/gnet,0,0,0,prototype2.png,no,mono,no,18,no,black,no,no,768,1145,3.5.6,legacy,xpyriment,osweb,1.3.13,0,space,space,space,,38668,28462,38668,,2,legacy,824,1536,24,864,24,0,0,1536,1645876861621,1024,2,48000,-16,experiment,p1sarrsha1.png,1,odd,Win32,80,139887,136885,80,80,439451,440968,434451,141390,434451,80,,,,,,visual_patterns,0,0,0,yes,1366
undefined,undefined,undefined,undefined,white,no,Mozilla,Netscape,"5.0 (Windows NT 10.0; Win64; x64) AppleWebKit/537.36 (KHTML, like Gecko) Chrome/98.0.4758.102 Safari/537.36",xpyriment,legacy,legacy,0,uniform,0,0,0,0,24,24,24,0,0,40,40,40,40,40,0,40,0,,,,,,0,,26-01-22,26-01-22,12:59:49,Sat Feb 26 2022 12:59:49 GMT+0100 (közép-európai téli idő),The main experiment item,yes,0,0,C:/Users/rrics/Documents/!!ResearchBMECOGSCI/gnet,0,0,0,prototype2.png,no,mono,no,18,no,black,no,no,768,1145,3.5.6,legacy,xpyriment,osweb,1.3.13,0,space,space,space,,38668,28462,38668,,2,legacy,824,1536,24,864,24,0,0,1536,1645876861621,1024,2,48000,-16,experiment,prototype5.png,1,odd,Win32,80,139887,136885,80,80,445975,447491,440974,141390,440974,80,,,,,,visual_patterns,0,0,0,yes,1366
undefined,undefined,undefined,undefined,white,no,Mozilla,Netscape,"5.0 (Windows NT 10.0; Win64; x64) AppleWebKit/537.36 (KHTML, like Gecko) Chrome/98.0.4758.102 Safari/537.36",xpyriment,legacy,legacy,0,uniform,0,0,0,0,24,24,24,0,0,41,41,41,41,41,0,41,0,,,,,,0,,26-01-22,26-01-22,12:59:49,Sat Feb 26 2022 12:59:49 GMT+0100 (közép-európai téli idő),The main experiment item,yes,0,0,C:/Users/rrics/Documents/!!ResearchBMECOGSCI/gnet,0,0,0,prototype2.png,no,mono,no,18,no,black,no,no,768,1145,3.5.6,legacy,xpyriment,osweb,1.3.13,0,space,space,space,,38668,28462,38668,,2,legacy,824,1536,24,864,24,0,0,1536,1645876861621,1024,2,48000,-16,experiment,p3sarrshacol2.png,1,odd,Win32,80,139887,136885,80,80,452500,454015,447499,141390,447499,80,,,,,,visual_patterns,0,0,0,yes,1366
undefined,undefined,undefined,undefined,white,no,Mozilla,Netscape,"5.0 (Windows NT 10.0; Win64; x64) AppleWebKit/537.36 (KHTML, like Gecko) Chrome/98.0.4758.102 Safari/537.36",xpyriment,legacy,legacy,0,uniform,0,0,0,0,24,24,24,0,0,42,42,42,42,42,0,42,0,,,,,,0,,26-01-22,26-01-22,12:59:49,Sat Feb 26 2022 12:59:49 GMT+0100 (közép-európai téli idő),The main experiment item,yes,0,0,C:/Users/rrics/Documents/!!ResearchBMECOGSCI/gnet,0,0,0,prototype2.png,no,mono,no,18,no,black,no,no,768,1145,3.5.6,legacy,xpyriment,osweb,1.3.13,0,space,space,space,,38668,28462,38668,,2,legacy,824,1536,24,864,24,0,0,1536,1645876861621,1024,2,48000,-16,experiment,p3sarrcol2.png,1,odd,Win32,80,139887,136885,80,80,459028,460539,454028,141390,454028,80,,,,,,visual_patterns,0,0,0,yes,1366
undefined,undefined,undefined,undefined,white,no,Mozilla,Netscape,"5.0 (Windows NT 10.0; Win64; x64) AppleWebKit/537.36 (KHTML, like Gecko) Chrome/98.0.4758.102 Safari/537.36",xpyriment,legacy,legacy,0,uniform,0,0,0,0,24,24,24,0,0,43,43,43,43,43,0,43,0,,,,,,0,,26-01-22,26-01-22,12:59:49,Sat Feb 26 2022 12:59:49 GMT+0100 (közép-európai téli idő),The main experiment item,yes,0,0,C:/Users/rrics/Documents/!!ResearchBMECOGSCI/gnet,0,0,0,prototype2.png,no,mono,no,18,no,black,no,no,768,1145,3.5.6,legacy,xpyriment,osweb,1.3.13,0,space,space,space,,38668,28462,38668,,2,legacy,824,1536,24,864,24,0,0,1536,1645876861621,1024,2,48000,-16,experiment,p3sarr2.png,1,odd,Win32,80,139887,136885,80,80,465548,467063,460546,141390,460546,80,,,,,,visual_patterns,0,0,0,yes,1366
undefined,undefined,undefined,undefined,white,no,Mozilla,Netscape,"5.0 (Windows NT 10.0; Win64; x64) AppleWebKit/537.36 (KHTML, like Gecko) Chrome/98.0.4758.102 Safari/537.36",xpyriment,legacy,legacy,0,uniform,0,0,0,0,24,24,24,0,0,44,44,44,44,44,0,44,0,,,,,,0,,26-01-22,26-01-22,12:59:49,Sat Feb 26 2022 12:59:49 GMT+0100 (közép-európai téli idő),The main experiment item,yes,0,0,C:/Users/rrics/Documents/!!ResearchBMECOGSCI/gnet,0,0,0,prototype2.png,no,mono,no,18,no,black,no,no,768,1145,3.5.6,legacy,xpyriment,osweb,1.3.13,0,space,space,space,,38668,28462,38668,,2,legacy,824,1536,24,864,24,0,0,1536,1645876861621,1024,2,48000,-16,experiment,p2sarrsha1.png,1,odd,Win32,80,139887,136885,80,80,472069,473570,467070,141390,467070,80,,,,,,visual_patterns,0,0,0,yes,1366
undefined,undefined,undefined,undefined,white,no,Mozilla,Netscape,"5.0 (Windows NT 10.0; Win64; x64) AppleWebKit/537.36 (KHTML, like Gecko) Chrome/98.0.4758.102 Safari/537.36",xpyriment,legacy,legacy,0,uniform,0,0,0,0,24,24,24,0,0,45,45,45,45,45,0,45,0,,,,,,0,,26-01-22,26-01-22,12:59:49,Sat Feb 26 2022 12:59:49 GMT+0100 (közép-európai téli idő),The main experiment item,yes,0,0,C:/Users/rrics/Documents/!!ResearchBMECOGSCI/gnet,0,0,0,prototype2.png,no,mono,no,18,no,black,no,no,768,1145,3.5.6,legacy,xpyriment,osweb,1.3.13,0,space,space,space,,38668,28462,38668,,2,legacy,824,1536,24,864,24,0,0,1536,1645876861621,1024,2,48000,-16,experiment,p4sarrsha1.png,1,odd,Win32,80,139887,136885,80,80,478580,480094,473576,141390,473576,80,,,,,,visual_patterns,0,0,0,yes,1366
undefined,undefined,undefined,undefined,white,no,Mozilla,Netscape,"5.0 (Windows NT 10.0; Win64; x64) AppleWebKit/537.36 (KHTML, like Gecko) Chrome/98.0.4758.102 Safari/537.36",xpyriment,legacy,legacy,0,uniform,0,0,0,0,24,24,24,0,0,46,46,46,46,46,0,46,0,,,,,,0,,26-01-22,26-01-22,12:59:49,Sat Feb 26 2022 12:59:49 GMT+0100 (közép-európai téli idő),The main experiment item,yes,0,0,C:/Users/rrics/Documents/!!ResearchBMECOGSCI/gnet,0,0,0,prototype2.png,no,mono,no,18,no,black,no,no,768,1145,3.5.6,legacy,xpyriment,osweb,1.3.13,0,space,space,space,,38668,28462,38668,,2,legacy,824,1536,24,864,24,0,0,1536,1645876861621,1024,2,48000,-16,experiment,p1sarrcol1.png,1,odd,Win32,80,139887,136885,80,80,485102,486618,480102,141390,480102,80,,,,,,visual_patterns,0,0,0,yes,1366
undefined,undefined,undefined,undefined,white,no,Mozilla,Netscape,"5.0 (Windows NT 10.0; Win64; x64) AppleWebKit/537.36 (KHTML, like Gecko) Chrome/98.0.4758.102 Safari/537.36",xpyriment,legacy,legacy,0,uniform,0,0,0,0,24,24,24,0,0,47,47,47,47,47,0,47,0,,,,,,0,,26-01-22,26-01-22,12:59:49,Sat Feb 26 2022 12:59:49 GMT+0100 (közép-európai téli idő),The main experiment item,yes,0,0,C:/Users/rrics/Documents/!!ResearchBMECOGSCI/gnet,0,0,0,prototype2.png,no,mono,no,18,no,black,no,no,768,1145,3.5.6,legacy,xpyriment,osweb,1.3.13,0,space,space,space,,38668,28462,38668,,2,legacy,824,1536,24,864,24,0,0,1536,1645876861621,1024,2,48000,-16,experiment,p1sarrsha2.png,1,odd,Win32,80,139887,136885,80,80,491633,493142,486631,141390,486631,80,,,,,,visual_patterns,0,0,0,yes,1366
undefined,undefined,undefined,undefined,white,no,Mozilla,Netscape,"5.0 (Windows NT 10.0; Win64; x64) AppleWebKit/537.36 (KHTML, like Gecko) Chrome/98.0.4758.102 Safari/537.36",xpyriment,legacy,legacy,0,uniform,0,0,0,0,24,24,24,0,0,48,48,48,48,48,0,48,0,,,,,,0,,26-01-22,26-01-22,12:59:49,Sat Feb 26 2022 12:59:49 GMT+0100 (közép-európai téli idő),The main experiment item,yes,0,0,C:/Users/rrics/Documents/!!ResearchBMECOGSCI/gnet,0,0,0,prototype2.png,no,mono,no,18,no,black,no,no,768,1145,3.5.6,legacy,xpyriment,osweb,1.3.13,0,space,space,space,,38668,28462,38668,,2,legacy,824,1536,24,864,24,0,0,1536,1645876861621,1024,2,48000,-16,experiment,p7sarr2.png,1,odd,Win32,80,139887,136885,80,80,498151,499666,493149,141390,493149,80,,,,,,visual_patterns,0,0,0,yes,1366
undefined,undefined,undefined,undefined,white,no,Mozilla,Netscape,"5.0 (Windows NT 10.0; Win64; x64) AppleWebKit/537.36 (KHTML, like Gecko) Chrome/98.0.4758.102 Safari/537.36",xpyriment,legacy,legacy,0,uniform,0,0,0,0,24,24,24,0,0,49,49,49,49,49,0,49,0,,,,,,0,,26-01-22,26-01-22,12:59:49,Sat Feb 26 2022 12:59:49 GMT+0100 (közép-európai téli idő),The main experiment item,yes,0,0,C:/Users/rrics/Documents/!!ResearchBMECOGSCI/gnet,0,0,0,prototype2.png,no,mono,no,18,no,black,no,no,768,1145,3.5.6,legacy,xpyriment,osweb,1.3.13,0,space,space,space,,38668,28462,38668,,2,legacy,824,1536,24,864,24,0,0,1536,1645876861621,1024,2,48000,-16,experiment,p4sarr1.png,1,odd,Win32,80,139887,136885,80,80,504677,506189,499674,141390,499674,80,,,,,,visual_patterns,0,0,0,yes,1366
undefined,undefined,undefined,undefined,white,no,Mozilla,Netscape,"5.0 (Windows NT 10.0; Win64; x64) AppleWebKit/537.36 (KHTML, like Gecko) Chrome/98.0.4758.102 Safari/537.36",xpyriment,legacy,legacy,0,uniform,0,0,0,0,24,24,24,0,0,50,50,50,50,50,0,50,0,,,,,,0,,26-01-22,26-01-22,12:59:49,Sat Feb 26 2022 12:59:49 GMT+0100 (közép-európai téli idő),The main experiment item,yes,0,0,C:/Users/rrics/Documents/!!ResearchBMECOGSCI/gnet,0,0,0,prototype2.png,no,mono,no,18,no,black,no,no,768,1145,3.5.6,legacy,xpyriment,osweb,1.3.13,0,space,space,space,,38668,28462,38668,,2,legacy,824,1536,24,864,24,0,0,1536,1645876861621,1024,2,48000,-16,experiment,p10sarr1.png,1,odd,Win32,80,139887,136885,80,80,511197,512713,506196,141390,506196,80,,,,,,visual_patterns,0,0,0,yes,1366
undefined,undefined,undefined,undefined,white,no,Mozilla,Netscape,"5.0 (Windows NT 10.0; Win64; x64) AppleWebKit/537.36 (KHTML, like Gecko) Chrome/98.0.4758.102 Safari/537.36",xpyriment,legacy,legacy,0,uniform,0,0,0,0,24,24,24,0,0,51,51,51,51,51,0,51,0,,,,,,0,,26-01-22,26-01-22,12:59:49,Sat Feb 26 2022 12:59:49 GMT+0100 (közép-európai téli idő),The main experiment item,yes,0,0,C:/Users/rrics/Documents/!!ResearchBMECOGSCI/gnet,0,0,0,prototype2.png,no,mono,no,18,no,black,no,no,768,1145,3.5.6,legacy,xpyriment,osweb,1.3.13,0,space,space,space,,38668,28462,38668,,2,legacy,824,1536,24,864,24,0,0,1536,1645876861621,1024,2,48000,-16,experiment,prototype3.png,1,odd,Win32,80,139887,136885,80,80,517721,519237,512719,141390,512719,80,,,,,,visual_patterns,0,0,0,yes,1366
undefined,undefined,undefined,undefined,white,no,Mozilla,Netscape,"5.0 (Windows NT 10.0; Win64; x64) AppleWebKit/537.36 (KHTML, like Gecko) Chrome/98.0.4758.102 Safari/537.36",xpyriment,legacy,legacy,0,uniform,0,0,0,0,24,24,24,0,0,52,52,52,52,52,0,52,0,,,,,,0,,26-01-22,26-01-22,12:59:49,Sat Feb 26 2022 12:59:49 GMT+0100 (közép-európai téli idő),The main experiment item,yes,0,0,C:/Users/rrics/Documents/!!ResearchBMECOGSCI/gnet,0,0,0,prototype2.png,no,mono,no,18,no,black,no,no,768,1145,3.5.6,legacy,xpyriment,osweb,1.3.13,0,space,space,space,,38668,28462,38668,,2,legacy,824,1536,24,864,24,0,0,1536,1645876861621,1024,2,48000,-16,experiment,p1sarr1.png,1,odd,Win32,80,139887,136885,80,80,524244,525761,519244,141390,519244,80,,,,,,visual_patterns,0,0,0,yes,1366
undefined,undefined,undefined,undefined,white,no,Mozilla,Netscape,"5.0 (Windows NT 10.0; Win64; x64) AppleWebKit/537.36 (KHTML, like Gecko) Chrome/98.0.4758.102 Safari/537.36",xpyriment,legacy,legacy,0,uniform,0,0,0,0,24,24,24,0,0,53,53,53,53,53,0,53,0,,,,,,0,,26-01-22,26-01-22,12:59:49,Sat Feb 26 2022 12:59:49 GMT+0100 (közép-európai téli idő),The main experiment item,yes,0,0,C:/Users/rrics/Documents/!!ResearchBMECOGSCI/gnet,0,0,0,prototype2.png,no,mono,no,18,no,black,no,no,768,1145,3.5.6,legacy,xpyriment,osweb,1.3.13,0,space,space,space,,38668,28462,38668,,2,legacy,824,1536,24,864,24,0,0,1536,1645876861621,1024,2,48000,-16,experiment,p1sarrcol2.png,1,odd,Win32,80,139887,136885,80,80,530770,532285,525768,141390,525768,80,,,,,,visual_patterns,0,0,0,yes,1366
undefined,undefined,undefined,undefined,white,no,Mozilla,Netscape,"5.0 (Windows NT 10.0; Win64; x64) AppleWebKit/537.36 (KHTML, like Gecko) Chrome/98.0.4758.102 Safari/537.36",xpyriment,legacy,legacy,0,uniform,0,0,0,0,24,24,24,0,0,54,54,54,54,54,0,54,0,,,,,,0,,26-01-22,26-01-22,12:59:49,Sat Feb 26 2022 12:59:49 GMT+0100 (közép-európai téli idő),The main experiment item,yes,0,0,C:/Users/rrics/Documents/!!ResearchBMECOGSCI/gnet,0,0,0,prototype2.png,no,mono,no,18,no,black,no,no,768,1145,3.5.6,legacy,xpyriment,osweb,1.3.13,0,space,space,space,,38668,28462,38668,,2,legacy,824,1536,24,864,24,0,0,1536,1645876861621,1024,2,48000,-16,experiment,p2sarrcol2.png,1,odd,Win32,80,139887,136885,80,80,537294,538809,532291,141390,532291,80,,,,,,visual_patterns,0,0,0,yes,1366
undefined,undefined,undefined,undefined,white,no,Mozilla,Netscape,"5.0 (Windows NT 10.0; Win64; x64) AppleWebKit/537.36 (KHTML, like Gecko) Chrome/98.0.4758.102 Safari/537.36",xpyriment,legacy,legacy,0,uniform,0,0,0,0,24,24,24,0,0,55,55,55,55,55,0,55,0,,,,,,0,,26-01-22,26-01-22,12:59:49,Sat Feb 26 2022 12:59:49 GMT+0100 (közép-európai téli idő),The main experiment item,yes,0,0,C:/Users/rrics/Documents/!!ResearchBMECOGSCI/gnet,0,0,0,prototype2.png,no,mono,no,18,no,black,no,no,768,1145,3.5.6,legacy,xpyriment,osweb,1.3.13,0,space,space,space,,38668,28462,38668,,2,legacy,824,1536,24,864,24,0,0,1536,1645876861621,1024,2,48000,-16,experiment,prototype4.png,1,odd,Win32,80,139887,136885,80,80,543814,545316,538813,141390,538813,80,,,,,,visual_patterns,0,0,0,yes,1366
undefined,undefined,undefined,undefined,white,no,Mozilla,Netscape,"5.0 (Windows NT 10.0; Win64; x64) AppleWebKit/537.36 (KHTML, like Gecko) Chrome/98.0.4758.102 Safari/537.36",xpyriment,legacy,legacy,0,uniform,0,0,0,0,24,24,24,0,0,56,56,56,56,56,0,56,0,,,,,,0,,26-01-22,26-01-22,12:59:49,Sat Feb 26 2022 12:59:49 GMT+0100 (közép-európai téli idő),The main experiment item,yes,0,0,C:/Users/rrics/Documents/!!ResearchBMECOGSCI/gnet,0,0,0,prototype2.png,no,mono,no,18,no,black,no,no,768,1145,3.5.6,legacy,xpyriment,osweb,1.3.13,0,space,space,space,,38668,28462,38668,,2,legacy,824,1536,24,864,24,0,0,1536,1645876861621,1024,2,48000,-16,experiment,p2sarrshacol1.png,1,odd,Win32,80,139887,136885,80,80,550325,551840,545323,141390,545323,80,,,,,,visual_patterns,0,0,0,yes,1366
undefined,undefined,undefined,undefined,white,no,Mozilla,Netscape,"5.0 (Windows NT 10.0; Win64; x64) AppleWebKit/537.36 (KHTML, like Gecko) Chrome/98.0.4758.102 Safari/537.36",xpyriment,legacy,legacy,0,uniform,0,0,0,0,24,24,24,0,0,57,57,57,57,57,0,57,0,,,,,,0,,26-01-22,26-01-22,12:59:49,Sat Feb 26 2022 12:59:49 GMT+0100 (közép-európai téli idő),The main experiment item,yes,0,0,C:/Users/rrics/Documents/!!ResearchBMECOGSCI/gnet,0,0,0,prototype2.png,no,mono,no,18,no,black,no,no,768,1145,3.5.6,legacy,xpyriment,osweb,1.3.13,0,space,space,space,,38668,28462,38668,,2,legacy,824,1536,24,864,24,0,0,1536,1645876861621,1024,2,48000,-16,experiment,prototype5.png,1,odd,Win32,80,139887,136885,80,80,556856,558364,551854,141390,551854,80,,,,,,visual_patterns,0,0,0,yes,1366
undefined,undefined,undefined,undefined,white,no,Mozilla,Netscape,"5.0 (Windows NT 10.0; Win64; x64) AppleWebKit/537.36 (KHTML, like Gecko) Chrome/98.0.4758.102 Safari/537.36",xpyriment,legacy,legacy,0,uniform,0,0,0,0,24,24,24,0,0,58,58,58,58,58,0,58,0,,,,,,0,,26-01-22,26-01-22,12:59:49,Sat Feb 26 2022 12:59:49 GMT+0100 (közép-európai téli idő),The main experiment item,yes,0,0,C:/Users/rrics/Documents/!!ResearchBMECOGSCI/gnet,0,0,0,prototype2.png,no,mono,no,18,no,black,no,no,768,1145,3.5.6,legacy,xpyriment,osweb,1.3.13,0,space,space,space,,38668,28462,38668,,2,legacy,824,1536,24,864,24,0,0,1536,1645876861621,1024,2,48000,-16,experiment,prototype2.png,1,odd,Win32,80,139887,136885,80,80,563372,564888,558371,141390,558371,80,,,,,,visual_patterns,0,0,0,yes,1366
undefined,undefined,undefined,undefined,white,no,Mozilla,Netscape,"5.0 (Windows NT 10.0; Win64; x64) AppleWebKit/537.36 (KHTML, like Gecko) Chrome/98.0.4758.102 Safari/537.36",xpyriment,legacy,legacy,0,uniform,0,0,0,0,24,24,24,0,0,59,59,59,59,59,0,59,0,,,,,,0,,26-01-22,26-01-22,12:59:49,Sat Feb 26 2022 12:59:49 GMT+0100 (közép-európai téli idő),The main experiment item,yes,0,0,C:/Users/rrics/Documents/!!ResearchBMECOGSCI/gnet,0,0,0,prototype2.png,no,mono,no,18,no,black,no,no,768,1145,3.5.6,legacy,xpyriment,osweb,1.3.13,0,space,space,space,,38668,28462,38668,,2,legacy,824,1536,24,864,24,0,0,1536,1645876861621,1024,2,48000,-16,experiment,prototype5.png,1,odd,Win32,80,139887,136885,80,80,569896,571411,564892,141390,564892,80,,,,,,visual_patterns,0,0,0,yes,1366
undefined,undefined,undefined,undefined,white,no,Mozilla,Netscape,"5.0 (Windows NT 10.0; Win64; x64) AppleWebKit/537.36 (KHTML, like Gecko) Chrome/98.0.4758.102 Safari/537.36",xpyriment,legacy,legacy,0,uniform,0,0,0,0,24,24,24,0,0,60,60,60,60,60,0,60,0,,,,,,0,,26-01-22,26-01-22,12:59:49,Sat Feb 26 2022 12:59:49 GMT+0100 (közép-európai téli idő),The main experiment item,yes,0,0,C:/Users/rrics/Documents/!!ResearchBMECOGSCI/gnet,0,0,0,prototype2.png,no,mono,no,18,no,black,no,no,768,1145,3.5.6,legacy,xpyriment,osweb,1.3.13,0,space,space,space,,38668,28462,38668,,2,legacy,824,1536,24,864,24,0,0,1536,1645876861621,1024,2,48000,-16,experiment,p1sarrshacol2.png,1,odd,Win32,80,139887,136885,80,80,576418,577919,571418,141390,571418,80,,,,,,visual_patterns,0,0,0,yes,1366
undefined,undefined,undefined,undefined,white,no,Mozilla,Netscape,"5.0 (Windows NT 10.0; Win64; x64) AppleWebKit/537.36 (KHTML, like Gecko) Chrome/98.0.4758.102 Safari/537.36",xpyriment,legacy,legacy,0,uniform,0,0,0,0,24,24,24,0,0,61,61,61,61,61,0,61,0,,,,,,0,,26-01-22,26-01-22,12:59:49,Sat Feb 26 2022 12:59:49 GMT+0100 (közép-európai téli idő),The main experiment item,yes,0,0,C:/Users/rrics/Documents/!!ResearchBMECOGSCI/gnet,0,0,0,prototype2.png,no,mono,no,18,no,black,no,no,768,1145,3.5.6,legacy,xpyriment,osweb,1.3.13,0,space,space,space,,38668,28462,38668,,2,legacy,824,1536,24,864,24,0,0,1536,1645876861621,1024,2,48000,-16,experiment,p2sarrcol1.png,1,odd,Win32,80,139887,136885,80,80,582925,584427,577926,141390,577926,80,,,,,,visual_patterns,0,0,0,yes,1366
undefined,undefined,undefined,undefined,white,no,Mozilla,Netscape,"5.0 (Windows NT 10.0; Win64; x64) AppleWebKit/537.36 (KHTML, like Gecko) Chrome/98.0.4758.102 Safari/537.36",xpyriment,legacy,legacy,0,uniform,0,0,0,0,24,24,24,0,0,62,62,62,62,62,0,62,0,,,,,,0,,26-01-22,26-01-22,12:59:49,Sat Feb 26 2022 12:59:49 GMT+0100 (közép-európai téli idő),The main experiment item,yes,0,0,C:/Users/rrics/Documents/!!ResearchBMECOGSCI/gnet,0,0,0,prototype2.png,no,mono,no,18,no,black,no,no,768,1145,3.5.6,legacy,xpyriment,osweb,1.3.13,0,space,space,space,,38668,28462,38668,,2,legacy,824,1536,24,864,24,0,0,1536,1645876861621,1024,2,48000,-16,experiment,p5sarr2.png,1,odd,Win32,80,139887,136885,80,80,589433,590950,584434,141390,584434,80,,,,,,visual_patterns,0,0,0,yes,1366
undefined,undefined,undefined,undefined,white,no,Mozilla,Netscape,"5.0 (Windows NT 10.0; Win64; x64) AppleWebKit/537.36 (KHTML, like Gecko) Chrome/98.0.4758.102 Safari/537.36",xpyriment,legacy,legacy,0,uniform,0,0,0,0,24,24,24,0,0,63,63,63,63,63,0,63,0,,,,,,0,,26-01-22,26-01-22,12:59:49,Sat Feb 26 2022 12:59:49 GMT+0100 (közép-európai téli idő),The main experiment item,yes,0,0,C:/Users/rrics/Documents/!!ResearchBMECOGSCI/gnet,0,0,0,prototype2.png,no,mono,no,18,no,black,no,no,768,1145,3.5.6,legacy,xpyriment,osweb,1.3.13,0,space,space,space,,38668,28462,38668,,2,legacy,824,1536,24,864,24,0,0,1536,1645876861621,1024,2,48000,-16,experiment,p10sarr2.png,1,odd,Win32,80,139887,136885,80,80,595959,597473,590955,141390,590955,80,,,,,,visual_patterns,0,0,0,yes,1366
undefined,undefined,undefined,undefined,white,no,Mozilla,Netscape,"5.0 (Windows NT 10.0; Win64; x64) AppleWebKit/537.36 (KHTML, like Gecko) Chrome/98.0.4758.102 Safari/537.36",xpyriment,legacy,legacy,0,uniform,0,0,0,0,24,24,24,0,0,64,64,64,64,64,0,64,0,,,,,,0,,26-01-22,26-01-22,12:59:49,Sat Feb 26 2022 12:59:49 GMT+0100 (közép-európai téli idő),The main experiment item,yes,0,0,C:/Users/rrics/Documents/!!ResearchBMECOGSCI/gnet,0,0,0,prototype2.png,no,mono,no,18,no,black,no,no,768,1145,3.5.6,legacy,xpyriment,osweb,1.3.13,0,space,space,space,,38668,28462,38668,,2,legacy,824,1536,24,864,24,0,0,1536,1645876861621,1024,2,48000,-16,experiment,prototype1.png,1,odd,Win32,80,139887,136885,80,80,602481,603997,597479,141390,597479,80,,,,,,visual_patterns,0,0,0,yes,1366
undefined,undefined,undefined,undefined,white,no,Mozilla,Netscape,"5.0 (Windows NT 10.0; Win64; x64) AppleWebKit/537.36 (KHTML, like Gecko) Chrome/98.0.4758.102 Safari/537.36",xpyriment,legacy,legacy,0,uniform,0,0,0,0,24,24,24,0,0,65,65,65,65,65,0,65,0,,,,,,0,,26-01-22,26-01-22,12:59:49,Sat Feb 26 2022 12:59:49 GMT+0100 (közép-európai téli idő),The main experiment item,yes,0,0,C:/Users/rrics/Documents/!!ResearchBMECOGSCI/gnet,0,0,0,prototype2.png,no,mono,no,18,no,black,no,no,768,1145,3.5.6,legacy,xpyriment,osweb,1.3.13,0,space,space,space,,38668,28462,38668,,2,legacy,824,1536,24,864,24,0,0,1536,1645876861621,1024,2,48000,-16,experiment,prototype4.png,1,odd,Win32,80,139887,136885,80,80,609003,610504,604003,141390,604003,80,,,,,,visual_patterns,0,0,0,yes,1366
undefined,undefined,undefined,undefined,white,no,Mozilla,Netscape,"5.0 (Windows NT 10.0; Win64; x64) AppleWebKit/537.36 (KHTML, like Gecko) Chrome/98.0.4758.102 Safari/537.36",xpyriment,legacy,legacy,0,uniform,0,0,0,0,24,24,24,0,0,66,66,66,66,66,0,66,0,,,,,,0,,26-01-22,26-01-22,12:59:49,Sat Feb 26 2022 12:59:49 GMT+0100 (közép-európai téli idő),The main experiment item,yes,0,0,C:/Users/rrics/Documents/!!ResearchBMECOGSCI/gnet,0,0,0,prototype2.png,no,mono,no,18,no,black,no,no,768,1145,3.5.6,legacy,xpyriment,osweb,1.3.13,0,space,space,space,,38668,28462,38668,,2,legacy,824,1536,24,864,24,0,0,1536,1645876861621,1024,2,48000,-16,experiment,p2sarrshacol2.png,1,odd,Win32,80,139887,136885,80,80,615512,617028,610512,141390,610512,80,,,,,,visual_patterns,0,0,0,yes,1366
undefined,undefined,undefined,undefined,white,no,Mozilla,Netscape,"5.0 (Windows NT 10.0; Win64; x64) AppleWebKit/537.36 (KHTML, like Gecko) Chrome/98.0.4758.102 Safari/537.36",xpyriment,legacy,legacy,0,uniform,0,0,0,0,24,24,24,0,0,67,67,67,67,67,0,67,0,,,,,,0,,26-01-22,26-01-22,12:59:49,Sat Feb 26 2022 12:59:49 GMT+0100 (közép-európai téli idő),The main experiment item,yes,0,0,C:/Users/rrics/Documents/!!ResearchBMECOGSCI/gnet,0,0,0,prototype2.png,no,mono,no,18,no,black,no,no,768,1145,3.5.6,legacy,xpyriment,osweb,1.3.13,0,space,space,space,,38668,28462,38668,,2,legacy,824,1536,24,864,24,0,0,1536,1645876861621,1024,2,48000,-16,experiment,p1sarr2.png,1,odd,Win32,80,139887,136885,80,80,622038,623552,617035,141390,617035,80,,,,,,visual_patterns,0,0,0,yes,1366
undefined,undefined,undefined,undefined,white,no,Mozilla,Netscape,"5.0 (Windows NT 10.0; Win64; x64) AppleWebKit/537.36 (KHTML, like Gecko) Chrome/98.0.4758.102 Safari/537.36",xpyriment,legacy,legacy,0,uniform,0,0,0,0,24,24,24,0,0,68,68,68,68,68,0,68,0,,,,,,0,,26-01-22,26-01-22,12:59:49,Sat Feb 26 2022 12:59:49 GMT+0100 (közép-európai téli idő),The main experiment item,yes,0,0,C:/Users/rrics/Documents/!!ResearchBMECOGSCI/gnet,0,0,0,prototype2.png,no,mono,no,18,no,black,no,no,768,1145,3.5.6,legacy,xpyriment,osweb,1.3.13,0,space,space,space,,38668,28462,38668,,2,legacy,824,1536,24,864,24,0,0,1536,1645876861621,1024,2,48000,-16,experiment,p6sarr2.png,1,odd,Win32,80,139887,136885,80,80,628559,630076,623560,141390,623560,80,,,,,,visual_patterns,0,0,0,yes,1366
undefined,undefined,undefined,undefined,white,no,Mozilla,Netscape,"5.0 (Windows NT 10.0; Win64; x64) AppleWebKit/537.36 (KHTML, like Gecko) Chrome/98.0.4758.102 Safari/537.36",xpyriment,legacy,legacy,0,uniform,0,0,0,0,24,24,24,0,0,69,69,69,69,69,0,69,0,,,,,,0,,26-01-22,26-01-22,12:59:49,Sat Feb 26 2022 12:59:49 GMT+0100 (közép-európai téli idő),The main experiment item,yes,0,0,C:/Users/rrics/Documents/!!ResearchBMECOGSCI/gnet,0,0,0,prototype2.png,no,mono,no,18,no,black,no,no,768,1145,3.5.6,legacy,xpyriment,osweb,1.3.13,0,space,space,space,,38668,28462,38668,,2,legacy,824,1536,24,864,24,0,0,1536,1645876861621,1024,2,48000,-16,experiment,prototype2.png,1,odd,Win32,80,139887,136885,80,80,635084,636600,630082,141390,630082,80,,,,,,visual_patterns,0,0,0,yes,1366
undefined,undefined,undefined,undefined,white,no,Mozilla,Netscape,"5.0 (Windows NT 10.0; Win64; x64) AppleWebKit/537.36 (KHTML, like Gecko) Chrome/98.0.4758.102 Safari/537.36",xpyriment,legacy,legacy,0,uniform,0,0,0,0,24,24,24,0,0,70,70,70,70,70,0,70,0,,,,,,0,,26-01-22,26-01-22,12:59:49,Sat Feb 26 2022 12:59:49 GMT+0100 (közép-európai téli idő),The main experiment item,yes,0,0,C:/Users/rrics/Documents/!!ResearchBMECOGSCI/gnet,0,0,0,prototype2.png,no,mono,no,18,no,black,no,no,768,1145,3.5.6,legacy,xpyriment,osweb,1.3.13,0,space,space,space,,38668,28462,38668,,2,legacy,824,1536,24,864,24,0,0,1536,1645876861621,1024,2,48000,-16,experiment,p1sarrshacol1.png,1,odd,Win32,80,139887,136885,80,80,641609,643124,636608,141390,636608,80,,,,,,visual_patterns,0,0,0,yes,1366
undefined,undefined,undefined,undefined,white,no,Mozilla,Netscape,"5.0 (Windows NT 10.0; Win64; x64) AppleWebKit/537.36 (KHTML, like Gecko) Chrome/98.0.4758.102 Safari/537.36",xpyriment,legacy,legacy,0,uniform,0,0,0,0,24,24,24,0,0,71,71,71,71,71,0,71,0,,,,,,0,,26-01-22,26-01-22,12:59:49,Sat Feb 26 2022 12:59:49 GMT+0100 (közép-európai téli idő),The main experiment item,yes,0,0,C:/Users/rrics/Documents/!!ResearchBMECOGSCI/gnet,0,0,0,prototype2.png,no,mono,no,18,no,black,no,no,768,1145,3.5.6,legacy,xpyriment,osweb,1.3.13,0,space,space,space,,38668,28462,38668,,2,legacy,824,1536,24,864,24,0,0,1536,1645876861621,1024,2,48000,-16,experiment,prototype1.png,1,odd,Win32,80,139887,136885,80,80,648132,649647,643129,141390,643129,80,,,,,,visual_patterns,0,0,0,yes,1366
undefined,undefined,undefined,undefined,white,no,Mozilla,Netscape,"5.0 (Windows NT 10.0; Win64; x64) AppleWebKit/537.36 (KHTML, like Gecko) Chrome/98.0.4758.102 Safari/537.36",xpyriment,legacy,legacy,0,uniform,0,0,0,0,24,24,24,0,0,72,72,72,72,72,0,72,0,,,,,,0,,26-01-22,26-01-22,12:59:49,Sat Feb 26 2022 12:59:49 GMT+0100 (közép-európai téli idő),The main experiment item,yes,0,0,C:/Users/rrics/Documents/!!ResearchBMECOGSCI/gnet,0,0,0,prototype2.png,no,mono,no,18,no,black,no,no,768,1145,3.5.6,legacy,xpyriment,osweb,1.3.13,0,space,space,space,,38668,28462,38668,,2,legacy,824,1536,24,864,24,0,0,1536,1645876861621,1024,2,48000,-16,experiment,prototype5.png,1,odd,Win32,80,139887,136885,80,80,654657,656171,649653,141390,649653,80,,,,,,visual_patterns,0,0,0,yes,1366
undefined,undefined,undefined,undefined,white,no,Mozilla,Netscape,"5.0 (Windows NT 10.0; Win64; x64) AppleWebKit/537.36 (KHTML, like Gecko) Chrome/98.0.4758.102 Safari/537.36",xpyriment,legacy,legacy,0,uniform,0,0,0,0,24,24,24,0,0,73,73,73,73,73,0,73,0,,,,,,0,,26-01-22,26-01-22,12:59:49,Sat Feb 26 2022 12:59:49 GMT+0100 (közép-európai téli idő),The main experiment item,yes,0,0,C:/Users/rrics/Documents/!!ResearchBMECOGSCI/gnet,0,0,0,prototype2.png,no,mono,no,18,no,black,no,no,768,1145,3.5.6,legacy,xpyriment,osweb,1.3.13,0,space,space,space,,38668,28462,38668,,2,legacy,824,1536,24,864,24,0,0,1536,1645876861621,1024,2,48000,-16,experiment,prototype3.png,1,odd,Win32,80,139887,136885,80,80,661181,662695,656177,141390,656177,80,,,,,,visual_patterns,0,0,0,yes,1366
undefined,undefined,undefined,undefined,white,no,Mozilla,Netscape,"5.0 (Windows NT 10.0; Win64; x64) AppleWebKit/537.36 (KHTML, like Gecko) Chrome/98.0.4758.102 Safari/537.36",xpyriment,legacy,legacy,0,uniform,0,0,0,0,24,24,24,0,0,74,74,74,74,74,0,74,0,,,,,,0,,26-01-22,26-01-22,12:59:49,Sat Feb 26 2022 12:59:49 GMT+0100 (közép-európai téli idő),The main experiment item,yes,0,0,C:/Users/rrics/Documents/!!ResearchBMECOGSCI/gnet,0,0,0,prototype2.png,no,mono,no,18,no,black,no,no,768,1145,3.5.6,legacy,xpyriment,osweb,1.3.13,0,space,space,space,,38668,28462,38668,,2,legacy,824,1536,24,864,24,0,0,1536,1645876861621,1024,2,48000,-16,experiment,prototype2.png,1,odd,Win32,80,139887,136885,80,80,667704,669219,662701,141390,662701,80,,,,,,visual_patterns,0,0,0,yes,1366
undefined,undefined,undefined,undefined,white,no,Mozilla,Netscape,"5.0 (Windows NT 10.0; Win64; x64) AppleWebKit/537.36 (KHTML, like Gecko) Chrome/98.0.4758.102 Safari/537.36",xpyriment,legacy,legacy,0,uniform,0,0,0,0,24,24,24,0,0,74,74,74,74,74,0,74,0,0,0,0,0,0,0,0,26-01-22,26-01-22,12:59:49,Sat Feb 26 2022 12:59:49 GMT+0100 (közép-európai téli idő),The main experiment item,yes,0,0,C:/Users/rrics/Documents/!!ResearchBMECOGSCI/gnet,0,0,0,prototype2.png,no,mono,no,18,no,black,no,no,768,1145,3.5.6,legacy,xpyriment,osweb,1.3.13,0,space,space,space,space,41704,28462,38668,41704,2,legacy,824,1536,24,864,24,0,0,1536,1645876861621,1024,2,48000,-16,experiment,p5sarrsha3.png,1,odd,Win32,80,139887,136885,80,80,667704,669219,662701,141390,662701,80,713947,715453,710945,669223,710945,visual_patterns,0,0,0,yes,1366
undefined,undefined,undefined,undefined,white,no,Mozilla,Netscape,"5.0 (Windows NT 10.0; Win64; x64) AppleWebKit/537.36 (KHTML, like Gecko) Chrome/98.0.4758.102 Safari/537.36",xpyriment,legacy,legacy,0,uniform,0,0,0,0,24,24,24,0,0,74,74,74,74,74,0,74,0,1,1,1,1,1,0,1,26-01-22,26-01-22,12:59:49,Sat Feb 26 2022 12:59:49 GMT+0100 (közép-európai téli idő),The main experiment item,yes,0,0,C:/Users/rrics/Documents/!!ResearchBMECOGSCI/gnet,0,0,0,prototype2.png,no,mono,no,18,no,black,no,no,768,1145,3.5.6,legacy,xpyriment,osweb,1.3.13,0,space,space,space,space,41704,28462,38668,41704,2,legacy,824,1536,24,864,24,0,0,1536,1645876861621,1024,2,48000,-16,experiment,p2sarrshacol1.png,1,odd,Win32,80,139887,136885,80,80,667704,669219,662701,141390,662701,80,718464,719975,715462,669223,715461,visual_patterns,0,0,0,yes,1366
undefined,undefined,undefined,undefined,white,no,Mozilla,Netscape,"5.0 (Windows NT 10.0; Win64; x64) AppleWebKit/537.36 (KHTML, like Gecko) Chrome/98.0.4758.102 Safari/537.36",xpyriment,legacy,legacy,0,uniform,0,0,0,0,24,24,24,0,0,74,74,74,74,74,0,74,0,2,2,2,2,2,0,2,26-01-22,26-01-22,12:59:49,Sat Feb 26 2022 12:59:49 GMT+0100 (közép-európai téli idő),The main experiment item,yes,0,0,C:/Users/rrics/Documents/!!ResearchBMECOGSCI/gnet,0,0,0,prototype2.png,no,mono,no,18,no,black,no,no,768,1145,3.5.6,legacy,xpyriment,osweb,1.3.13,0,space,space,space,space,41704,28462,38668,41704,2,legacy,824,1536,24,864,24,0,0,1536,1645876861621,1024,2,48000,-16,experiment,p4sarr4.png,1,odd,Win32,80,139887,136885,80,80,667704,669219,662701,141390,662701,80,722983,724496,719985,669223,719985,visual_patterns,0,0,0,yes,1366
undefined,undefined,undefined,undefined,white,no,Mozilla,Netscape,"5.0 (Windows NT 10.0; Win64; x64) AppleWebKit/537.36 (KHTML, like Gecko) Chrome/98.0.4758.102 Safari/537.36",xpyriment,legacy,legacy,0,uniform,0,0,0,0,24,24,24,0,0,74,74,74,74,74,0,74,0,3,3,3,3,3,0,3,26-01-22,26-01-22,12:59:49,Sat Feb 26 2022 12:59:49 GMT+0100 (közép-európai téli idő),The main experiment item,yes,0,0,C:/Users/rrics/Documents/!!ResearchBMECOGSCI/gnet,0,0,0,prototype2.png,no,mono,no,18,no,black,no,no,768,1145,3.5.6,legacy,xpyriment,osweb,1.3.13,0,space,space,space,space,41704,28462,38668,41704,2,legacy,824,1536,24,864,24,0,0,1536,1645876861621,1024,2,48000,-16,experiment,p5sarrsha2.png,1,odd,Win32,80,139887,136885,80,80,667704,669219,662701,141390,662701,80,727506,729018,724505,669223,724505,visual_patterns,0,0,0,yes,1366
undefined,undefined,undefined,undefined,white,no,Mozilla,Netscape,"5.0 (Windows NT 10.0; Win64; x64) AppleWebKit/537.36 (KHTML, like Gecko) Chrome/98.0.4758.102 Safari/537.36",xpyriment,legacy,legacy,0,uniform,0,0,0,0,24,24,24,0,0,74,74,74,74,74,0,74,0,4,4,4,4,4,0,4,26-01-22,26-01-22,12:59:49,Sat Feb 26 2022 12:59:49 GMT+0100 (közép-európai téli idő),The main experiment item,yes,0,0,C:/Users/rrics/Documents/!!ResearchBMECOGSCI/gnet,0,0,0,prototype2.png,no,mono,no,18,no,black,no,no,768,1145,3.5.6,legacy,xpyriment,osweb,1.3.13,0,space,space,space,space,41704,28462,38668,41704,2,legacy,824,1536,24,864,24,0,0,1536,1645876861621,1024,2,48000,-16,experiment,p7sarr2.png,1,odd,Win32,80,139887,136885,80,80,667704,669219,662701,141390,662701,80,732028,733540,729025,669223,729025,visual_patterns,0,0,0,yes,1366
undefined,undefined,undefined,undefined,white,no,Mozilla,Netscape,"5.0 (Windows NT 10.0; Win64; x64) AppleWebKit/537.36 (KHTML, like Gecko) Chrome/98.0.4758.102 Safari/537.36",xpyriment,legacy,legacy,0,uniform,0,0,0,0,24,24,24,0,0,74,74,74,74,74,0,74,0,5,5,5,5,5,0,5,26-01-22,26-01-22,12:59:49,Sat Feb 26 2022 12:59:49 GMT+0100 (közép-európai téli idő),The main experiment item,yes,0,0,C:/Users/rrics/Documents/!!ResearchBMECOGSCI/gnet,0,0,0,prototype2.png,no,mono,no,18,no,black,no,no,768,1145,3.5.6,legacy,xpyriment,osweb,1.3.13,0,space,space,space,space,41704,28462,38668,41704,2,legacy,824,1536,24,864,24,0,0,1536,1645876861621,1024,2,48000,-16,experiment,p1sarrsha4.png,1,odd,Win32,80,139887,136885,80,80,667704,669219,662701,141390,662701,80,736548,738061,733547,669223,733547,visual_patterns,0,0,0,yes,1366
undefined,undefined,undefined,undefined,white,no,Mozilla,Netscape,"5.0 (Windows NT 10.0; Win64; x64) AppleWebKit/537.36 (KHTML, like Gecko) Chrome/98.0.4758.102 Safari/537.36",xpyriment,legacy,legacy,0,uniform,0,0,0,0,24,24,24,0,0,74,74,74,74,74,0,74,0,6,6,6,6,6,0,6,26-01-22,26-01-22,12:59:49,Sat Feb 26 2022 12:59:49 GMT+0100 (közép-európai téli idő),The main experiment item,yes,0,0,C:/Users/rrics/Documents/!!ResearchBMECOGSCI/gnet,0,0,0,prototype2.png,no,mono,no,18,no,black,no,no,768,1145,3.5.6,legacy,xpyriment,osweb,1.3.13,0,space,space,space,space,41704,28462,38668,41704,2,legacy,824,1536,24,864,24,0,0,1536,1645876861621,1024,2,48000,-16,experiment,p3sarrcol2.png,1,odd,Win32,80,139887,136885,80,80,667704,669219,662701,141390,662701,80,741070,742583,738068,669223,738068,visual_patterns,0,0,0,yes,1366
undefined,undefined,undefined,undefined,white,no,Mozilla,Netscape,"5.0 (Windows NT 10.0; Win64; x64) AppleWebKit/537.36 (KHTML, like Gecko) Chrome/98.0.4758.102 Safari/537.36",xpyriment,legacy,legacy,0,uniform,0,0,0,0,24,24,24,0,0,74,74,74,74,74,0,74,0,7,7,7,7,7,0,7,26-01-22,26-01-22,12:59:49,Sat Feb 26 2022 12:59:49 GMT+0100 (közép-európai téli idő),The main experiment item,yes,0,0,C:/Users/rrics/Documents/!!ResearchBMECOGSCI/gnet,0,0,0,prototype2.png,no,mono,no,18,no,black,no,no,768,1145,3.5.6,legacy,xpyriment,osweb,1.3.13,0,space,space,space,space,41704,28462,38668,41704,2,legacy,824,1536,24,864,24,0,0,1536,1645876861621,1024,2,48000,-16,experiment,p3sarrcol3.png,1,odd,Win32,80,139887,136885,80,80,667704,669219,662701,141390,662701,80,745598,747105,742597,669223,742597,visual_patterns,0,0,0,yes,1366
undefined,undefined,undefined,undefined,white,no,Mozilla,Netscape,"5.0 (Windows NT 10.0; Win64; x64) AppleWebKit/537.36 (KHTML, like Gecko) Chrome/98.0.4758.102 Safari/537.36",xpyriment,legacy,legacy,0,uniform,0,0,0,0,24,24,24,0,0,74,74,74,74,74,0,74,0,8,8,8,8,8,0,8,26-01-22,26-01-22,12:59:49,Sat Feb 26 2022 12:59:49 GMT+0100 (közép-európai téli idő),The main experiment item,yes,0,0,C:/Users/rrics/Documents/!!ResearchBMECOGSCI/gnet,0,0,0,prototype2.png,no,mono,no,18,no,black,no,no,768,1145,3.5.6,legacy,xpyriment,osweb,1.3.13,0,space,space,space,space,41704,28462,38668,41704,2,legacy,824,1536,24,864,24,0,0,1536,1645876861621,1024,2,48000,-16,experiment,p1sarrsha1.png,1,odd,Win32,80,139887,136885,80,80,667704,669219,662701,141390,662701,80,750111,751626,747112,669223,747112,visual_patterns,0,0,0,yes,1366
undefined,undefined,undefined,undefined,white,no,Mozilla,Netscape,"5.0 (Windows NT 10.0; Win64; x64) AppleWebKit/537.36 (KHTML, like Gecko) Chrome/98.0.4758.102 Safari/537.36",xpyriment,legacy,legacy,0,uniform,0,0,0,0,24,24,24,0,0,74,74,74,74,74,0,74,0,9,9,9,9,9,0,9,26-01-22,26-01-22,12:59:49,Sat Feb 26 2022 12:59:49 GMT+0100 (közép-európai téli idő),The main experiment item,yes,0,0,C:/Users/rrics/Documents/!!ResearchBMECOGSCI/gnet,0,0,0,prototype2.png,no,mono,no,18,no,black,no,no,768,1145,3.5.6,legacy,xpyriment,osweb,1.3.13,0,space,space,space,space,41704,28462,38668,41704,2,legacy,824,1536,24,864,24,0,0,1536,1645876861621,1024,2,48000,-16,experiment,p4sarr1.png,1,odd,Win32,80,139887,136885,80,80,667704,669219,662701,141390,662701,80,754632,756148,751631,669223,751631,visual_patterns,0,0,0,yes,1366
undefined,undefined,undefined,undefined,white,no,Mozilla,Netscape,"5.0 (Windows NT 10.0; Win64; x64) AppleWebKit/537.36 (KHTML, like Gecko) Chrome/98.0.4758.102 Safari/537.36",xpyriment,legacy,legacy,0,uniform,0,0,0,0,24,24,24,0,0,74,74,74,74,74,0,74,0,10,10,10,10,10,0,10,26-01-22,26-01-22,12:59:49,Sat Feb 26 2022 12:59:49 GMT+0100 (közép-európai téli idő),The main experiment item,yes,0,0,C:/Users/rrics/Documents/!!ResearchBMECOGSCI/gnet,0,0,0,prototype2.png,no,mono,no,18,no,black,no,no,768,1145,3.5.6,legacy,xpyriment,osweb,1.3.13,0,space,space,space,space,41704,28462,38668,41704,2,legacy,824,1536,24,864,24,0,0,1536,1645876861621,1024,2,48000,-16,experiment,p9sarr2.png,1,odd,Win32,80,139887,136885,80,80,667704,669219,662701,141390,662701,80,759158,760670,756157,669223,756157,visual_patterns,0,0,0,yes,1366
undefined,undefined,undefined,undefined,white,no,Mozilla,Netscape,"5.0 (Windows NT 10.0; Win64; x64) AppleWebKit/537.36 (KHTML, like Gecko) Chrome/98.0.4758.102 Safari/537.36",xpyriment,legacy,legacy,0,uniform,0,0,0,0,24,24,24,0,0,74,74,74,74,74,0,74,0,11,11,11,11,11,0,11,26-01-22,26-01-22,12:59:49,Sat Feb 26 2022 12:59:49 GMT+0100 (közép-európai téli idő),The main experiment item,yes,0,0,C:/Users/rrics/Documents/!!ResearchBMECOGSCI/gnet,0,0,0,prototype2.png,no,mono,no,18,no,black,no,no,768,1145,3.5.6,legacy,xpyriment,osweb,1.3.13,0,space,space,space,space,41704,28462,38668,41704,2,legacy,824,1536,24,864,24,0,0,1536,1645876861621,1024,2,48000,-16,experiment,p1sarr2.png,1,odd,Win32,80,139887,136885,80,80,667704,669219,662701,141390,662701,80,763679,765191,760678,669223,760678,visual_patterns,0,0,0,yes,1366
undefined,undefined,undefined,undefined,white,no,Mozilla,Netscape,"5.0 (Windows NT 10.0; Win64; x64) AppleWebKit/537.36 (KHTML, like Gecko) Chrome/98.0.4758.102 Safari/537.36",xpyriment,legacy,legacy,0,uniform,0,0,0,0,24,24,24,0,0,74,74,74,74,74,0,74,0,12,12,12,12,12,0,12,26-01-22,26-01-22,12:59:49,Sat Feb 26 2022 12:59:49 GMT+0100 (közép-európai téli idő),The main experiment item,yes,0,0,C:/Users/rrics/Documents/!!ResearchBMECOGSCI/gnet,0,0,0,prototype2.png,no,mono,no,18,no,black,no,no,768,1145,3.5.6,legacy,xpyriment,osweb,1.3.13,0,space,space,space,space,41704,28462,38668,41704,2,legacy,824,1536,24,864,24,0,0,1536,1645876861621,1024,2,48000,-16,experiment,p3sarrcol4.png,1,odd,Win32,80,139887,136885,80,80,667704,669219,662701,141390,662701,80,768198,769713,765199,669223,765199,visual_patterns,0,0,0,yes,1366
undefined,undefined,undefined,undefined,white,no,Mozilla,Netscape,"5.0 (Windows NT 10.0; Win64; x64) AppleWebKit/537.36 (KHTML, like Gecko) Chrome/98.0.4758.102 Safari/537.36",xpyriment,legacy,legacy,0,uniform,0,0,0,0,24,24,24,0,0,74,74,74,74,74,0,74,0,13,13,13,13,13,0,13,26-01-22,26-01-22,12:59:49,Sat Feb 26 2022 12:59:49 GMT+0100 (közép-európai téli idő),The main experiment item,yes,0,0,C:/Users/rrics/Documents/!!ResearchBMECOGSCI/gnet,0,0,0,prototype2.png,no,mono,no,18,no,black,no,no,768,1145,3.5.6,legacy,xpyriment,osweb,1.3.13,0,space,space,space,space,41704,28462,38668,41704,2,legacy,824,1536,24,864,24,0,0,1536,1645876861621,1024,2,48000,-16,experiment,p2sarrshacol2.png,1,odd,Win32,80,139887,136885,80,80,667704,669219,662701,141390,662701,80,772724,774235,769720,669223,769720,visual_patterns,0,0,0,yes,1366
undefined,undefined,undefined,undefined,white,no,Mozilla,Netscape,"5.0 (Windows NT 10.0; Win64; x64) AppleWebKit/537.36 (KHTML, like Gecko) Chrome/98.0.4758.102 Safari/537.36",xpyriment,legacy,legacy,0,uniform,0,0,0,0,24,24,24,0,0,74,74,74,74,74,0,74,0,14,14,14,14,14,0,14,26-01-22,26-01-22,12:59:49,Sat Feb 26 2022 12:59:49 GMT+0100 (közép-európai téli idő),The main experiment item,yes,0,0,C:/Users/rrics/Documents/!!ResearchBMECOGSCI/gnet,0,0,0,prototype2.png,no,mono,no,18,no,black,no,no,768,1145,3.5.6,legacy,xpyriment,osweb,1.3.13,0,space,space,space,space,41704,28462,38668,41704,2,legacy,824,1536,24,864,24,0,0,1536,1645876861621,1024,2,48000,-16,experiment,p6sarr1.png,1,odd,Win32,80,139887,136885,80,80,667704,669219,662701,141390,662701,80,777243,778756,774242,669223,774242,visual_patterns,0,0,0,yes,1366
undefined,undefined,undefined,undefined,white,no,Mozilla,Netscape,"5.0 (Windows NT 10.0; Win64; x64) AppleWebKit/537.36 (KHTML, like Gecko) Chrome/98.0.4758.102 Safari/537.36",xpyriment,legacy,legacy,0,uniform,0,0,0,0,24,24,24,0,0,74,74,74,74,74,0,74,0,15,15,15,15,15,0,15,26-01-22,26-01-22,12:59:49,Sat Feb 26 2022 12:59:49 GMT+0100 (közép-európai téli idő),The main experiment item,yes,0,0,C:/Users/rrics/Documents/!!ResearchBMECOGSCI/gnet,0,0,0,prototype2.png,no,mono,no,18,no,black,no,no,768,1145,3.5.6,legacy,xpyriment,osweb,1.3.13,0,space,space,space,space,41704,28462,38668,41704,2,legacy,824,1536,24,864,24,0,0,1536,1645876861621,1024,2,48000,-16,experiment,p4sarrshacol3.png,1,odd,Win32,80,139887,136885,80,80,667704,669219,662701,141390,662701,80,781766,783278,778767,669223,778767,visual_patterns,0,0,0,yes,1366
undefined,undefined,undefined,undefined,white,no,Mozilla,Netscape,"5.0 (Windows NT 10.0; Win64; x64) AppleWebKit/537.36 (KHTML, like Gecko) Chrome/98.0.4758.102 Safari/537.36",xpyriment,legacy,legacy,0,uniform,0,0,0,0,24,24,24,0,0,74,74,74,74,74,0,74,0,16,16,16,16,16,0,16,26-01-22,26-01-22,12:59:49,Sat Feb 26 2022 12:59:49 GMT+0100 (közép-európai téli idő),The main experiment item,yes,0,0,C:/Users/rrics/Documents/!!ResearchBMECOGSCI/gnet,0,0,0,prototype2.png,no,mono,no,18,no,black,no,no,768,1145,3.5.6,legacy,xpyriment,osweb,1.3.13,0,space,space,space,space,41704,28462,38668,41704,2,legacy,824,1536,24,864,24,0,0,1536,1645876861621,1024,2,48000,-16,experiment,p4sarrshacol4.png,1,odd,Win32,80,139887,136885,80,80,667704,669219,662701,141390,662701,80,786290,787800,783286,669223,783286,visual_patterns,0,0,0,yes,1366
undefined,undefined,undefined,undefined,white,no,Mozilla,Netscape,"5.0 (Windows NT 10.0; Win64; x64) AppleWebKit/537.36 (KHTML, like Gecko) Chrome/98.0.4758.102 Safari/537.36",xpyriment,legacy,legacy,0,uniform,0,0,0,0,24,24,24,0,0,74,74,74,74,74,0,74,0,17,17,17,17,17,0,17,26-01-22,26-01-22,12:59:49,Sat Feb 26 2022 12:59:49 GMT+0100 (közép-európai téli idő),The main experiment item,yes,0,0,C:/Users/rrics/Documents/!!ResearchBMECOGSCI/gnet,0,0,0,prototype2.png,no,mono,no,18,no,black,no,no,768,1145,3.5.6,legacy,xpyriment,osweb,1.3.13,0,space,space,space,space,41704,28462,38668,41704,2,legacy,824,1536,24,864,24,0,0,1536,1645876861621,1024,2,48000,-16,experiment,p2sarrcol1.png,1,odd,Win32,80,139887,136885,80,80,667704,669219,662701,141390,662701,80,790810,792321,787809,669223,787809,visual_patterns,0,0,0,yes,1366
undefined,undefined,undefined,undefined,white,no,Mozilla,Netscape,"5.0 (Windows NT 10.0; Win64; x64) AppleWebKit/537.36 (KHTML, like Gecko) Chrome/98.0.4758.102 Safari/537.36",xpyriment,legacy,legacy,0,uniform,0,0,0,0,24,24,24,0,0,74,74,74,74,74,0,74,0,18,18,18,18,18,0,18,26-01-22,26-01-22,12:59:49,Sat Feb 26 2022 12:59:49 GMT+0100 (közép-európai téli idő),The main experiment item,yes,0,0,C:/Users/rrics/Documents/!!ResearchBMECOGSCI/gnet,0,0,0,prototype2.png,no,mono,no,18,no,black,no,no,768,1145,3.5.6,legacy,xpyriment,osweb,1.3.13,0,space,space,space,space,41704,28462,38668,41704,2,legacy,824,1536,24,864,24,0,0,1536,1645876861621,1024,2,48000,-16,experiment,p1sarr4.png,1,odd,Win32,80,139887,136885,80,80,667704,669219,662701,141390,662701,80,795329,796843,792328,669223,792328,visual_patterns,0,0,0,yes,1366
undefined,undefined,undefined,undefined,white,no,Mozilla,Netscape,"5.0 (Windows NT 10.0; Win64; x64) AppleWebKit/537.36 (KHTML, like Gecko) Chrome/98.0.4758.102 Safari/537.36",xpyriment,legacy,legacy,0,uniform,0,0,0,0,24,24,24,0,0,74,74,74,74,74,0,74,0,19,19,19,19,19,0,19,26-01-22,26-01-22,12:59:49,Sat Feb 26 2022 12:59:49 GMT+0100 (közép-európai téli idő),The main experiment item,yes,0,0,C:/Users/rrics/Documents/!!ResearchBMECOGSCI/gnet,0,0,0,prototype2.png,no,mono,no,18,no,black,no,no,768,1145,3.5.6,legacy,xpyriment,osweb,1.3.13,0,space,space,space,space,41704,28462,38668,41704,2,legacy,824,1536,24,864,24,0,0,1536,1645876861621,1024,2,48000,-16,experiment,p10sarr1.png,1,odd,Win32,80,139887,136885,80,80,667704,669219,662701,141390,662701,80,799852,801365,796851,669223,796851,visual_patterns,0,0,0,yes,1366
undefined,undefined,undefined,undefined,white,no,Mozilla,Netscape,"5.0 (Windows NT 10.0; Win64; x64) AppleWebKit/537.36 (KHTML, like Gecko) Chrome/98.0.4758.102 Safari/537.36",xpyriment,legacy,legacy,0,uniform,0,0,0,0,24,24,24,0,0,74,74,74,74,74,0,74,0,20,20,20,20,20,0,20,26-01-22,26-01-22,12:59:49,Sat Feb 26 2022 12:59:49 GMT+0100 (közép-európai téli idő),The main experiment item,yes,0,0,C:/Users/rrics/Documents/!!ResearchBMECOGSCI/gnet,0,0,0,prototype2.png,no,mono,no,18,no,black,no,no,768,1145,3.5.6,legacy,xpyriment,osweb,1.3.13,0,space,space,space,space,41704,28462,38668,41704,2,legacy,824,1536,24,864,24,0,0,1536,1645876861621,1024,2,48000,-16,experiment,p8sarr3.png,1,odd,Win32,80,139887,136885,80,80,667704,669219,662701,141390,662701,80,804376,805886,801373,669223,801373,visual_patterns,0,0,0,yes,1366
undefined,undefined,undefined,undefined,white,no,Mozilla,Netscape,"5.0 (Windows NT 10.0; Win64; x64) AppleWebKit/537.36 (KHTML, like Gecko) Chrome/98.0.4758.102 Safari/537.36",xpyriment,legacy,legacy,0,uniform,0,0,0,0,24,24,24,0,0,74,74,74,74,74,0,74,0,21,21,21,21,21,0,21,26-01-22,26-01-22,12:59:49,Sat Feb 26 2022 12:59:49 GMT+0100 (közép-európai téli idő),The main experiment item,yes,0,0,C:/Users/rrics/Documents/!!ResearchBMECOGSCI/gnet,0,0,0,prototype2.png,no,mono,no,18,no,black,no,no,768,1145,3.5.6,legacy,xpyriment,osweb,1.3.13,0,space,space,space,space,41704,28462,38668,41704,2,legacy,824,1536,24,864,24,0,0,1536,1645876861621,1024,2,48000,-16,experiment,p9sarr4.png,1,odd,Win32,80,139887,136885,80,80,667704,669219,662701,141390,662701,80,808894,810408,805893,669223,805893,visual_patterns,0,0,0,yes,1366
undefined,undefined,undefined,undefined,white,no,Mozilla,Netscape,"5.0 (Windows NT 10.0; Win64; x64) AppleWebKit/537.36 (KHTML, like Gecko) Chrome/98.0.4758.102 Safari/537.36",xpyriment,legacy,legacy,0,uniform,0,0,0,0,24,24,24,0,0,74,74,74,74,74,0,74,0,22,22,22,22,22,0,22,26-01-22,26-01-22,12:59:49,Sat Feb 26 2022 12:59:49 GMT+0100 (közép-európai téli idő),The main experiment item,yes,0,0,C:/Users/rrics/Documents/!!ResearchBMECOGSCI/gnet,0,0,0,prototype2.png,no,mono,no,18,no,black,no,no,768,1145,3.5.6,legacy,xpyriment,osweb,1.3.13,0,space,space,space,space,41704,28462,38668,41704,2,legacy,824,1536,24,864,24,0,0,1536,1645876861621,1024,2,48000,-16,experiment,p5sarrcol2.png,1,odd,Win32,80,139887,136885,80,80,667704,669219,662701,141390,662701,80,813414,814929,810414,669223,810414,visual_patterns,0,0,0,yes,1366
undefined,undefined,undefined,undefined,white,no,Mozilla,Netscape,"5.0 (Windows NT 10.0; Win64; x64) AppleWebKit/537.36 (KHTML, like Gecko) Chrome/98.0.4758.102 Safari/537.36",xpyriment,legacy,legacy,0,uniform,0,0,0,0,24,24,24,0,0,74,74,74,74,74,0,74,0,23,23,23,23,23,0,23,26-01-22,26-01-22,12:59:49,Sat Feb 26 2022 12:59:49 GMT+0100 (közép-európai téli idő),The main experiment item,yes,0,0,C:/Users/rrics/Documents/!!ResearchBMECOGSCI/gnet,0,0,0,prototype2.png,no,mono,no,18,no,black,no,no,768,1145,3.5.6,legacy,xpyriment,osweb,1.3.13,0,space,space,space,space,41704,28462,38668,41704,2,legacy,824,1536,24,864,24,0,0,1536,1645876861621,1024,2,48000,-16,experiment,p7sarr4.png,1,odd,Win32,80,139887,136885,80,80,667704,669219,662701,141390,662701,80,817941,819451,814937,669223,814937,visual_patterns,0,0,0,yes,1366
undefined,undefined,undefined,undefined,white,no,Mozilla,Netscape,"5.0 (Windows NT 10.0; Win64; x64) AppleWebKit/537.36 (KHTML, like Gecko) Chrome/98.0.4758.102 Safari/537.36",xpyriment,legacy,legacy,0,uniform,0,0,0,0,24,24,24,0,0,74,74,74,74,74,0,74,0,24,24,24,24,24,0,24,26-01-22,26-01-22,12:59:49,Sat Feb 26 2022 12:59:49 GMT+0100 (közép-európai téli idő),The main experiment item,yes,0,0,C:/Users/rrics/Documents/!!ResearchBMECOGSCI/gnet,0,0,0,prototype2.png,no,mono,no,18,no,black,no,no,768,1145,3.5.6,legacy,xpyriment,osweb,1.3.13,0,space,space,space,space,41704,28462,38668,41704,2,legacy,824,1536,24,864,24,0,0,1536,1645876861621,1024,2,48000,-16,experiment,p3sarrsha3.png,1,odd,Win32,80,139887,136885,80,80,667704,669219,662701,141390,662701,80,822461,823973,819460,669223,819460,visual_patterns,0,0,0,yes,1366
undefined,undefined,undefined,undefined,white,no,Mozilla,Netscape,"5.0 (Windows NT 10.0; Win64; x64) AppleWebKit/537.36 (KHTML, like Gecko) Chrome/98.0.4758.102 Safari/537.36",xpyriment,legacy,legacy,0,uniform,0,0,0,0,24,24,24,0,0,74,74,74,74,74,0,74,0,25,25,25,25,25,0,25,26-01-22,26-01-22,12:59:49,Sat Feb 26 2022 12:59:49 GMT+0100 (közép-európai téli idő),The main experiment item,yes,0,0,C:/Users/rrics/Documents/!!ResearchBMECOGSCI/gnet,0,0,0,prototype2.png,no,mono,no,18,no,black,no,no,768,1145,3.5.6,legacy,xpyriment,osweb,1.3.13,0,space,space,space,space,41704,28462,38668,41704,2,legacy,824,1536,24,864,24,0,0,1536,1645876861621,1024,2,48000,-16,experiment,p8sarr4.png,1,odd,Win32,80,139887,136885,80,80,667704,669219,662701,141390,662701,80,826981,828495,823982,669223,823982,visual_patterns,0,0,0,yes,1366
undefined,undefined,undefined,undefined,white,no,Mozilla,Netscape,"5.0 (Windows NT 10.0; Win64; x64) AppleWebKit/537.36 (KHTML, like Gecko) Chrome/98.0.4758.102 Safari/537.36",xpyriment,legacy,legacy,0,uniform,0,0,0,0,24,24,24,0,0,74,74,74,74,74,0,74,0,26,26,26,26,26,0,26,26-01-22,26-01-22,12:59:49,Sat Feb 26 2022 12:59:49 GMT+0100 (közép-európai téli idő),The main experiment item,yes,0,0,C:/Users/rrics/Documents/!!ResearchBMECOGSCI/gnet,0,0,0,prototype2.png,no,mono,no,18,no,black,no,no,768,1145,3.5.6,legacy,xpyriment,osweb,1.3.13,0,space,space,space,space,41704,28462,38668,41704,2,legacy,824,1536,24,864,24,0,0,1536,1645876861621,1024,2,48000,-16,experiment,p2sarrshacol4.png,1,odd,Win32,80,139887,136885,80,80,667704,669219,662701,141390,662701,80,831503,833016,828502,669223,828502,visual_patterns,0,0,0,yes,1366
undefined,undefined,undefined,undefined,white,no,Mozilla,Netscape,"5.0 (Windows NT 10.0; Win64; x64) AppleWebKit/537.36 (KHTML, like Gecko) Chrome/98.0.4758.102 Safari/537.36",xpyriment,legacy,legacy,0,uniform,0,0,0,0,24,24,24,0,0,74,74,74,74,74,0,74,0,27,27,27,27,27,0,27,26-01-22,26-01-22,12:59:49,Sat Feb 26 2022 12:59:49 GMT+0100 (közép-európai téli idő),The main experiment item,yes,0,0,C:/Users/rrics/Documents/!!ResearchBMECOGSCI/gnet,0,0,0,prototype2.png,no,mono,no,18,no,black,no,no,768,1145,3.5.6,legacy,xpyriment,osweb,1.3.13,0,space,space,space,space,41704,28462,38668,41704,2,legacy,824,1536,24,864,24,0,0,1536,1645876861621,1024,2,48000,-16,experiment,p4sarrshacol1.png,1,odd,Win32,80,139887,136885,80,80,667704,669219,662701,141390,662701,80,836026,837538,833023,669223,833023,visual_patterns,0,0,0,yes,1366
undefined,undefined,undefined,undefined,white,no,Mozilla,Netscape,"5.0 (Windows NT 10.0; Win64; x64) AppleWebKit/537.36 (KHTML, like Gecko) Chrome/98.0.4758.102 Safari/537.36",xpyriment,legacy,legacy,0,uniform,0,0,0,0,24,24,24,0,0,74,74,74,74,74,0,74,0,28,28,28,28,28,0,28,26-01-22,26-01-22,12:59:49,Sat Feb 26 2022 12:59:49 GMT+0100 (közép-európai téli idő),The main experiment item,yes,0,0,C:/Users/rrics/Documents/!!ResearchBMECOGSCI/gnet,0,0,0,prototype2.png,no,mono,no,18,no,black,no,no,768,1145,3.5.6,legacy,xpyriment,osweb,1.3.13,0,space,space,space,space,41704,28462,38668,41704,2,legacy,824,1536,24,864,24,0,0,1536,1645876861621,1024,2,48000,-16,experiment,p1sarrshacol3.png,1,odd,Win32,80,139887,136885,80,80,667704,669219,662701,141390,662701,80,840550,842059,837548,669223,837548,visual_patterns,0,0,0,yes,1366
undefined,undefined,undefined,undefined,white,no,Mozilla,Netscape,"5.0 (Windows NT 10.0; Win64; x64) AppleWebKit/537.36 (KHTML, like Gecko) Chrome/98.0.4758.102 Safari/537.36",xpyriment,legacy,legacy,0,uniform,0,0,0,0,24,24,24,0,0,74,74,74,74,74,0,74,0,29,29,29,29,29,0,29,26-01-22,26-01-22,12:59:49,Sat Feb 26 2022 12:59:49 GMT+0100 (közép-európai téli idő),The main experiment item,yes,0,0,C:/Users/rrics/Documents/!!ResearchBMECOGSCI/gnet,0,0,0,prototype2.png,no,mono,no,18,no,black,no,no,768,1145,3.5.6,legacy,xpyriment,osweb,1.3.13,0,space,space,space,space,41704,28462,38668,41704,2,legacy,824,1536,24,864,24,0,0,1536,1645876861621,1024,2,48000,-16,experiment,p2sarrsha1.png,1,odd,Win32,80,139887,136885,80,80,667704,669219,662701,141390,662701,80,845071,846581,842067,669223,842067,visual_patterns,0,0,0,yes,1366
undefined,undefined,undefined,undefined,white,no,Mozilla,Netscape,"5.0 (Windows NT 10.0; Win64; x64) AppleWebKit/537.36 (KHTML, like Gecko) Chrome/98.0.4758.102 Safari/537.36",xpyriment,legacy,legacy,0,uniform,0,0,0,0,24,24,24,0,0,74,74,74,74,74,0,74,0,30,30,30,30,30,0,30,26-01-22,26-01-22,12:59:49,Sat Feb 26 2022 12:59:49 GMT+0100 (közép-európai téli idő),The main experiment item,yes,0,0,C:/Users/rrics/Documents/!!ResearchBMECOGSCI/gnet,0,0,0,prototype2.png,no,mono,no,18,no,black,no,no,768,1145,3.5.6,legacy,xpyriment,osweb,1.3.13,0,space,space,space,space,41704,28462,38668,41704,2,legacy,824,1536,24,864,24,0,0,1536,1645876861621,1024,2,48000,-16,experiment,p3sarr2.png,1,odd,Win32,80,139887,136885,80,80,667704,669219,662701,141390,662701,80,849587,851103,846588,669223,846588,visual_patterns,0,0,0,yes,1366
undefined,undefined,undefined,undefined,white,no,Mozilla,Netscape,"5.0 (Windows NT 10.0; Win64; x64) AppleWebKit/537.36 (KHTML, like Gecko) Chrome/98.0.4758.102 Safari/537.36",xpyriment,legacy,legacy,0,uniform,0,0,0,0,24,24,24,0,0,74,74,74,74,74,0,74,0,31,31,31,31,31,0,31,26-01-22,26-01-22,12:59:49,Sat Feb 26 2022 12:59:49 GMT+0100 (közép-európai téli idő),The main experiment item,yes,0,0,C:/Users/rrics/Documents/!!ResearchBMECOGSCI/gnet,0,0,0,prototype2.png,no,mono,no,18,no,black,no,no,768,1145,3.5.6,legacy,xpyriment,osweb,1.3.13,0,space,space,space,space,41704,28462,38668,41704,2,legacy,824,1536,24,864,24,0,0,1536,1645876861621,1024,2,48000,-16,experiment,p3sarrshacol3.png,1,odd,Win32,80,139887,136885,80,80,667704,669219,662701,141390,662701,80,854111,855624,851112,669223,851112,visual_patterns,0,0,0,yes,1366
undefined,undefined,undefined,undefined,white,no,Mozilla,Netscape,"5.0 (Windows NT 10.0; Win64; x64) AppleWebKit/537.36 (KHTML, like Gecko) Chrome/98.0.4758.102 Safari/537.36",xpyriment,legacy,legacy,0,uniform,0,0,0,0,24,24,24,0,0,74,74,74,74,74,0,74,0,32,32,32,32,32,0,32,26-01-22,26-01-22,12:59:49,Sat Feb 26 2022 12:59:49 GMT+0100 (közép-európai téli idő),The main experiment item,yes,0,0,C:/Users/rrics/Documents/!!ResearchBMECOGSCI/gnet,0,0,0,prototype2.png,no,mono,no,18,no,black,no,no,768,1145,3.5.6,legacy,xpyriment,osweb,1.3.13,0,space,space,space,space,41704,28462,38668,41704,2,legacy,824,1536,24,864,24,0,0,1536,1645876861621,1024,2,48000,-16,experiment,p2sarrcol4.png,1,odd,Win32,80,139887,136885,80,80,667704,669219,662701,141390,662701,80,858632,860146,855633,669223,855633,visual_patterns,0,0,0,yes,1366
undefined,undefined,undefined,undefined,white,no,Mozilla,Netscape,"5.0 (Windows NT 10.0; Win64; x64) AppleWebKit/537.36 (KHTML, like Gecko) Chrome/98.0.4758.102 Safari/537.36",xpyriment,legacy,legacy,0,uniform,0,0,0,0,24,24,24,0,0,74,74,74,74,74,0,74,0,33,33,33,33,33,0,33,26-01-22,26-01-22,12:59:49,Sat Feb 26 2022 12:59:49 GMT+0100 (közép-európai téli idő),The main experiment item,yes,0,0,C:/Users/rrics/Documents/!!ResearchBMECOGSCI/gnet,0,0,0,prototype2.png,no,mono,no,18,no,black,no,no,768,1145,3.5.6,legacy,xpyriment,osweb,1.3.13,0,space,space,space,space,41704,28462,38668,41704,2,legacy,824,1536,24,864,24,0,0,1536,1645876861621,1024,2,48000,-16,experiment,p5sarrcol1.png,1,odd,Win32,80,139887,136885,80,80,667704,669219,662701,141390,662701,80,863154,864667,860154,669223,860153,visual_patterns,0,0,0,yes,1366
undefined,undefined,undefined,undefined,white,no,Mozilla,Netscape,"5.0 (Windows NT 10.0; Win64; x64) AppleWebKit/537.36 (KHTML, like Gecko) Chrome/98.0.4758.102 Safari/537.36",xpyriment,legacy,legacy,0,uniform,0,0,0,0,24,24,24,0,0,74,74,74,74,74,0,74,0,34,34,34,34,34,0,34,26-01-22,26-01-22,12:59:49,Sat Feb 26 2022 12:59:49 GMT+0100 (közép-európai téli idő),The main experiment item,yes,0,0,C:/Users/rrics/Documents/!!ResearchBMECOGSCI/gnet,0,0,0,prototype2.png,no,mono,no,18,no,black,no,no,768,1145,3.5.6,legacy,xpyriment,osweb,1.3.13,0,space,space,space,space,41704,28462,38668,41704,2,legacy,824,1536,24,864,24,0,0,1536,1645876861621,1024,2,48000,-16,experiment,p8sarr2.png,1,odd,Win32,80,139887,136885,80,80,667704,669219,662701,141390,662701,80,867674,869189,864674,669223,864674,visual_patterns,0,0,0,yes,1366
undefined,undefined,undefined,undefined,white,no,Mozilla,Netscape,"5.0 (Windows NT 10.0; Win64; x64) AppleWebKit/537.36 (KHTML, like Gecko) Chrome/98.0.4758.102 Safari/537.36",xpyriment,legacy,legacy,0,uniform,0,0,0,0,24,24,24,0,0,74,74,74,74,74,0,74,0,35,35,35,35,35,0,35,26-01-22,26-01-22,12:59:49,Sat Feb 26 2022 12:59:49 GMT+0100 (közép-európai téli idő),The main experiment item,yes,0,0,C:/Users/rrics/Documents/!!ResearchBMECOGSCI/gnet,0,0,0,prototype2.png,no,mono,no,18,no,black,no,no,768,1145,3.5.6,legacy,xpyriment,osweb,1.3.13,0,space,space,space,space,41704,28462,38668,41704,2,legacy,824,1536,24,864,24,0,0,1536,1645876861621,1024,2,48000,-16,experiment,p5sarr3.png,1,odd,Win32,80,139887,136885,80,80,667704,669219,662701,141390,662701,80,872197,873711,869198,669223,869198,visual_patterns,0,0,0,yes,1366
undefined,undefined,undefined,undefined,white,no,Mozilla,Netscape,"5.0 (Windows NT 10.0; Win64; x64) AppleWebKit/537.36 (KHTML, like Gecko) Chrome/98.0.4758.102 Safari/537.36",xpyriment,legacy,legacy,0,uniform,0,0,0,0,24,24,24,0,0,74,74,74,74,74,0,74,0,36,36,36,36,36,0,36,26-01-22,26-01-22,12:59:49,Sat Feb 26 2022 12:59:49 GMT+0100 (közép-európai téli idő),The main experiment item,yes,0,0,C:/Users/rrics/Documents/!!ResearchBMECOGSCI/gnet,0,0,0,prototype2.png,no,mono,no,18,no,black,no,no,768,1145,3.5.6,legacy,xpyriment,osweb,1.3.13,0,space,space,space,space,41704,28462,38668,41704,2,legacy,824,1536,24,864,24,0,0,1536,1645876861621,1024,2,48000,-16,experiment,p7sarr1.png,1,odd,Win32,80,139887,136885,80,80,667704,669219,662701,141390,662701,80,876720,878232,873717,669223,873717,visual_patterns,0,0,0,yes,1366
undefined,undefined,undefined,undefined,white,no,Mozilla,Netscape,"5.0 (Windows NT 10.0; Win64; x64) AppleWebKit/537.36 (KHTML, like Gecko) Chrome/98.0.4758.102 Safari/537.36",xpyriment,legacy,legacy,0,uniform,0,0,0,0,24,24,24,0,0,74,74,74,74,74,0,74,0,37,37,37,37,37,0,37,26-01-22,26-01-22,12:59:49,Sat Feb 26 2022 12:59:49 GMT+0100 (közép-európai téli idő),The main experiment item,yes,0,0,C:/Users/rrics/Documents/!!ResearchBMECOGSCI/gnet,0,0,0,prototype2.png,no,mono,no,18,no,black,no,no,768,1145,3.5.6,legacy,xpyriment,osweb,1.3.13,0,space,space,space,space,41704,28462,38668,41704,2,legacy,824,1536,24,864,24,0,0,1536,1645876861621,1024,2,48000,-16,experiment,p1sarrcol4.png,1,odd,Win32,80,139887,136885,80,80,667704,669219,662701,141390,662701,80,881247,882754,878248,669223,878248,visual_patterns,0,0,0,yes,1366
undefined,undefined,undefined,undefined,white,no,Mozilla,Netscape,"5.0 (Windows NT 10.0; Win64; x64) AppleWebKit/537.36 (KHTML, like Gecko) Chrome/98.0.4758.102 Safari/537.36",xpyriment,legacy,legacy,0,uniform,0,0,0,0,24,24,24,0,0,74,74,74,74,74,0,74,0,38,38,38,38,38,0,38,26-01-22,26-01-22,12:59:49,Sat Feb 26 2022 12:59:49 GMT+0100 (közép-európai téli idő),The main experiment item,yes,0,0,C:/Users/rrics/Documents/!!ResearchBMECOGSCI/gnet,0,0,0,prototype2.png,no,mono,no,18,no,black,no,no,768,1145,3.5.6,legacy,xpyriment,osweb,1.3.13,0,space,space,space,space,41704,28462,38668,41704,2,legacy,824,1536,24,864,24,0,0,1536,1645876861621,1024,2,48000,-16,experiment,p3sarrsha4.png,1,odd,Win32,80,139887,136885,80,80,667704,669219,662701,141390,662701,80,885763,887276,882762,669223,882762,visual_patterns,0,0,0,yes,1366
undefined,undefined,undefined,undefined,white,no,Mozilla,Netscape,"5.0 (Windows NT 10.0; Win64; x64) AppleWebKit/537.36 (KHTML, like Gecko) Chrome/98.0.4758.102 Safari/537.36",xpyriment,legacy,legacy,0,uniform,0,0,0,0,24,24,24,0,0,74,74,74,74,74,0,74,0,39,39,39,39,39,0,39,26-01-22,26-01-22,12:59:49,Sat Feb 26 2022 12:59:49 GMT+0100 (közép-európai téli idő),The main experiment item,yes,0,0,C:/Users/rrics/Documents/!!ResearchBMECOGSCI/gnet,0,0,0,prototype2.png,no,mono,no,18,no,black,no,no,768,1145,3.5.6,legacy,xpyriment,osweb,1.3.13,0,space,space,space,space,41704,28462,38668,41704,2,legacy,824,1536,24,864,24,0,0,1536,1645876861621,1024,2,48000,-16,experiment,p3sarr1.png,1,odd,Win32,80,139887,136885,80,80,667704,669219,662701,141390,662701,80,890286,891797,887285,669223,887285,visual_patterns,0,0,0,yes,1366
undefined,undefined,undefined,undefined,white,no,Mozilla,Netscape,"5.0 (Windows NT 10.0; Win64; x64) AppleWebKit/537.36 (KHTML, like Gecko) Chrome/98.0.4758.102 Safari/537.36",xpyriment,legacy,legacy,0,uniform,0,0,0,0,24,24,24,0,0,74,74,74,74,74,0,74,0,40,40,40,40,40,0,40,26-01-22,26-01-22,12:59:49,Sat Feb 26 2022 12:59:49 GMT+0100 (közép-európai téli idő),The main experiment item,yes,0,0,C:/Users/rrics/Documents/!!ResearchBMECOGSCI/gnet,0,0,0,prototype2.png,no,mono,no,18,no,black,no,no,768,1145,3.5.6,legacy,xpyriment,osweb,1.3.13,0,space,space,space,space,41704,28462,38668,41704,2,legacy,824,1536,24,864,24,0,0,1536,1645876861621,1024,2,48000,-16,experiment,p2sarrsha3.png,1,odd,Win32,80,139887,136885,80,80,667704,669219,662701,141390,662701,80,894806,896319,891805,669223,891805,visual_patterns,0,0,0,yes,1366
undefined,undefined,undefined,undefined,white,no,Mozilla,Netscape,"5.0 (Windows NT 10.0; Win64; x64) AppleWebKit/537.36 (KHTML, like Gecko) Chrome/98.0.4758.102 Safari/537.36",xpyriment,legacy,legacy,0,uniform,0,0,0,0,24,24,24,0,0,74,74,74,74,74,0,74,0,41,41,41,41,41,0,41,26-01-22,26-01-22,12:59:49,Sat Feb 26 2022 12:59:49 GMT+0100 (közép-európai téli idő),The main experiment item,yes,0,0,C:/Users/rrics/Documents/!!ResearchBMECOGSCI/gnet,0,0,0,prototype2.png,no,mono,no,18,no,black,no,no,768,1145,3.5.6,legacy,xpyriment,osweb,1.3.13,0,space,space,space,space,41704,28462,38668,41704,2,legacy,824,1536,24,864,24,0,0,1536,1645876861621,1024,2,48000,-16,experiment,p9sarr3.png,1,odd,Win32,80,139887,136885,80,80,667704,669219,662701,141390,662701,80,899327,900841,896327,669223,896327,visual_patterns,0,0,0,yes,1366
undefined,undefined,undefined,undefined,white,no,Mozilla,Netscape,"5.0 (Windows NT 10.0; Win64; x64) AppleWebKit/537.36 (KHTML, like Gecko) Chrome/98.0.4758.102 Safari/537.36",xpyriment,legacy,legacy,0,uniform,0,0,0,0,24,24,24,0,0,74,74,74,74,74,0,74,0,42,42,42,42,42,0,42,26-01-22,26-01-22,12:59:49,Sat Feb 26 2022 12:59:49 GMT+0100 (közép-európai téli idő),The main experiment item,yes,0,0,C:/Users/rrics/Documents/!!ResearchBMECOGSCI/gnet,0,0,0,prototype2.png,no,mono,no,18,no,black,no,no,768,1145,3.5.6,legacy,xpyriment,osweb,1.3.13,0,space,space,space,space,41704,28462,38668,41704,2,legacy,824,1536,24,864,24,0,0,1536,1645876861621,1024,2,48000,-16,experiment,p10sarr4.png,1,odd,Win32,80,139887,136885,80,80,667704,669219,662701,141390,662701,80,903859,905363,900857,669223,900857,visual_patterns,0,0,0,yes,1366
undefined,undefined,undefined,undefined,white,no,Mozilla,Netscape,"5.0 (Windows NT 10.0; Win64; x64) AppleWebKit/537.36 (KHTML, like Gecko) Chrome/98.0.4758.102 Safari/537.36",xpyriment,legacy,legacy,0,uniform,0,0,0,0,24,24,24,0,0,74,74,74,74,74,0,74,0,43,43,43,43,43,0,43,26-01-22,26-01-22,12:59:49,Sat Feb 26 2022 12:59:49 GMT+0100 (közép-európai téli idő),The main experiment item,yes,0,0,C:/Users/rrics/Documents/!!ResearchBMECOGSCI/gnet,0,0,0,prototype2.png,no,mono,no,18,no,black,no,no,768,1145,3.5.6,legacy,xpyriment,osweb,1.3.13,0,space,space,space,space,41704,28462,38668,41704,2,legacy,824,1536,24,864,24,0,0,1536,1645876861621,1024,2,48000,-16,experiment,p4sarrcol1.png,1,odd,Win32,80,139887,136885,80,80,667704,669219,662701,141390,662701,80,908371,909884,905370,669223,905369,visual_patterns,0,0,0,yes,1366
undefined,undefined,undefined,undefined,white,no,Mozilla,Netscape,"5.0 (Windows NT 10.0; Win64; x64) AppleWebKit/537.36 (KHTML, like Gecko) Chrome/98.0.4758.102 Safari/537.36",xpyriment,legacy,legacy,0,uniform,0,0,0,0,24,24,24,0,0,74,74,74,74,74,0,74,0,44,44,44,44,44,0,44,26-01-22,26-01-22,12:59:49,Sat Feb 26 2022 12:59:49 GMT+0100 (közép-európai téli idő),The main experiment item,yes,0,0,C:/Users/rrics/Documents/!!ResearchBMECOGSCI/gnet,0,0,0,prototype2.png,no,mono,no,18,no,black,no,no,768,1145,3.5.6,legacy,xpyriment,osweb,1.3.13,0,space,space,space,space,41704,28462,38668,41704,2,legacy,824,1536,24,864,24,0,0,1536,1645876861621,1024,2,48000,-16,experiment,p5sarrshacol4.png,1,odd,Win32,80,139887,136885,80,80,667704,669219,662701,141390,662701,80,912893,914406,909891,669223,909891,visual_patterns,0,0,0,yes,1366
undefined,undefined,undefined,undefined,white,no,Mozilla,Netscape,"5.0 (Windows NT 10.0; Win64; x64) AppleWebKit/537.36 (KHTML, like Gecko) Chrome/98.0.4758.102 Safari/537.36",xpyriment,legacy,legacy,0,uniform,0,0,0,0,24,24,24,0,0,74,74,74,74,74,0,74,0,45,45,45,45,45,0,45,26-01-22,26-01-22,12:59:49,Sat Feb 26 2022 12:59:49 GMT+0100 (közép-európai téli idő),The main experiment item,yes,0,0,C:/Users/rrics/Documents/!!ResearchBMECOGSCI/gnet,0,0,0,prototype2.png,no,mono,no,18,no,black,no,no,768,1145,3.5.6,legacy,xpyriment,osweb,1.3.13,0,space,space,space,space,41704,28462,38668,41704,2,legacy,824,1536,24,864,24,0,0,1536,1645876861621,1024,2,48000,-16,experiment,p3sarr3.png,1,odd,Win32,80,139887,136885,80,80,667704,669219,662701,141390,662701,80,917415,918927,914416,669223,914416,visual_patterns,0,0,0,yes,1366
undefined,undefined,undefined,undefined,white,no,Mozilla,Netscape,"5.0 (Windows NT 10.0; Win64; x64) AppleWebKit/537.36 (KHTML, like Gecko) Chrome/98.0.4758.102 Safari/537.36",xpyriment,legacy,legacy,0,uniform,0,0,0,0,24,24,24,0,0,74,74,74,74,74,0,74,0,46,46,46,46,46,0,46,26-01-22,26-01-22,12:59:49,Sat Feb 26 2022 12:59:49 GMT+0100 (közép-európai téli idő),The main experiment item,yes,0,0,C:/Users/rrics/Documents/!!ResearchBMECOGSCI/gnet,0,0,0,prototype2.png,no,mono,no,18,no,black,no,no,768,1145,3.5.6,legacy,xpyriment,osweb,1.3.13,0,space,space,space,space,41704,28462,38668,41704,2,legacy,824,1536,24,864,24,0,0,1536,1645876861621,1024,2,48000,-16,experiment,p2sarr3.png,1,odd,Win32,80,139887,136885,80,80,667704,669219,662701,141390,662701,80,921940,923449,918937,669223,918937,visual_patterns,0,0,0,yes,1366
undefined,undefined,undefined,undefined,white,no,Mozilla,Netscape,"5.0 (Windows NT 10.0; Win64; x64) AppleWebKit/537.36 (KHTML, like Gecko) Chrome/98.0.4758.102 Safari/537.36",xpyriment,legacy,legacy,0,uniform,0,0,0,0,24,24,24,0,0,74,74,74,74,74,0,74,0,47,47,47,47,47,0,47,26-01-22,26-01-22,12:59:49,Sat Feb 26 2022 12:59:49 GMT+0100 (közép-európai téli idő),The main experiment item,yes,0,0,C:/Users/rrics/Documents/!!ResearchBMECOGSCI/gnet,0,0,0,prototype2.png,no,mono,no,18,no,black,no,no,768,1145,3.5.6,legacy,xpyriment,osweb,1.3.13,0,space,space,space,space,41704,28462,38668,41704,2,legacy,824,1536,24,864,24,0,0,1536,1645876861621,1024,2,48000,-16,experiment,p4sarr2.png,1,odd,Win32,80,139887,136885,80,80,667704,669219,662701,141390,662701,80,926467,927970,923463,669223,923463,visual_patterns,0,0,0,yes,1366
undefined,undefined,undefined,undefined,white,no,Mozilla,Netscape,"5.0 (Windows NT 10.0; Win64; x64) AppleWebKit/537.36 (KHTML, like Gecko) Chrome/98.0.4758.102 Safari/537.36",xpyriment,legacy,legacy,0,uniform,0,0,0,0,24,24,24,0,0,74,74,74,74,74,0,74,0,48,48,48,48,48,0,48,26-01-22,26-01-22,12:59:49,Sat Feb 26 2022 12:59:49 GMT+0100 (közép-európai téli idő),The main experiment item,yes,0,0,C:/Users/rrics/Documents/!!ResearchBMECOGSCI/gnet,0,0,0,prototype2.png,no,mono,no,18,no,black,no,no,768,1145,3.5.6,legacy,xpyriment,osweb,1.3.13,0,space,space,space,space,41704,28462,38668,41704,2,legacy,824,1536,24,864,24,0,0,1536,1645876861621,1024,2,48000,-16,experiment,p2sarrshacol3.png,1,odd,Win32,80,139887,136885,80,80,667704,669219,662701,141390,662701,80,930980,932492,927978,669223,927978,visual_patterns,0,0,0,yes,1366
