acc,accuracy,average_response_time,avg_rt,background,bidi,browser_codename,browser_name,browser_version,canvas_backend,clock_backend,color_backend,compensation,coordinates,count_end,count_experiment,count_osweb,count_prestudy,count_prestudy_isi,count_prestudy_sequence,count_prestudy_stimpres,count_start,count_study,count_study_coroutines,count_study_isi,count_study_logger,count_study_response,count_study_sequence,count_study_start,count_study_stimpres,count_test,count_test_coroutines,count_test_isi,count_test_logger,count_test_response,count_test_sequence,count_test_start,count_test_stimpres,date_startdate,date_startdateUTC,date_starttime,datetime,description,disable_garbage_collection,experiment_debug,experiment_parameters,experiment_path,experiment_pilot,experiment_taskname,experiment_taskversion,fampict,font_bold,font_family,font_italic,font_size,font_underline,foreground,form_clicks,fullscreen,height,jatosStudyResultId,jatosVersion,keyboard_backend,mouse_backend,opensesame_codename,opensesame_version,repeat_cycle,response,response_start,response_study_start,response_test_start,response_time,response_time_start,response_time_study_start,response_time_test_start,round_decimals,sampler_backend,screen_availableHeight,screen_availableWidth,screen_colorDepth,screen_height,screen_pixelDepth,screen_screenX,screen_screenY,screen_width,sessionid,sound_buf_size,sound_channels,sound_freq,sound_sample_size,start,stim,subject_nr,subject_parity,system_os,time_prestudy,time_prestudy_isi,time_prestudy_stimpres,time_start,time_study,time_study_isi,time_study_logger,time_study_response,time_study_start,time_study_stimpres,time_test,time_test_isi,time_test_logger,time_test_response,time_test_start,time_test_stimpres,title,total_correct,total_response_time,total_responses,uniform_coordinates,width
undefined,undefined,undefined,undefined,white,no,Mozilla,Netscape,"5.0 (Macintosh; Intel Mac OS X 10_15_7) AppleWebKit/605.1.15 (KHTML, like Gecko) Version/15.3 Safari/605.1.15",xpyriment,legacy,legacy,0,uniform,0,0,0,0,24,24,24,0,0,0,0,0,0,0,0,0,0,,,,,,0,,26-01-22,26-01-22,17:09:09,Sat Feb 26 2022 17:09:09 GMT+0100 (CET),The main experiment item,yes,0,0,C:/Users/rrics/Documents/!!ResearchBMECOGSCI/gnet,0,0,0,prototype4.png,no,mono,no,18,no,black,no,no,768,1146,3.5.6,legacy,xpyriment,osweb,1.3.13,0,right,down,right,,13490,20548,13490,,2,legacy,794,1440,24,900,24,0,25,1440,1645891785402,1024,2,48000,-16,experiment,p6sarr1.png,0,even,MacIntel,125,132911,129894,125,125,152984,154495,148003,134456,148003,125,,,,,,visual_patterns,0,0,0,yes,1366
undefined,undefined,undefined,undefined,white,no,Mozilla,Netscape,"5.0 (Macintosh; Intel Mac OS X 10_15_7) AppleWebKit/605.1.15 (KHTML, like Gecko) Version/15.3 Safari/605.1.15",xpyriment,legacy,legacy,0,uniform,0,0,0,0,24,24,24,0,0,1,1,1,1,1,0,1,0,,,,,,0,,26-01-22,26-01-22,17:09:09,Sat Feb 26 2022 17:09:09 GMT+0100 (CET),The main experiment item,yes,0,0,C:/Users/rrics/Documents/!!ResearchBMECOGSCI/gnet,0,0,0,prototype4.png,no,mono,no,18,no,black,no,no,768,1146,3.5.6,legacy,xpyriment,osweb,1.3.13,0,right,down,right,,13490,20548,13490,,2,legacy,794,1440,24,900,24,0,25,1440,1645891785402,1024,2,48000,-16,experiment,prototype3.png,0,even,MacIntel,125,132911,129894,125,125,159507,161012,154524,134456,154523,125,,,,,,visual_patterns,0,0,0,yes,1366
undefined,undefined,undefined,undefined,white,no,Mozilla,Netscape,"5.0 (Macintosh; Intel Mac OS X 10_15_7) AppleWebKit/605.1.15 (KHTML, like Gecko) Version/15.3 Safari/605.1.15",xpyriment,legacy,legacy,0,uniform,0,0,0,0,24,24,24,0,0,2,2,2,2,2,0,2,0,,,,,,0,,26-01-22,26-01-22,17:09:09,Sat Feb 26 2022 17:09:09 GMT+0100 (CET),The main experiment item,yes,0,0,C:/Users/rrics/Documents/!!ResearchBMECOGSCI/gnet,0,0,0,prototype4.png,no,mono,no,18,no,black,no,no,768,1146,3.5.6,legacy,xpyriment,osweb,1.3.13,0,right,down,right,,13490,20548,13490,,2,legacy,794,1440,24,900,24,0,25,1440,1645891785402,1024,2,48000,-16,experiment,p3sarr1.png,0,even,MacIntel,125,132911,129894,125,125,166026,167528,161043,134456,161043,125,,,,,,visual_patterns,0,0,0,yes,1366
undefined,undefined,undefined,undefined,white,no,Mozilla,Netscape,"5.0 (Macintosh; Intel Mac OS X 10_15_7) AppleWebKit/605.1.15 (KHTML, like Gecko) Version/15.3 Safari/605.1.15",xpyriment,legacy,legacy,0,uniform,0,0,0,0,24,24,24,0,0,3,3,3,3,3,0,3,0,,,,,,0,,26-01-22,26-01-22,17:09:09,Sat Feb 26 2022 17:09:09 GMT+0100 (CET),The main experiment item,yes,0,0,C:/Users/rrics/Documents/!!ResearchBMECOGSCI/gnet,0,0,0,prototype4.png,no,mono,no,18,no,black,no,no,768,1146,3.5.6,legacy,xpyriment,osweb,1.3.13,0,right,down,right,,13490,20548,13490,,2,legacy,794,1440,24,900,24,0,25,1440,1645891785402,1024,2,48000,-16,experiment,p9sarr2.png,0,even,MacIntel,125,132911,129894,125,125,172547,174063,167561,134456,167561,125,,,,,,visual_patterns,0,0,0,yes,1366
undefined,undefined,undefined,undefined,white,no,Mozilla,Netscape,"5.0 (Macintosh; Intel Mac OS X 10_15_7) AppleWebKit/605.1.15 (KHTML, like Gecko) Version/15.3 Safari/605.1.15",xpyriment,legacy,legacy,0,uniform,0,0,0,0,24,24,24,0,0,4,4,4,4,4,0,4,0,,,,,,0,,26-01-22,26-01-22,17:09:09,Sat Feb 26 2022 17:09:09 GMT+0100 (CET),The main experiment item,yes,0,0,C:/Users/rrics/Documents/!!ResearchBMECOGSCI/gnet,0,0,0,prototype4.png,no,mono,no,18,no,black,no,no,768,1146,3.5.6,legacy,xpyriment,osweb,1.3.13,0,right,down,right,,13490,20548,13490,,2,legacy,794,1440,24,900,24,0,25,1440,1645891785402,1024,2,48000,-16,experiment,p4sarr2.png,0,even,MacIntel,125,132911,129894,125,125,179078,180580,174097,134456,174097,125,,,,,,visual_patterns,0,0,0,yes,1366
undefined,undefined,undefined,undefined,white,no,Mozilla,Netscape,"5.0 (Macintosh; Intel Mac OS X 10_15_7) AppleWebKit/605.1.15 (KHTML, like Gecko) Version/15.3 Safari/605.1.15",xpyriment,legacy,legacy,0,uniform,0,0,0,0,24,24,24,0,0,5,5,5,5,5,0,5,0,,,,,,0,,26-01-22,26-01-22,17:09:09,Sat Feb 26 2022 17:09:09 GMT+0100 (CET),The main experiment item,yes,0,0,C:/Users/rrics/Documents/!!ResearchBMECOGSCI/gnet,0,0,0,prototype4.png,no,mono,no,18,no,black,no,no,768,1146,3.5.6,legacy,xpyriment,osweb,1.3.13,0,right,down,right,,13490,20548,13490,,2,legacy,794,1440,24,900,24,0,25,1440,1645891785402,1024,2,48000,-16,experiment,p4sarrshacol2.png,0,even,MacIntel,125,132911,129894,125,125,185599,187113,180612,134456,180612,125,,,,,,visual_patterns,0,0,0,yes,1366
undefined,undefined,undefined,undefined,white,no,Mozilla,Netscape,"5.0 (Macintosh; Intel Mac OS X 10_15_7) AppleWebKit/605.1.15 (KHTML, like Gecko) Version/15.3 Safari/605.1.15",xpyriment,legacy,legacy,0,uniform,0,0,0,0,24,24,24,0,0,6,6,6,6,6,0,6,0,,,,,,0,,26-01-22,26-01-22,17:09:09,Sat Feb 26 2022 17:09:09 GMT+0100 (CET),The main experiment item,yes,0,0,C:/Users/rrics/Documents/!!ResearchBMECOGSCI/gnet,0,0,0,prototype4.png,no,mono,no,18,no,black,no,no,768,1146,3.5.6,legacy,xpyriment,osweb,1.3.13,0,right,down,right,,13490,20548,13490,,2,legacy,794,1440,24,900,24,0,25,1440,1645891785402,1024,2,48000,-16,experiment,p5sarrsha2.png,0,even,MacIntel,125,132911,129894,125,125,192131,193646,187146,134456,187146,125,,,,,,visual_patterns,0,0,0,yes,1366
undefined,undefined,undefined,undefined,white,no,Mozilla,Netscape,"5.0 (Macintosh; Intel Mac OS X 10_15_7) AppleWebKit/605.1.15 (KHTML, like Gecko) Version/15.3 Safari/605.1.15",xpyriment,legacy,legacy,0,uniform,0,0,0,0,24,24,24,0,0,7,7,7,7,7,0,7,0,,,,,,0,,26-01-22,26-01-22,17:09:09,Sat Feb 26 2022 17:09:09 GMT+0100 (CET),The main experiment item,yes,0,0,C:/Users/rrics/Documents/!!ResearchBMECOGSCI/gnet,0,0,0,prototype4.png,no,mono,no,18,no,black,no,no,768,1146,3.5.6,legacy,xpyriment,osweb,1.3.13,0,right,down,right,,13490,20548,13490,,2,legacy,794,1440,24,900,24,0,25,1440,1645891785402,1024,2,48000,-16,experiment,p2sarr1.png,0,even,MacIntel,125,132911,129894,125,125,198661,200163,193678,134456,193678,125,,,,,,visual_patterns,0,0,0,yes,1366
undefined,undefined,undefined,undefined,white,no,Mozilla,Netscape,"5.0 (Macintosh; Intel Mac OS X 10_15_7) AppleWebKit/605.1.15 (KHTML, like Gecko) Version/15.3 Safari/605.1.15",xpyriment,legacy,legacy,0,uniform,0,0,0,0,24,24,24,0,0,8,8,8,8,8,0,8,0,,,,,,0,,26-01-22,26-01-22,17:09:09,Sat Feb 26 2022 17:09:09 GMT+0100 (CET),The main experiment item,yes,0,0,C:/Users/rrics/Documents/!!ResearchBMECOGSCI/gnet,0,0,0,prototype4.png,no,mono,no,18,no,black,no,no,768,1146,3.5.6,legacy,xpyriment,osweb,1.3.13,0,right,down,right,,13490,20548,13490,,2,legacy,794,1440,24,900,24,0,25,1440,1645891785402,1024,2,48000,-16,experiment,prototype4.png,0,even,MacIntel,125,132911,129894,125,125,205178,206681,200196,134456,200195,125,,,,,,visual_patterns,0,0,0,yes,1366
undefined,undefined,undefined,undefined,white,no,Mozilla,Netscape,"5.0 (Macintosh; Intel Mac OS X 10_15_7) AppleWebKit/605.1.15 (KHTML, like Gecko) Version/15.3 Safari/605.1.15",xpyriment,legacy,legacy,0,uniform,0,0,0,0,24,24,24,0,0,9,9,9,9,9,0,9,0,,,,,,0,,26-01-22,26-01-22,17:09:09,Sat Feb 26 2022 17:09:09 GMT+0100 (CET),The main experiment item,yes,0,0,C:/Users/rrics/Documents/!!ResearchBMECOGSCI/gnet,0,0,0,prototype4.png,no,mono,no,18,no,black,no,no,768,1146,3.5.6,legacy,xpyriment,osweb,1.3.13,0,right,down,right,,13490,20548,13490,,2,legacy,794,1440,24,900,24,0,25,1440,1645891785402,1024,2,48000,-16,experiment,p5sarrsha1.png,0,even,MacIntel,125,132911,129894,125,125,211696,213198,206715,134456,206714,125,,,,,,visual_patterns,0,0,0,yes,1366
undefined,undefined,undefined,undefined,white,no,Mozilla,Netscape,"5.0 (Macintosh; Intel Mac OS X 10_15_7) AppleWebKit/605.1.15 (KHTML, like Gecko) Version/15.3 Safari/605.1.15",xpyriment,legacy,legacy,0,uniform,0,0,0,0,24,24,24,0,0,10,10,10,10,10,0,10,0,,,,,,0,,26-01-22,26-01-22,17:09:09,Sat Feb 26 2022 17:09:09 GMT+0100 (CET),The main experiment item,yes,0,0,C:/Users/rrics/Documents/!!ResearchBMECOGSCI/gnet,0,0,0,prototype4.png,no,mono,no,18,no,black,no,no,768,1146,3.5.6,legacy,xpyriment,osweb,1.3.13,0,right,down,right,,13490,20548,13490,,2,legacy,794,1440,24,900,24,0,25,1440,1645891785402,1024,2,48000,-16,experiment,p5sarrcol1.png,0,even,MacIntel,125,132911,129894,125,125,218212,219715,213234,134456,213233,125,,,,,,visual_patterns,0,0,0,yes,1366
undefined,undefined,undefined,undefined,white,no,Mozilla,Netscape,"5.0 (Macintosh; Intel Mac OS X 10_15_7) AppleWebKit/605.1.15 (KHTML, like Gecko) Version/15.3 Safari/605.1.15",xpyriment,legacy,legacy,0,uniform,0,0,0,0,24,24,24,0,0,11,11,11,11,11,0,11,0,,,,,,0,,26-01-22,26-01-22,17:09:09,Sat Feb 26 2022 17:09:09 GMT+0100 (CET),The main experiment item,yes,0,0,C:/Users/rrics/Documents/!!ResearchBMECOGSCI/gnet,0,0,0,prototype4.png,no,mono,no,18,no,black,no,no,768,1146,3.5.6,legacy,xpyriment,osweb,1.3.13,0,right,down,right,,13490,20548,13490,,2,legacy,794,1440,24,900,24,0,25,1440,1645891785402,1024,2,48000,-16,experiment,p8sarr2.png,0,even,MacIntel,125,132911,129894,125,125,224729,226232,219745,134456,219745,125,,,,,,visual_patterns,0,0,0,yes,1366
undefined,undefined,undefined,undefined,white,no,Mozilla,Netscape,"5.0 (Macintosh; Intel Mac OS X 10_15_7) AppleWebKit/605.1.15 (KHTML, like Gecko) Version/15.3 Safari/605.1.15",xpyriment,legacy,legacy,0,uniform,0,0,0,0,24,24,24,0,0,12,12,12,12,12,0,12,0,,,,,,0,,26-01-22,26-01-22,17:09:09,Sat Feb 26 2022 17:09:09 GMT+0100 (CET),The main experiment item,yes,0,0,C:/Users/rrics/Documents/!!ResearchBMECOGSCI/gnet,0,0,0,prototype4.png,no,mono,no,18,no,black,no,no,768,1146,3.5.6,legacy,xpyriment,osweb,1.3.13,0,right,down,right,,13490,20548,13490,,2,legacy,794,1440,24,900,24,0,25,1440,1645891785402,1024,2,48000,-16,experiment,p5sarrshacol2.png,0,even,MacIntel,125,132911,129894,125,125,231251,232766,226267,134456,226267,125,,,,,,visual_patterns,0,0,0,yes,1366
undefined,undefined,undefined,undefined,white,no,Mozilla,Netscape,"5.0 (Macintosh; Intel Mac OS X 10_15_7) AppleWebKit/605.1.15 (KHTML, like Gecko) Version/15.3 Safari/605.1.15",xpyriment,legacy,legacy,0,uniform,0,0,0,0,24,24,24,0,0,13,13,13,13,13,0,13,0,,,,,,0,,26-01-22,26-01-22,17:09:09,Sat Feb 26 2022 17:09:09 GMT+0100 (CET),The main experiment item,yes,0,0,C:/Users/rrics/Documents/!!ResearchBMECOGSCI/gnet,0,0,0,prototype4.png,no,mono,no,18,no,black,no,no,768,1146,3.5.6,legacy,xpyriment,osweb,1.3.13,0,right,down,right,,13490,20548,13490,,2,legacy,794,1440,24,900,24,0,25,1440,1645891785402,1024,2,48000,-16,experiment,p8sarr1.png,0,even,MacIntel,125,132911,129894,125,125,237785,239300,232802,134456,232802,125,,,,,,visual_patterns,0,0,0,yes,1366
undefined,undefined,undefined,undefined,white,no,Mozilla,Netscape,"5.0 (Macintosh; Intel Mac OS X 10_15_7) AppleWebKit/605.1.15 (KHTML, like Gecko) Version/15.3 Safari/605.1.15",xpyriment,legacy,legacy,0,uniform,0,0,0,0,24,24,24,0,0,14,14,14,14,14,0,14,0,,,,,,0,,26-01-22,26-01-22,17:09:09,Sat Feb 26 2022 17:09:09 GMT+0100 (CET),The main experiment item,yes,0,0,C:/Users/rrics/Documents/!!ResearchBMECOGSCI/gnet,0,0,0,prototype4.png,no,mono,no,18,no,black,no,no,768,1146,3.5.6,legacy,xpyriment,osweb,1.3.13,0,right,down,right,,13490,20548,13490,,2,legacy,794,1440,24,900,24,0,25,1440,1645891785402,1024,2,48000,-16,experiment,p3sarrcol1.png,0,even,MacIntel,125,132911,129894,125,125,244313,245818,239329,134456,239329,125,,,,,,visual_patterns,0,0,0,yes,1366
undefined,undefined,undefined,undefined,white,no,Mozilla,Netscape,"5.0 (Macintosh; Intel Mac OS X 10_15_7) AppleWebKit/605.1.15 (KHTML, like Gecko) Version/15.3 Safari/605.1.15",xpyriment,legacy,legacy,0,uniform,0,0,0,0,24,24,24,0,0,15,15,15,15,15,0,15,0,,,,,,0,,26-01-22,26-01-22,17:09:09,Sat Feb 26 2022 17:09:09 GMT+0100 (CET),The main experiment item,yes,0,0,C:/Users/rrics/Documents/!!ResearchBMECOGSCI/gnet,0,0,0,prototype4.png,no,mono,no,18,no,black,no,no,768,1146,3.5.6,legacy,xpyriment,osweb,1.3.13,0,right,down,right,,13490,20548,13490,,2,legacy,794,1440,24,900,24,0,25,1440,1645891785402,1024,2,48000,-16,experiment,prototype1.png,0,even,MacIntel,125,132911,129894,125,125,250831,252334,245848,134456,245848,125,,,,,,visual_patterns,0,0,0,yes,1366
undefined,undefined,undefined,undefined,white,no,Mozilla,Netscape,"5.0 (Macintosh; Intel Mac OS X 10_15_7) AppleWebKit/605.1.15 (KHTML, like Gecko) Version/15.3 Safari/605.1.15",xpyriment,legacy,legacy,0,uniform,0,0,0,0,24,24,24,0,0,16,16,16,16,16,0,16,0,,,,,,0,,26-01-22,26-01-22,17:09:09,Sat Feb 26 2022 17:09:09 GMT+0100 (CET),The main experiment item,yes,0,0,C:/Users/rrics/Documents/!!ResearchBMECOGSCI/gnet,0,0,0,prototype4.png,no,mono,no,18,no,black,no,no,768,1146,3.5.6,legacy,xpyriment,osweb,1.3.13,0,right,down,right,,13490,20548,13490,,2,legacy,794,1440,24,900,24,0,25,1440,1645891785402,1024,2,48000,-16,experiment,p2sarr2.png,0,even,MacIntel,125,132911,129894,125,125,257352,258868,252364,134456,252364,125,,,,,,visual_patterns,0,0,0,yes,1366
undefined,undefined,undefined,undefined,white,no,Mozilla,Netscape,"5.0 (Macintosh; Intel Mac OS X 10_15_7) AppleWebKit/605.1.15 (KHTML, like Gecko) Version/15.3 Safari/605.1.15",xpyriment,legacy,legacy,0,uniform,0,0,0,0,24,24,24,0,0,17,17,17,17,17,0,17,0,,,,,,0,,26-01-22,26-01-22,17:09:09,Sat Feb 26 2022 17:09:09 GMT+0100 (CET),The main experiment item,yes,0,0,C:/Users/rrics/Documents/!!ResearchBMECOGSCI/gnet,0,0,0,prototype4.png,no,mono,no,18,no,black,no,no,768,1146,3.5.6,legacy,xpyriment,osweb,1.3.13,0,right,down,right,,13490,20548,13490,,2,legacy,794,1440,24,900,24,0,25,1440,1645891785402,1024,2,48000,-16,experiment,p3sarrsha2.png,0,even,MacIntel,125,132911,129894,125,125,263883,265386,258899,134456,258899,125,,,,,,visual_patterns,0,0,0,yes,1366
undefined,undefined,undefined,undefined,white,no,Mozilla,Netscape,"5.0 (Macintosh; Intel Mac OS X 10_15_7) AppleWebKit/605.1.15 (KHTML, like Gecko) Version/15.3 Safari/605.1.15",xpyriment,legacy,legacy,0,uniform,0,0,0,0,24,24,24,0,0,18,18,18,18,18,0,18,0,,,,,,0,,26-01-22,26-01-22,17:09:09,Sat Feb 26 2022 17:09:09 GMT+0100 (CET),The main experiment item,yes,0,0,C:/Users/rrics/Documents/!!ResearchBMECOGSCI/gnet,0,0,0,prototype4.png,no,mono,no,18,no,black,no,no,768,1146,3.5.6,legacy,xpyriment,osweb,1.3.13,0,right,down,right,,13490,20548,13490,,2,legacy,794,1440,24,900,24,0,25,1440,1645891785402,1024,2,48000,-16,experiment,prototype4.png,0,even,MacIntel,125,132911,129894,125,125,270397,271903,265412,134456,265412,125,,,,,,visual_patterns,0,0,0,yes,1366
undefined,undefined,undefined,undefined,white,no,Mozilla,Netscape,"5.0 (Macintosh; Intel Mac OS X 10_15_7) AppleWebKit/605.1.15 (KHTML, like Gecko) Version/15.3 Safari/605.1.15",xpyriment,legacy,legacy,0,uniform,0,0,0,0,24,24,24,0,0,19,19,19,19,19,0,19,0,,,,,,0,,26-01-22,26-01-22,17:09:09,Sat Feb 26 2022 17:09:09 GMT+0100 (CET),The main experiment item,yes,0,0,C:/Users/rrics/Documents/!!ResearchBMECOGSCI/gnet,0,0,0,prototype4.png,no,mono,no,18,no,black,no,no,768,1146,3.5.6,legacy,xpyriment,osweb,1.3.13,0,right,down,right,,13490,20548,13490,,2,legacy,794,1440,24,900,24,0,25,1440,1645891785402,1024,2,48000,-16,experiment,p3sarrsha1.png,0,even,MacIntel,125,132911,129894,125,125,276919,278436,271933,134456,271932,125,,,,,,visual_patterns,0,0,0,yes,1366
undefined,undefined,undefined,undefined,white,no,Mozilla,Netscape,"5.0 (Macintosh; Intel Mac OS X 10_15_7) AppleWebKit/605.1.15 (KHTML, like Gecko) Version/15.3 Safari/605.1.15",xpyriment,legacy,legacy,0,uniform,0,0,0,0,24,24,24,0,0,20,20,20,20,20,0,20,0,,,,,,0,,26-01-22,26-01-22,17:09:09,Sat Feb 26 2022 17:09:09 GMT+0100 (CET),The main experiment item,yes,0,0,C:/Users/rrics/Documents/!!ResearchBMECOGSCI/gnet,0,0,0,prototype4.png,no,mono,no,18,no,black,no,no,768,1146,3.5.6,legacy,xpyriment,osweb,1.3.13,0,right,down,right,,13490,20548,13490,,2,legacy,794,1440,24,900,24,0,25,1440,1645891785402,1024,2,48000,-16,experiment,prototype2.png,0,even,MacIntel,125,132911,129894,125,125,283447,284953,278462,134456,278462,125,,,,,,visual_patterns,0,0,0,yes,1366
undefined,undefined,undefined,undefined,white,no,Mozilla,Netscape,"5.0 (Macintosh; Intel Mac OS X 10_15_7) AppleWebKit/605.1.15 (KHTML, like Gecko) Version/15.3 Safari/605.1.15",xpyriment,legacy,legacy,0,uniform,0,0,0,0,24,24,24,0,0,21,21,21,21,21,0,21,0,,,,,,0,,26-01-22,26-01-22,17:09:09,Sat Feb 26 2022 17:09:09 GMT+0100 (CET),The main experiment item,yes,0,0,C:/Users/rrics/Documents/!!ResearchBMECOGSCI/gnet,0,0,0,prototype4.png,no,mono,no,18,no,black,no,no,768,1146,3.5.6,legacy,xpyriment,osweb,1.3.13,0,right,down,right,,13490,20548,13490,,2,legacy,794,1440,24,900,24,0,25,1440,1645891785402,1024,2,48000,-16,experiment,p4sarrcol2.png,0,even,MacIntel,125,132911,129894,125,125,289966,291471,284985,134456,284985,125,,,,,,visual_patterns,0,0,0,yes,1366
undefined,undefined,undefined,undefined,white,no,Mozilla,Netscape,"5.0 (Macintosh; Intel Mac OS X 10_15_7) AppleWebKit/605.1.15 (KHTML, like Gecko) Version/15.3 Safari/605.1.15",xpyriment,legacy,legacy,0,uniform,0,0,0,0,24,24,24,0,0,22,22,22,22,22,0,22,0,,,,,,0,,26-01-22,26-01-22,17:09:09,Sat Feb 26 2022 17:09:09 GMT+0100 (CET),The main experiment item,yes,0,0,C:/Users/rrics/Documents/!!ResearchBMECOGSCI/gnet,0,0,0,prototype4.png,no,mono,no,18,no,black,no,no,768,1146,3.5.6,legacy,xpyriment,osweb,1.3.13,0,right,down,right,,13490,20548,13490,,2,legacy,794,1440,24,900,24,0,25,1440,1645891785402,1024,2,48000,-16,experiment,p5sarrshacol1.png,0,even,MacIntel,125,132911,129894,125,125,296488,298004,291501,134456,291501,125,,,,,,visual_patterns,0,0,0,yes,1366
undefined,undefined,undefined,undefined,white,no,Mozilla,Netscape,"5.0 (Macintosh; Intel Mac OS X 10_15_7) AppleWebKit/605.1.15 (KHTML, like Gecko) Version/15.3 Safari/605.1.15",xpyriment,legacy,legacy,0,uniform,0,0,0,0,24,24,24,0,0,23,23,23,23,23,0,23,0,,,,,,0,,26-01-22,26-01-22,17:09:09,Sat Feb 26 2022 17:09:09 GMT+0100 (CET),The main experiment item,yes,0,0,C:/Users/rrics/Documents/!!ResearchBMECOGSCI/gnet,0,0,0,prototype4.png,no,mono,no,18,no,black,no,no,768,1146,3.5.6,legacy,xpyriment,osweb,1.3.13,0,right,down,right,,13490,20548,13490,,2,legacy,794,1440,24,900,24,0,25,1440,1645891785402,1024,2,48000,-16,experiment,prototype2.png,0,even,MacIntel,125,132911,129894,125,125,303013,304521,298030,134456,298030,125,,,,,,visual_patterns,0,0,0,yes,1366
undefined,undefined,undefined,undefined,white,no,Mozilla,Netscape,"5.0 (Macintosh; Intel Mac OS X 10_15_7) AppleWebKit/605.1.15 (KHTML, like Gecko) Version/15.3 Safari/605.1.15",xpyriment,legacy,legacy,0,uniform,0,0,0,0,24,24,24,0,0,24,24,24,24,24,0,24,0,,,,,,0,,26-01-22,26-01-22,17:09:09,Sat Feb 26 2022 17:09:09 GMT+0100 (CET),The main experiment item,yes,0,0,C:/Users/rrics/Documents/!!ResearchBMECOGSCI/gnet,0,0,0,prototype4.png,no,mono,no,18,no,black,no,no,768,1146,3.5.6,legacy,xpyriment,osweb,1.3.13,0,right,down,right,,13490,20548,13490,,2,legacy,794,1440,24,900,24,0,25,1440,1645891785402,1024,2,48000,-16,experiment,p4sarrsha2.png,0,even,MacIntel,125,132911,129894,125,125,309534,311038,304554,134456,304554,125,,,,,,visual_patterns,0,0,0,yes,1366
undefined,undefined,undefined,undefined,white,no,Mozilla,Netscape,"5.0 (Macintosh; Intel Mac OS X 10_15_7) AppleWebKit/605.1.15 (KHTML, like Gecko) Version/15.3 Safari/605.1.15",xpyriment,legacy,legacy,0,uniform,0,0,0,0,24,24,24,0,0,25,25,25,25,25,0,25,0,,,,,,0,,26-01-22,26-01-22,17:09:09,Sat Feb 26 2022 17:09:09 GMT+0100 (CET),The main experiment item,yes,0,0,C:/Users/rrics/Documents/!!ResearchBMECOGSCI/gnet,0,0,0,prototype4.png,no,mono,no,18,no,black,no,no,768,1146,3.5.6,legacy,xpyriment,osweb,1.3.13,0,right,down,right,,13490,20548,13490,,2,legacy,794,1440,24,900,24,0,25,1440,1645891785402,1024,2,48000,-16,experiment,p9sarr1.png,0,even,MacIntel,125,132911,129894,125,125,316052,317556,311066,134456,311066,125,,,,,,visual_patterns,0,0,0,yes,1366
undefined,undefined,undefined,undefined,white,no,Mozilla,Netscape,"5.0 (Macintosh; Intel Mac OS X 10_15_7) AppleWebKit/605.1.15 (KHTML, like Gecko) Version/15.3 Safari/605.1.15",xpyriment,legacy,legacy,0,uniform,0,0,0,0,24,24,24,0,0,26,26,26,26,26,0,26,0,,,,,,0,,26-01-22,26-01-22,17:09:09,Sat Feb 26 2022 17:09:09 GMT+0100 (CET),The main experiment item,yes,0,0,C:/Users/rrics/Documents/!!ResearchBMECOGSCI/gnet,0,0,0,prototype4.png,no,mono,no,18,no,black,no,no,768,1146,3.5.6,legacy,xpyriment,osweb,1.3.13,0,right,down,right,,13490,20548,13490,,2,legacy,794,1440,24,900,24,0,25,1440,1645891785402,1024,2,48000,-16,experiment,prototype1.png,0,even,MacIntel,125,132911,129894,125,125,322568,324073,317582,134456,317582,125,,,,,,visual_patterns,0,0,0,yes,1366
undefined,undefined,undefined,undefined,white,no,Mozilla,Netscape,"5.0 (Macintosh; Intel Mac OS X 10_15_7) AppleWebKit/605.1.15 (KHTML, like Gecko) Version/15.3 Safari/605.1.15",xpyriment,legacy,legacy,0,uniform,0,0,0,0,24,24,24,0,0,27,27,27,27,27,0,27,0,,,,,,0,,26-01-22,26-01-22,17:09:09,Sat Feb 26 2022 17:09:09 GMT+0100 (CET),The main experiment item,yes,0,0,C:/Users/rrics/Documents/!!ResearchBMECOGSCI/gnet,0,0,0,prototype4.png,no,mono,no,18,no,black,no,no,768,1146,3.5.6,legacy,xpyriment,osweb,1.3.13,0,right,down,right,,13490,20548,13490,,2,legacy,794,1440,24,900,24,0,25,1440,1645891785402,1024,2,48000,-16,experiment,p4sarrcol1.png,0,even,MacIntel,125,132911,129894,125,125,329091,330607,324106,134456,324106,125,,,,,,visual_patterns,0,0,0,yes,1366
undefined,undefined,undefined,undefined,white,no,Mozilla,Netscape,"5.0 (Macintosh; Intel Mac OS X 10_15_7) AppleWebKit/605.1.15 (KHTML, like Gecko) Version/15.3 Safari/605.1.15",xpyriment,legacy,legacy,0,uniform,0,0,0,0,24,24,24,0,0,28,28,28,28,28,0,28,0,,,,,,0,,26-01-22,26-01-22,17:09:09,Sat Feb 26 2022 17:09:09 GMT+0100 (CET),The main experiment item,yes,0,0,C:/Users/rrics/Documents/!!ResearchBMECOGSCI/gnet,0,0,0,prototype4.png,no,mono,no,18,no,black,no,no,768,1146,3.5.6,legacy,xpyriment,osweb,1.3.13,0,right,down,right,,13490,20548,13490,,2,legacy,794,1440,24,900,24,0,25,1440,1645891785402,1024,2,48000,-16,experiment,prototype4.png,0,even,MacIntel,125,132911,129894,125,125,335616,337123,330634,134456,330634,125,,,,,,visual_patterns,0,0,0,yes,1366
undefined,undefined,undefined,undefined,white,no,Mozilla,Netscape,"5.0 (Macintosh; Intel Mac OS X 10_15_7) AppleWebKit/605.1.15 (KHTML, like Gecko) Version/15.3 Safari/605.1.15",xpyriment,legacy,legacy,0,uniform,0,0,0,0,24,24,24,0,0,29,29,29,29,29,0,29,0,,,,,,0,,26-01-22,26-01-22,17:09:09,Sat Feb 26 2022 17:09:09 GMT+0100 (CET),The main experiment item,yes,0,0,C:/Users/rrics/Documents/!!ResearchBMECOGSCI/gnet,0,0,0,prototype4.png,no,mono,no,18,no,black,no,no,768,1146,3.5.6,legacy,xpyriment,osweb,1.3.13,0,right,down,right,,13490,20548,13490,,2,legacy,794,1440,24,900,24,0,25,1440,1645891785402,1024,2,48000,-16,experiment,prototype5.png,0,even,MacIntel,125,132911,129894,125,125,342136,343641,337152,134456,337152,125,,,,,,visual_patterns,0,0,0,yes,1366
undefined,undefined,undefined,undefined,white,no,Mozilla,Netscape,"5.0 (Macintosh; Intel Mac OS X 10_15_7) AppleWebKit/605.1.15 (KHTML, like Gecko) Version/15.3 Safari/605.1.15",xpyriment,legacy,legacy,0,uniform,0,0,0,0,24,24,24,0,0,30,30,30,30,30,0,30,0,,,,,,0,,26-01-22,26-01-22,17:09:09,Sat Feb 26 2022 17:09:09 GMT+0100 (CET),The main experiment item,yes,0,0,C:/Users/rrics/Documents/!!ResearchBMECOGSCI/gnet,0,0,0,prototype4.png,no,mono,no,18,no,black,no,no,768,1146,3.5.6,legacy,xpyriment,osweb,1.3.13,0,right,down,right,,13490,20548,13490,,2,legacy,794,1440,24,900,24,0,25,1440,1645891785402,1024,2,48000,-16,experiment,p5sarrcol2.png,0,even,MacIntel,125,132911,129894,125,125,348661,350175,343675,134456,343675,125,,,,,,visual_patterns,0,0,0,yes,1366
undefined,undefined,undefined,undefined,white,no,Mozilla,Netscape,"5.0 (Macintosh; Intel Mac OS X 10_15_7) AppleWebKit/605.1.15 (KHTML, like Gecko) Version/15.3 Safari/605.1.15",xpyriment,legacy,legacy,0,uniform,0,0,0,0,24,24,24,0,0,31,31,31,31,31,0,31,0,,,,,,0,,26-01-22,26-01-22,17:09:09,Sat Feb 26 2022 17:09:09 GMT+0100 (CET),The main experiment item,yes,0,0,C:/Users/rrics/Documents/!!ResearchBMECOGSCI/gnet,0,0,0,prototype4.png,no,mono,no,18,no,black,no,no,768,1146,3.5.6,legacy,xpyriment,osweb,1.3.13,0,right,down,right,,13490,20548,13490,,2,legacy,794,1440,24,900,24,0,25,1440,1645891785402,1024,2,48000,-16,experiment,p2sarrsha2.png,0,even,MacIntel,125,132911,129894,125,125,355188,356692,350203,134456,350203,125,,,,,,visual_patterns,0,0,0,yes,1366
undefined,undefined,undefined,undefined,white,no,Mozilla,Netscape,"5.0 (Macintosh; Intel Mac OS X 10_15_7) AppleWebKit/605.1.15 (KHTML, like Gecko) Version/15.3 Safari/605.1.15",xpyriment,legacy,legacy,0,uniform,0,0,0,0,24,24,24,0,0,32,32,32,32,32,0,32,0,,,,,,0,,26-01-22,26-01-22,17:09:09,Sat Feb 26 2022 17:09:09 GMT+0100 (CET),The main experiment item,yes,0,0,C:/Users/rrics/Documents/!!ResearchBMECOGSCI/gnet,0,0,0,prototype4.png,no,mono,no,18,no,black,no,no,768,1146,3.5.6,legacy,xpyriment,osweb,1.3.13,0,right,down,right,,13490,20548,13490,,2,legacy,794,1440,24,900,24,0,25,1440,1645891785402,1024,2,48000,-16,experiment,p5sarr1.png,0,even,MacIntel,125,132911,129894,125,125,361710,363225,356727,134456,356726,125,,,,,,visual_patterns,0,0,0,yes,1366
undefined,undefined,undefined,undefined,white,no,Mozilla,Netscape,"5.0 (Macintosh; Intel Mac OS X 10_15_7) AppleWebKit/605.1.15 (KHTML, like Gecko) Version/15.3 Safari/605.1.15",xpyriment,legacy,legacy,0,uniform,0,0,0,0,24,24,24,0,0,33,33,33,33,33,0,33,0,,,,,,0,,26-01-22,26-01-22,17:09:09,Sat Feb 26 2022 17:09:09 GMT+0100 (CET),The main experiment item,yes,0,0,C:/Users/rrics/Documents/!!ResearchBMECOGSCI/gnet,0,0,0,prototype4.png,no,mono,no,18,no,black,no,no,768,1146,3.5.6,legacy,xpyriment,osweb,1.3.13,0,right,down,right,,13490,20548,13490,,2,legacy,794,1440,24,900,24,0,25,1440,1645891785402,1024,2,48000,-16,experiment,p3sarrshacol1.png,0,even,MacIntel,125,132911,129894,125,125,368240,369743,363256,134456,363256,125,,,,,,visual_patterns,0,0,0,yes,1366
undefined,undefined,undefined,undefined,white,no,Mozilla,Netscape,"5.0 (Macintosh; Intel Mac OS X 10_15_7) AppleWebKit/605.1.15 (KHTML, like Gecko) Version/15.3 Safari/605.1.15",xpyriment,legacy,legacy,0,uniform,0,0,0,0,24,24,24,0,0,34,34,34,34,34,0,34,0,,,,,,0,,26-01-22,26-01-22,17:09:09,Sat Feb 26 2022 17:09:09 GMT+0100 (CET),The main experiment item,yes,0,0,C:/Users/rrics/Documents/!!ResearchBMECOGSCI/gnet,0,0,0,prototype4.png,no,mono,no,18,no,black,no,no,768,1146,3.5.6,legacy,xpyriment,osweb,1.3.13,0,right,down,right,,13490,20548,13490,,2,legacy,794,1440,24,900,24,0,25,1440,1645891785402,1024,2,48000,-16,experiment,prototype1.png,0,even,MacIntel,125,132911,129894,125,125,374752,376260,369768,134456,369768,125,,,,,,visual_patterns,0,0,0,yes,1366
undefined,undefined,undefined,undefined,white,no,Mozilla,Netscape,"5.0 (Macintosh; Intel Mac OS X 10_15_7) AppleWebKit/605.1.15 (KHTML, like Gecko) Version/15.3 Safari/605.1.15",xpyriment,legacy,legacy,0,uniform,0,0,0,0,24,24,24,0,0,35,35,35,35,35,0,35,0,,,,,,0,,26-01-22,26-01-22,17:09:09,Sat Feb 26 2022 17:09:09 GMT+0100 (CET),The main experiment item,yes,0,0,C:/Users/rrics/Documents/!!ResearchBMECOGSCI/gnet,0,0,0,prototype4.png,no,mono,no,18,no,black,no,no,768,1146,3.5.6,legacy,xpyriment,osweb,1.3.13,0,right,down,right,,13490,20548,13490,,2,legacy,794,1440,24,900,24,0,25,1440,1645891785402,1024,2,48000,-16,experiment,p4sarrshacol1.png,0,even,MacIntel,125,132911,129894,125,125,381275,382777,376291,134456,376291,125,,,,,,visual_patterns,0,0,0,yes,1366
undefined,undefined,undefined,undefined,white,no,Mozilla,Netscape,"5.0 (Macintosh; Intel Mac OS X 10_15_7) AppleWebKit/605.1.15 (KHTML, like Gecko) Version/15.3 Safari/605.1.15",xpyriment,legacy,legacy,0,uniform,0,0,0,0,24,24,24,0,0,36,36,36,36,36,0,36,0,,,,,,0,,26-01-22,26-01-22,17:09:09,Sat Feb 26 2022 17:09:09 GMT+0100 (CET),The main experiment item,yes,0,0,C:/Users/rrics/Documents/!!ResearchBMECOGSCI/gnet,0,0,0,prototype4.png,no,mono,no,18,no,black,no,no,768,1146,3.5.6,legacy,xpyriment,osweb,1.3.13,0,right,down,right,,13490,20548,13490,,2,legacy,794,1440,24,900,24,0,25,1440,1645891785402,1024,2,48000,-16,experiment,prototype3.png,0,even,MacIntel,125,132911,129894,125,125,387789,389294,382804,134456,382803,125,,,,,,visual_patterns,0,0,0,yes,1366
undefined,undefined,undefined,undefined,white,no,Mozilla,Netscape,"5.0 (Macintosh; Intel Mac OS X 10_15_7) AppleWebKit/605.1.15 (KHTML, like Gecko) Version/15.3 Safari/605.1.15",xpyriment,legacy,legacy,0,uniform,0,0,0,0,24,24,24,0,0,37,37,37,37,37,0,37,0,,,,,,0,,26-01-22,26-01-22,17:09:09,Sat Feb 26 2022 17:09:09 GMT+0100 (CET),The main experiment item,yes,0,0,C:/Users/rrics/Documents/!!ResearchBMECOGSCI/gnet,0,0,0,prototype4.png,no,mono,no,18,no,black,no,no,768,1146,3.5.6,legacy,xpyriment,osweb,1.3.13,0,right,down,right,,13490,20548,13490,,2,legacy,794,1440,24,900,24,0,25,1440,1645891785402,1024,2,48000,-16,experiment,prototype3.png,0,even,MacIntel,125,132911,129894,125,125,394303,395811,389319,134456,389319,125,,,,,,visual_patterns,0,0,0,yes,1366
undefined,undefined,undefined,undefined,white,no,Mozilla,Netscape,"5.0 (Macintosh; Intel Mac OS X 10_15_7) AppleWebKit/605.1.15 (KHTML, like Gecko) Version/15.3 Safari/605.1.15",xpyriment,legacy,legacy,0,uniform,0,0,0,0,24,24,24,0,0,38,38,38,38,38,0,38,0,,,,,,0,,26-01-22,26-01-22,17:09:09,Sat Feb 26 2022 17:09:09 GMT+0100 (CET),The main experiment item,yes,0,0,C:/Users/rrics/Documents/!!ResearchBMECOGSCI/gnet,0,0,0,prototype4.png,no,mono,no,18,no,black,no,no,768,1146,3.5.6,legacy,xpyriment,osweb,1.3.13,0,right,down,right,,13490,20548,13490,,2,legacy,794,1440,24,900,24,0,25,1440,1645891785402,1024,2,48000,-16,experiment,p7sarr1.png,0,even,MacIntel,125,132911,129894,125,125,400827,402328,395840,134456,395840,125,,,,,,visual_patterns,0,0,0,yes,1366
undefined,undefined,undefined,undefined,white,no,Mozilla,Netscape,"5.0 (Macintosh; Intel Mac OS X 10_15_7) AppleWebKit/605.1.15 (KHTML, like Gecko) Version/15.3 Safari/605.1.15",xpyriment,legacy,legacy,0,uniform,0,0,0,0,24,24,24,0,0,39,39,39,39,39,0,39,0,,,,,,0,,26-01-22,26-01-22,17:09:09,Sat Feb 26 2022 17:09:09 GMT+0100 (CET),The main experiment item,yes,0,0,C:/Users/rrics/Documents/!!ResearchBMECOGSCI/gnet,0,0,0,prototype4.png,no,mono,no,18,no,black,no,no,768,1146,3.5.6,legacy,xpyriment,osweb,1.3.13,0,right,down,right,,13490,20548,13490,,2,legacy,794,1440,24,900,24,0,25,1440,1645891785402,1024,2,48000,-16,experiment,p1sarrsha1.png,0,even,MacIntel,125,132911,129894,125,125,407347,408862,402360,134456,402359,125,,,,,,visual_patterns,0,0,0,yes,1366
undefined,undefined,undefined,undefined,white,no,Mozilla,Netscape,"5.0 (Macintosh; Intel Mac OS X 10_15_7) AppleWebKit/605.1.15 (KHTML, like Gecko) Version/15.3 Safari/605.1.15",xpyriment,legacy,legacy,0,uniform,0,0,0,0,24,24,24,0,0,40,40,40,40,40,0,40,0,,,,,,0,,26-01-22,26-01-22,17:09:09,Sat Feb 26 2022 17:09:09 GMT+0100 (CET),The main experiment item,yes,0,0,C:/Users/rrics/Documents/!!ResearchBMECOGSCI/gnet,0,0,0,prototype4.png,no,mono,no,18,no,black,no,no,768,1146,3.5.6,legacy,xpyriment,osweb,1.3.13,0,right,down,right,,13490,20548,13490,,2,legacy,794,1440,24,900,24,0,25,1440,1645891785402,1024,2,48000,-16,experiment,prototype5.png,0,even,MacIntel,125,132911,129894,125,125,413874,415379,408888,134456,408888,125,,,,,,visual_patterns,0,0,0,yes,1366
undefined,undefined,undefined,undefined,white,no,Mozilla,Netscape,"5.0 (Macintosh; Intel Mac OS X 10_15_7) AppleWebKit/605.1.15 (KHTML, like Gecko) Version/15.3 Safari/605.1.15",xpyriment,legacy,legacy,0,uniform,0,0,0,0,24,24,24,0,0,41,41,41,41,41,0,41,0,,,,,,0,,26-01-22,26-01-22,17:09:09,Sat Feb 26 2022 17:09:09 GMT+0100 (CET),The main experiment item,yes,0,0,C:/Users/rrics/Documents/!!ResearchBMECOGSCI/gnet,0,0,0,prototype4.png,no,mono,no,18,no,black,no,no,768,1146,3.5.6,legacy,xpyriment,osweb,1.3.13,0,right,down,right,,13490,20548,13490,,2,legacy,794,1440,24,900,24,0,25,1440,1645891785402,1024,2,48000,-16,experiment,p3sarrshacol2.png,0,even,MacIntel,125,132911,129894,125,125,420395,421896,415412,134456,415412,125,,,,,,visual_patterns,0,0,0,yes,1366
undefined,undefined,undefined,undefined,white,no,Mozilla,Netscape,"5.0 (Macintosh; Intel Mac OS X 10_15_7) AppleWebKit/605.1.15 (KHTML, like Gecko) Version/15.3 Safari/605.1.15",xpyriment,legacy,legacy,0,uniform,0,0,0,0,24,24,24,0,0,42,42,42,42,42,0,42,0,,,,,,0,,26-01-22,26-01-22,17:09:09,Sat Feb 26 2022 17:09:09 GMT+0100 (CET),The main experiment item,yes,0,0,C:/Users/rrics/Documents/!!ResearchBMECOGSCI/gnet,0,0,0,prototype4.png,no,mono,no,18,no,black,no,no,768,1146,3.5.6,legacy,xpyriment,osweb,1.3.13,0,right,down,right,,13490,20548,13490,,2,legacy,794,1440,24,900,24,0,25,1440,1645891785402,1024,2,48000,-16,experiment,p3sarrcol2.png,0,even,MacIntel,125,132911,129894,125,125,426913,428429,421927,134456,421927,125,,,,,,visual_patterns,0,0,0,yes,1366
undefined,undefined,undefined,undefined,white,no,Mozilla,Netscape,"5.0 (Macintosh; Intel Mac OS X 10_15_7) AppleWebKit/605.1.15 (KHTML, like Gecko) Version/15.3 Safari/605.1.15",xpyriment,legacy,legacy,0,uniform,0,0,0,0,24,24,24,0,0,43,43,43,43,43,0,43,0,,,,,,0,,26-01-22,26-01-22,17:09:09,Sat Feb 26 2022 17:09:09 GMT+0100 (CET),The main experiment item,yes,0,0,C:/Users/rrics/Documents/!!ResearchBMECOGSCI/gnet,0,0,0,prototype4.png,no,mono,no,18,no,black,no,no,768,1146,3.5.6,legacy,xpyriment,osweb,1.3.13,0,right,down,right,,13490,20548,13490,,2,legacy,794,1440,24,900,24,0,25,1440,1645891785402,1024,2,48000,-16,experiment,p3sarr2.png,0,even,MacIntel,125,132911,129894,125,125,433445,434947,428459,134456,428458,125,,,,,,visual_patterns,0,0,0,yes,1366
undefined,undefined,undefined,undefined,white,no,Mozilla,Netscape,"5.0 (Macintosh; Intel Mac OS X 10_15_7) AppleWebKit/605.1.15 (KHTML, like Gecko) Version/15.3 Safari/605.1.15",xpyriment,legacy,legacy,0,uniform,0,0,0,0,24,24,24,0,0,44,44,44,44,44,0,44,0,,,,,,0,,26-01-22,26-01-22,17:09:09,Sat Feb 26 2022 17:09:09 GMT+0100 (CET),The main experiment item,yes,0,0,C:/Users/rrics/Documents/!!ResearchBMECOGSCI/gnet,0,0,0,prototype4.png,no,mono,no,18,no,black,no,no,768,1146,3.5.6,legacy,xpyriment,osweb,1.3.13,0,right,down,right,,13490,20548,13490,,2,legacy,794,1440,24,900,24,0,25,1440,1645891785402,1024,2,48000,-16,experiment,p2sarrsha1.png,0,even,MacIntel,125,132911,129894,125,125,439962,441464,434975,134456,434975,125,,,,,,visual_patterns,0,0,0,yes,1366
undefined,undefined,undefined,undefined,white,no,Mozilla,Netscape,"5.0 (Macintosh; Intel Mac OS X 10_15_7) AppleWebKit/605.1.15 (KHTML, like Gecko) Version/15.3 Safari/605.1.15",xpyriment,legacy,legacy,0,uniform,0,0,0,0,24,24,24,0,0,45,45,45,45,45,0,45,0,,,,,,0,,26-01-22,26-01-22,17:09:09,Sat Feb 26 2022 17:09:09 GMT+0100 (CET),The main experiment item,yes,0,0,C:/Users/rrics/Documents/!!ResearchBMECOGSCI/gnet,0,0,0,prototype4.png,no,mono,no,18,no,black,no,no,768,1146,3.5.6,legacy,xpyriment,osweb,1.3.13,0,right,down,right,,13490,20548,13490,,2,legacy,794,1440,24,900,24,0,25,1440,1645891785402,1024,2,48000,-16,experiment,p4sarrsha1.png,0,even,MacIntel,125,132911,129894,125,125,446481,447998,441495,134456,441495,125,,,,,,visual_patterns,0,0,0,yes,1366
undefined,undefined,undefined,undefined,white,no,Mozilla,Netscape,"5.0 (Macintosh; Intel Mac OS X 10_15_7) AppleWebKit/605.1.15 (KHTML, like Gecko) Version/15.3 Safari/605.1.15",xpyriment,legacy,legacy,0,uniform,0,0,0,0,24,24,24,0,0,46,46,46,46,46,0,46,0,,,,,,0,,26-01-22,26-01-22,17:09:09,Sat Feb 26 2022 17:09:09 GMT+0100 (CET),The main experiment item,yes,0,0,C:/Users/rrics/Documents/!!ResearchBMECOGSCI/gnet,0,0,0,prototype4.png,no,mono,no,18,no,black,no,no,768,1146,3.5.6,legacy,xpyriment,osweb,1.3.13,0,right,down,right,,13490,20548,13490,,2,legacy,794,1440,24,900,24,0,25,1440,1645891785402,1024,2,48000,-16,experiment,p1sarrcol1.png,0,even,MacIntel,125,132911,129894,125,125,453016,454532,448032,134456,448032,125,,,,,,visual_patterns,0,0,0,yes,1366
undefined,undefined,undefined,undefined,white,no,Mozilla,Netscape,"5.0 (Macintosh; Intel Mac OS X 10_15_7) AppleWebKit/605.1.15 (KHTML, like Gecko) Version/15.3 Safari/605.1.15",xpyriment,legacy,legacy,0,uniform,0,0,0,0,24,24,24,0,0,47,47,47,47,47,0,47,0,,,,,,0,,26-01-22,26-01-22,17:09:09,Sat Feb 26 2022 17:09:09 GMT+0100 (CET),The main experiment item,yes,0,0,C:/Users/rrics/Documents/!!ResearchBMECOGSCI/gnet,0,0,0,prototype4.png,no,mono,no,18,no,black,no,no,768,1146,3.5.6,legacy,xpyriment,osweb,1.3.13,0,right,down,right,,13490,20548,13490,,2,legacy,794,1440,24,900,24,0,25,1440,1645891785402,1024,2,48000,-16,experiment,p1sarrsha2.png,0,even,MacIntel,125,132911,129894,125,125,459548,461066,454562,134456,454562,125,,,,,,visual_patterns,0,0,0,yes,1366
undefined,undefined,undefined,undefined,white,no,Mozilla,Netscape,"5.0 (Macintosh; Intel Mac OS X 10_15_7) AppleWebKit/605.1.15 (KHTML, like Gecko) Version/15.3 Safari/605.1.15",xpyriment,legacy,legacy,0,uniform,0,0,0,0,24,24,24,0,0,48,48,48,48,48,0,48,0,,,,,,0,,26-01-22,26-01-22,17:09:09,Sat Feb 26 2022 17:09:09 GMT+0100 (CET),The main experiment item,yes,0,0,C:/Users/rrics/Documents/!!ResearchBMECOGSCI/gnet,0,0,0,prototype4.png,no,mono,no,18,no,black,no,no,768,1146,3.5.6,legacy,xpyriment,osweb,1.3.13,0,right,down,right,,13490,20548,13490,,2,legacy,794,1440,24,900,24,0,25,1440,1645891785402,1024,2,48000,-16,experiment,p7sarr2.png,0,even,MacIntel,125,132911,129894,125,125,466086,467599,461100,134456,461100,125,,,,,,visual_patterns,0,0,0,yes,1366
undefined,undefined,undefined,undefined,white,no,Mozilla,Netscape,"5.0 (Macintosh; Intel Mac OS X 10_15_7) AppleWebKit/605.1.15 (KHTML, like Gecko) Version/15.3 Safari/605.1.15",xpyriment,legacy,legacy,0,uniform,0,0,0,0,24,24,24,0,0,49,49,49,49,49,0,49,0,,,,,,0,,26-01-22,26-01-22,17:09:09,Sat Feb 26 2022 17:09:09 GMT+0100 (CET),The main experiment item,yes,0,0,C:/Users/rrics/Documents/!!ResearchBMECOGSCI/gnet,0,0,0,prototype4.png,no,mono,no,18,no,black,no,no,768,1146,3.5.6,legacy,xpyriment,osweb,1.3.13,0,right,down,right,,13490,20548,13490,,2,legacy,794,1440,24,900,24,0,25,1440,1645891785402,1024,2,48000,-16,experiment,p4sarr1.png,0,even,MacIntel,125,132911,129894,125,125,472612,474116,467627,134456,467627,125,,,,,,visual_patterns,0,0,0,yes,1366
undefined,undefined,undefined,undefined,white,no,Mozilla,Netscape,"5.0 (Macintosh; Intel Mac OS X 10_15_7) AppleWebKit/605.1.15 (KHTML, like Gecko) Version/15.3 Safari/605.1.15",xpyriment,legacy,legacy,0,uniform,0,0,0,0,24,24,24,0,0,50,50,50,50,50,0,50,0,,,,,,0,,26-01-22,26-01-22,17:09:09,Sat Feb 26 2022 17:09:09 GMT+0100 (CET),The main experiment item,yes,0,0,C:/Users/rrics/Documents/!!ResearchBMECOGSCI/gnet,0,0,0,prototype4.png,no,mono,no,18,no,black,no,no,768,1146,3.5.6,legacy,xpyriment,osweb,1.3.13,0,right,down,right,,13490,20548,13490,,2,legacy,794,1440,24,900,24,0,25,1440,1645891785402,1024,2,48000,-16,experiment,p10sarr1.png,0,even,MacIntel,125,132911,129894,125,125,479131,480633,474149,134456,474149,125,,,,,,visual_patterns,0,0,0,yes,1366
undefined,undefined,undefined,undefined,white,no,Mozilla,Netscape,"5.0 (Macintosh; Intel Mac OS X 10_15_7) AppleWebKit/605.1.15 (KHTML, like Gecko) Version/15.3 Safari/605.1.15",xpyriment,legacy,legacy,0,uniform,0,0,0,0,24,24,24,0,0,51,51,51,51,51,0,51,0,,,,,,0,,26-01-22,26-01-22,17:09:09,Sat Feb 26 2022 17:09:09 GMT+0100 (CET),The main experiment item,yes,0,0,C:/Users/rrics/Documents/!!ResearchBMECOGSCI/gnet,0,0,0,prototype4.png,no,mono,no,18,no,black,no,no,768,1146,3.5.6,legacy,xpyriment,osweb,1.3.13,0,right,down,right,,13490,20548,13490,,2,legacy,794,1440,24,900,24,0,25,1440,1645891785402,1024,2,48000,-16,experiment,prototype3.png,0,even,MacIntel,125,132911,129894,125,125,485645,487151,480661,134456,480661,125,,,,,,visual_patterns,0,0,0,yes,1366
undefined,undefined,undefined,undefined,white,no,Mozilla,Netscape,"5.0 (Macintosh; Intel Mac OS X 10_15_7) AppleWebKit/605.1.15 (KHTML, like Gecko) Version/15.3 Safari/605.1.15",xpyriment,legacy,legacy,0,uniform,0,0,0,0,24,24,24,0,0,52,52,52,52,52,0,52,0,,,,,,0,,26-01-22,26-01-22,17:09:09,Sat Feb 26 2022 17:09:09 GMT+0100 (CET),The main experiment item,yes,0,0,C:/Users/rrics/Documents/!!ResearchBMECOGSCI/gnet,0,0,0,prototype4.png,no,mono,no,18,no,black,no,no,768,1146,3.5.6,legacy,xpyriment,osweb,1.3.13,0,right,down,right,,13490,20548,13490,,2,legacy,794,1440,24,900,24,0,25,1440,1645891785402,1024,2,48000,-16,experiment,p1sarr1.png,0,even,MacIntel,125,132911,129894,125,125,492165,493668,487182,134456,487182,125,,,,,,visual_patterns,0,0,0,yes,1366
undefined,undefined,undefined,undefined,white,no,Mozilla,Netscape,"5.0 (Macintosh; Intel Mac OS X 10_15_7) AppleWebKit/605.1.15 (KHTML, like Gecko) Version/15.3 Safari/605.1.15",xpyriment,legacy,legacy,0,uniform,0,0,0,0,24,24,24,0,0,53,53,53,53,53,0,53,0,,,,,,0,,26-01-22,26-01-22,17:09:09,Sat Feb 26 2022 17:09:09 GMT+0100 (CET),The main experiment item,yes,0,0,C:/Users/rrics/Documents/!!ResearchBMECOGSCI/gnet,0,0,0,prototype4.png,no,mono,no,18,no,black,no,no,768,1146,3.5.6,legacy,xpyriment,osweb,1.3.13,0,right,down,right,,13490,20548,13490,,2,legacy,794,1440,24,900,24,0,25,1440,1645891785402,1024,2,48000,-16,experiment,p1sarrcol2.png,0,even,MacIntel,125,132911,129894,125,125,498685,500201,493698,134456,493698,125,,,,,,visual_patterns,0,0,0,yes,1366
undefined,undefined,undefined,undefined,white,no,Mozilla,Netscape,"5.0 (Macintosh; Intel Mac OS X 10_15_7) AppleWebKit/605.1.15 (KHTML, like Gecko) Version/15.3 Safari/605.1.15",xpyriment,legacy,legacy,0,uniform,0,0,0,0,24,24,24,0,0,54,54,54,54,54,0,54,0,,,,,,0,,26-01-22,26-01-22,17:09:09,Sat Feb 26 2022 17:09:09 GMT+0100 (CET),The main experiment item,yes,0,0,C:/Users/rrics/Documents/!!ResearchBMECOGSCI/gnet,0,0,0,prototype4.png,no,mono,no,18,no,black,no,no,768,1146,3.5.6,legacy,xpyriment,osweb,1.3.13,0,right,down,right,,13490,20548,13490,,2,legacy,794,1440,24,900,24,0,25,1440,1645891785402,1024,2,48000,-16,experiment,p2sarrcol2.png,0,even,MacIntel,125,132911,129894,125,125,505217,506718,500232,134456,500232,125,,,,,,visual_patterns,0,0,0,yes,1366
undefined,undefined,undefined,undefined,white,no,Mozilla,Netscape,"5.0 (Macintosh; Intel Mac OS X 10_15_7) AppleWebKit/605.1.15 (KHTML, like Gecko) Version/15.3 Safari/605.1.15",xpyriment,legacy,legacy,0,uniform,0,0,0,0,24,24,24,0,0,55,55,55,55,55,0,55,0,,,,,,0,,26-01-22,26-01-22,17:09:09,Sat Feb 26 2022 17:09:09 GMT+0100 (CET),The main experiment item,yes,0,0,C:/Users/rrics/Documents/!!ResearchBMECOGSCI/gnet,0,0,0,prototype4.png,no,mono,no,18,no,black,no,no,768,1146,3.5.6,legacy,xpyriment,osweb,1.3.13,0,right,down,right,,13490,20548,13490,,2,legacy,794,1440,24,900,24,0,25,1440,1645891785402,1024,2,48000,-16,experiment,prototype4.png,0,even,MacIntel,125,132911,129894,125,125,511729,513237,506745,134456,506745,125,,,,,,visual_patterns,0,0,0,yes,1366
undefined,undefined,undefined,undefined,white,no,Mozilla,Netscape,"5.0 (Macintosh; Intel Mac OS X 10_15_7) AppleWebKit/605.1.15 (KHTML, like Gecko) Version/15.3 Safari/605.1.15",xpyriment,legacy,legacy,0,uniform,0,0,0,0,24,24,24,0,0,56,56,56,56,56,0,56,0,,,,,,0,,26-01-22,26-01-22,17:09:09,Sat Feb 26 2022 17:09:09 GMT+0100 (CET),The main experiment item,yes,0,0,C:/Users/rrics/Documents/!!ResearchBMECOGSCI/gnet,0,0,0,prototype4.png,no,mono,no,18,no,black,no,no,768,1146,3.5.6,legacy,xpyriment,osweb,1.3.13,0,right,down,right,,13490,20548,13490,,2,legacy,794,1440,24,900,24,0,25,1440,1645891785402,1024,2,48000,-16,experiment,p2sarrshacol1.png,0,even,MacIntel,125,132911,129894,125,125,518251,519753,513267,134456,513267,125,,,,,,visual_patterns,0,0,0,yes,1366
undefined,undefined,undefined,undefined,white,no,Mozilla,Netscape,"5.0 (Macintosh; Intel Mac OS X 10_15_7) AppleWebKit/605.1.15 (KHTML, like Gecko) Version/15.3 Safari/605.1.15",xpyriment,legacy,legacy,0,uniform,0,0,0,0,24,24,24,0,0,57,57,57,57,57,0,57,0,,,,,,0,,26-01-22,26-01-22,17:09:09,Sat Feb 26 2022 17:09:09 GMT+0100 (CET),The main experiment item,yes,0,0,C:/Users/rrics/Documents/!!ResearchBMECOGSCI/gnet,0,0,0,prototype4.png,no,mono,no,18,no,black,no,no,768,1146,3.5.6,legacy,xpyriment,osweb,1.3.13,0,right,down,right,,13490,20548,13490,,2,legacy,794,1440,24,900,24,0,25,1440,1645891785402,1024,2,48000,-16,experiment,prototype5.png,0,even,MacIntel,125,132911,129894,125,125,524763,526270,519780,134456,519779,125,,,,,,visual_patterns,0,0,0,yes,1366
undefined,undefined,undefined,undefined,white,no,Mozilla,Netscape,"5.0 (Macintosh; Intel Mac OS X 10_15_7) AppleWebKit/605.1.15 (KHTML, like Gecko) Version/15.3 Safari/605.1.15",xpyriment,legacy,legacy,0,uniform,0,0,0,0,24,24,24,0,0,58,58,58,58,58,0,58,0,,,,,,0,,26-01-22,26-01-22,17:09:09,Sat Feb 26 2022 17:09:09 GMT+0100 (CET),The main experiment item,yes,0,0,C:/Users/rrics/Documents/!!ResearchBMECOGSCI/gnet,0,0,0,prototype4.png,no,mono,no,18,no,black,no,no,768,1146,3.5.6,legacy,xpyriment,osweb,1.3.13,0,right,down,right,,13490,20548,13490,,2,legacy,794,1440,24,900,24,0,25,1440,1645891785402,1024,2,48000,-16,experiment,prototype2.png,0,even,MacIntel,125,132911,129894,125,125,531282,532787,526296,134456,526296,125,,,,,,visual_patterns,0,0,0,yes,1366
undefined,undefined,undefined,undefined,white,no,Mozilla,Netscape,"5.0 (Macintosh; Intel Mac OS X 10_15_7) AppleWebKit/605.1.15 (KHTML, like Gecko) Version/15.3 Safari/605.1.15",xpyriment,legacy,legacy,0,uniform,0,0,0,0,24,24,24,0,0,59,59,59,59,59,0,59,0,,,,,,0,,26-01-22,26-01-22,17:09:09,Sat Feb 26 2022 17:09:09 GMT+0100 (CET),The main experiment item,yes,0,0,C:/Users/rrics/Documents/!!ResearchBMECOGSCI/gnet,0,0,0,prototype4.png,no,mono,no,18,no,black,no,no,768,1146,3.5.6,legacy,xpyriment,osweb,1.3.13,0,right,down,right,,13490,20548,13490,,2,legacy,794,1440,24,900,24,0,25,1440,1645891785402,1024,2,48000,-16,experiment,prototype5.png,0,even,MacIntel,125,132911,129894,125,125,537794,539303,532813,134456,532813,125,,,,,,visual_patterns,0,0,0,yes,1366
undefined,undefined,undefined,undefined,white,no,Mozilla,Netscape,"5.0 (Macintosh; Intel Mac OS X 10_15_7) AppleWebKit/605.1.15 (KHTML, like Gecko) Version/15.3 Safari/605.1.15",xpyriment,legacy,legacy,0,uniform,0,0,0,0,24,24,24,0,0,60,60,60,60,60,0,60,0,,,,,,0,,26-01-22,26-01-22,17:09:09,Sat Feb 26 2022 17:09:09 GMT+0100 (CET),The main experiment item,yes,0,0,C:/Users/rrics/Documents/!!ResearchBMECOGSCI/gnet,0,0,0,prototype4.png,no,mono,no,18,no,black,no,no,768,1146,3.5.6,legacy,xpyriment,osweb,1.3.13,0,right,down,right,,13490,20548,13490,,2,legacy,794,1440,24,900,24,0,25,1440,1645891785402,1024,2,48000,-16,experiment,p1sarrshacol2.png,0,even,MacIntel,125,132911,129894,125,125,544318,545821,539334,134456,539334,125,,,,,,visual_patterns,0,0,0,yes,1366
undefined,undefined,undefined,undefined,white,no,Mozilla,Netscape,"5.0 (Macintosh; Intel Mac OS X 10_15_7) AppleWebKit/605.1.15 (KHTML, like Gecko) Version/15.3 Safari/605.1.15",xpyriment,legacy,legacy,0,uniform,0,0,0,0,24,24,24,0,0,61,61,61,61,61,0,61,0,,,,,,0,,26-01-22,26-01-22,17:09:09,Sat Feb 26 2022 17:09:09 GMT+0100 (CET),The main experiment item,yes,0,0,C:/Users/rrics/Documents/!!ResearchBMECOGSCI/gnet,0,0,0,prototype4.png,no,mono,no,18,no,black,no,no,768,1146,3.5.6,legacy,xpyriment,osweb,1.3.13,0,right,down,right,,13490,20548,13490,,2,legacy,794,1440,24,900,24,0,25,1440,1645891785402,1024,2,48000,-16,experiment,p2sarrcol1.png,0,even,MacIntel,125,132911,129894,125,125,550834,552338,545856,134456,545856,125,,,,,,visual_patterns,0,0,0,yes,1366
undefined,undefined,undefined,undefined,white,no,Mozilla,Netscape,"5.0 (Macintosh; Intel Mac OS X 10_15_7) AppleWebKit/605.1.15 (KHTML, like Gecko) Version/15.3 Safari/605.1.15",xpyriment,legacy,legacy,0,uniform,0,0,0,0,24,24,24,0,0,62,62,62,62,62,0,62,0,,,,,,0,,26-01-22,26-01-22,17:09:09,Sat Feb 26 2022 17:09:09 GMT+0100 (CET),The main experiment item,yes,0,0,C:/Users/rrics/Documents/!!ResearchBMECOGSCI/gnet,0,0,0,prototype4.png,no,mono,no,18,no,black,no,no,768,1146,3.5.6,legacy,xpyriment,osweb,1.3.13,0,right,down,right,,13490,20548,13490,,2,legacy,794,1440,24,900,24,0,25,1440,1645891785402,1024,2,48000,-16,experiment,p5sarr2.png,0,even,MacIntel,125,132911,129894,125,125,557354,558871,552370,134456,552370,125,,,,,,visual_patterns,0,0,0,yes,1366
undefined,undefined,undefined,undefined,white,no,Mozilla,Netscape,"5.0 (Macintosh; Intel Mac OS X 10_15_7) AppleWebKit/605.1.15 (KHTML, like Gecko) Version/15.3 Safari/605.1.15",xpyriment,legacy,legacy,0,uniform,0,0,0,0,24,24,24,0,0,63,63,63,63,63,0,63,0,,,,,,0,,26-01-22,26-01-22,17:09:09,Sat Feb 26 2022 17:09:09 GMT+0100 (CET),The main experiment item,yes,0,0,C:/Users/rrics/Documents/!!ResearchBMECOGSCI/gnet,0,0,0,prototype4.png,no,mono,no,18,no,black,no,no,768,1146,3.5.6,legacy,xpyriment,osweb,1.3.13,0,right,down,right,,13490,20548,13490,,2,legacy,794,1440,24,900,24,0,25,1440,1645891785402,1024,2,48000,-16,experiment,p10sarr2.png,0,even,MacIntel,125,132911,129894,125,125,563886,565388,558902,134456,558901,125,,,,,,visual_patterns,0,0,0,yes,1366
undefined,undefined,undefined,undefined,white,no,Mozilla,Netscape,"5.0 (Macintosh; Intel Mac OS X 10_15_7) AppleWebKit/605.1.15 (KHTML, like Gecko) Version/15.3 Safari/605.1.15",xpyriment,legacy,legacy,0,uniform,0,0,0,0,24,24,24,0,0,64,64,64,64,64,0,64,0,,,,,,0,,26-01-22,26-01-22,17:09:09,Sat Feb 26 2022 17:09:09 GMT+0100 (CET),The main experiment item,yes,0,0,C:/Users/rrics/Documents/!!ResearchBMECOGSCI/gnet,0,0,0,prototype4.png,no,mono,no,18,no,black,no,no,768,1146,3.5.6,legacy,xpyriment,osweb,1.3.13,0,right,down,right,,13490,20548,13490,,2,legacy,794,1440,24,900,24,0,25,1440,1645891785402,1024,2,48000,-16,experiment,prototype1.png,0,even,MacIntel,125,132911,129894,125,125,570400,571906,565417,134456,565416,125,,,,,,visual_patterns,0,0,0,yes,1366
undefined,undefined,undefined,undefined,white,no,Mozilla,Netscape,"5.0 (Macintosh; Intel Mac OS X 10_15_7) AppleWebKit/605.1.15 (KHTML, like Gecko) Version/15.3 Safari/605.1.15",xpyriment,legacy,legacy,0,uniform,0,0,0,0,24,24,24,0,0,65,65,65,65,65,0,65,0,,,,,,0,,26-01-22,26-01-22,17:09:09,Sat Feb 26 2022 17:09:09 GMT+0100 (CET),The main experiment item,yes,0,0,C:/Users/rrics/Documents/!!ResearchBMECOGSCI/gnet,0,0,0,prototype4.png,no,mono,no,18,no,black,no,no,768,1146,3.5.6,legacy,xpyriment,osweb,1.3.13,0,right,down,right,,13490,20548,13490,,2,legacy,794,1440,24,900,24,0,25,1440,1645891785402,1024,2,48000,-16,experiment,prototype4.png,0,even,MacIntel,125,132911,129894,125,125,576915,578422,571933,134456,571932,125,,,,,,visual_patterns,0,0,0,yes,1366
undefined,undefined,undefined,undefined,white,no,Mozilla,Netscape,"5.0 (Macintosh; Intel Mac OS X 10_15_7) AppleWebKit/605.1.15 (KHTML, like Gecko) Version/15.3 Safari/605.1.15",xpyriment,legacy,legacy,0,uniform,0,0,0,0,24,24,24,0,0,66,66,66,66,66,0,66,0,,,,,,0,,26-01-22,26-01-22,17:09:09,Sat Feb 26 2022 17:09:09 GMT+0100 (CET),The main experiment item,yes,0,0,C:/Users/rrics/Documents/!!ResearchBMECOGSCI/gnet,0,0,0,prototype4.png,no,mono,no,18,no,black,no,no,768,1146,3.5.6,legacy,xpyriment,osweb,1.3.13,0,right,down,right,,13490,20548,13490,,2,legacy,794,1440,24,900,24,0,25,1440,1645891785402,1024,2,48000,-16,experiment,p2sarrshacol2.png,0,even,MacIntel,125,132911,129894,125,125,583437,584940,578455,134456,578455,125,,,,,,visual_patterns,0,0,0,yes,1366
undefined,undefined,undefined,undefined,white,no,Mozilla,Netscape,"5.0 (Macintosh; Intel Mac OS X 10_15_7) AppleWebKit/605.1.15 (KHTML, like Gecko) Version/15.3 Safari/605.1.15",xpyriment,legacy,legacy,0,uniform,0,0,0,0,24,24,24,0,0,67,67,67,67,67,0,67,0,,,,,,0,,26-01-22,26-01-22,17:09:09,Sat Feb 26 2022 17:09:09 GMT+0100 (CET),The main experiment item,yes,0,0,C:/Users/rrics/Documents/!!ResearchBMECOGSCI/gnet,0,0,0,prototype4.png,no,mono,no,18,no,black,no,no,768,1146,3.5.6,legacy,xpyriment,osweb,1.3.13,0,right,down,right,,13490,20548,13490,,2,legacy,794,1440,24,900,24,0,25,1440,1645891785402,1024,2,48000,-16,experiment,p1sarr2.png,0,even,MacIntel,125,132911,129894,125,125,589955,591457,584971,134456,584970,125,,,,,,visual_patterns,0,0,0,yes,1366
undefined,undefined,undefined,undefined,white,no,Mozilla,Netscape,"5.0 (Macintosh; Intel Mac OS X 10_15_7) AppleWebKit/605.1.15 (KHTML, like Gecko) Version/15.3 Safari/605.1.15",xpyriment,legacy,legacy,0,uniform,0,0,0,0,24,24,24,0,0,68,68,68,68,68,0,68,0,,,,,,0,,26-01-22,26-01-22,17:09:09,Sat Feb 26 2022 17:09:09 GMT+0100 (CET),The main experiment item,yes,0,0,C:/Users/rrics/Documents/!!ResearchBMECOGSCI/gnet,0,0,0,prototype4.png,no,mono,no,18,no,black,no,no,768,1146,3.5.6,legacy,xpyriment,osweb,1.3.13,0,right,down,right,,13490,20548,13490,,2,legacy,794,1440,24,900,24,0,25,1440,1645891785402,1024,2,48000,-16,experiment,p6sarr2.png,0,even,MacIntel,125,132911,129894,125,125,596471,597975,591486,134456,591486,125,,,,,,visual_patterns,0,0,0,yes,1366
undefined,undefined,undefined,undefined,white,no,Mozilla,Netscape,"5.0 (Macintosh; Intel Mac OS X 10_15_7) AppleWebKit/605.1.15 (KHTML, like Gecko) Version/15.3 Safari/605.1.15",xpyriment,legacy,legacy,0,uniform,0,0,0,0,24,24,24,0,0,69,69,69,69,69,0,69,0,,,,,,0,,26-01-22,26-01-22,17:09:09,Sat Feb 26 2022 17:09:09 GMT+0100 (CET),The main experiment item,yes,0,0,C:/Users/rrics/Documents/!!ResearchBMECOGSCI/gnet,0,0,0,prototype4.png,no,mono,no,18,no,black,no,no,768,1146,3.5.6,legacy,xpyriment,osweb,1.3.13,0,right,down,right,,13490,20548,13490,,2,legacy,794,1440,24,900,24,0,25,1440,1645891785402,1024,2,48000,-16,experiment,prototype2.png,0,even,MacIntel,125,132911,129894,125,125,602985,604492,598002,134456,598001,125,,,,,,visual_patterns,0,0,0,yes,1366
undefined,undefined,undefined,undefined,white,no,Mozilla,Netscape,"5.0 (Macintosh; Intel Mac OS X 10_15_7) AppleWebKit/605.1.15 (KHTML, like Gecko) Version/15.3 Safari/605.1.15",xpyriment,legacy,legacy,0,uniform,0,0,0,0,24,24,24,0,0,70,70,70,70,70,0,70,0,,,,,,0,,26-01-22,26-01-22,17:09:09,Sat Feb 26 2022 17:09:09 GMT+0100 (CET),The main experiment item,yes,0,0,C:/Users/rrics/Documents/!!ResearchBMECOGSCI/gnet,0,0,0,prototype4.png,no,mono,no,18,no,black,no,no,768,1146,3.5.6,legacy,xpyriment,osweb,1.3.13,0,right,down,right,,13490,20548,13490,,2,legacy,794,1440,24,900,24,0,25,1440,1645891785402,1024,2,48000,-16,experiment,p1sarrshacol1.png,0,even,MacIntel,125,132911,129894,125,125,609506,611009,604522,134456,604521,125,,,,,,visual_patterns,0,0,0,yes,1366
undefined,undefined,undefined,undefined,white,no,Mozilla,Netscape,"5.0 (Macintosh; Intel Mac OS X 10_15_7) AppleWebKit/605.1.15 (KHTML, like Gecko) Version/15.3 Safari/605.1.15",xpyriment,legacy,legacy,0,uniform,0,0,0,0,24,24,24,0,0,71,71,71,71,71,0,71,0,,,,,,0,,26-01-22,26-01-22,17:09:09,Sat Feb 26 2022 17:09:09 GMT+0100 (CET),The main experiment item,yes,0,0,C:/Users/rrics/Documents/!!ResearchBMECOGSCI/gnet,0,0,0,prototype4.png,no,mono,no,18,no,black,no,no,768,1146,3.5.6,legacy,xpyriment,osweb,1.3.13,0,right,down,right,,13490,20548,13490,,2,legacy,794,1440,24,900,24,0,25,1440,1645891785402,1024,2,48000,-16,experiment,prototype1.png,0,even,MacIntel,125,132911,129894,125,125,616019,617525,611033,134456,611033,125,,,,,,visual_patterns,0,0,0,yes,1366
undefined,undefined,undefined,undefined,white,no,Mozilla,Netscape,"5.0 (Macintosh; Intel Mac OS X 10_15_7) AppleWebKit/605.1.15 (KHTML, like Gecko) Version/15.3 Safari/605.1.15",xpyriment,legacy,legacy,0,uniform,0,0,0,0,24,24,24,0,0,72,72,72,72,72,0,72,0,,,,,,0,,26-01-22,26-01-22,17:09:09,Sat Feb 26 2022 17:09:09 GMT+0100 (CET),The main experiment item,yes,0,0,C:/Users/rrics/Documents/!!ResearchBMECOGSCI/gnet,0,0,0,prototype4.png,no,mono,no,18,no,black,no,no,768,1146,3.5.6,legacy,xpyriment,osweb,1.3.13,0,right,down,right,,13490,20548,13490,,2,legacy,794,1440,24,900,24,0,25,1440,1645891785402,1024,2,48000,-16,experiment,prototype5.png,0,even,MacIntel,125,132911,129894,125,125,622536,624043,617555,134456,617554,125,,,,,,visual_patterns,0,0,0,yes,1366
undefined,undefined,undefined,undefined,white,no,Mozilla,Netscape,"5.0 (Macintosh; Intel Mac OS X 10_15_7) AppleWebKit/605.1.15 (KHTML, like Gecko) Version/15.3 Safari/605.1.15",xpyriment,legacy,legacy,0,uniform,0,0,0,0,24,24,24,0,0,73,73,73,73,73,0,73,0,,,,,,0,,26-01-22,26-01-22,17:09:09,Sat Feb 26 2022 17:09:09 GMT+0100 (CET),The main experiment item,yes,0,0,C:/Users/rrics/Documents/!!ResearchBMECOGSCI/gnet,0,0,0,prototype4.png,no,mono,no,18,no,black,no,no,768,1146,3.5.6,legacy,xpyriment,osweb,1.3.13,0,right,down,right,,13490,20548,13490,,2,legacy,794,1440,24,900,24,0,25,1440,1645891785402,1024,2,48000,-16,experiment,prototype3.png,0,even,MacIntel,125,132911,129894,125,125,629053,630560,624069,134456,624069,125,,,,,,visual_patterns,0,0,0,yes,1366
undefined,undefined,undefined,undefined,white,no,Mozilla,Netscape,"5.0 (Macintosh; Intel Mac OS X 10_15_7) AppleWebKit/605.1.15 (KHTML, like Gecko) Version/15.3 Safari/605.1.15",xpyriment,legacy,legacy,0,uniform,0,0,0,0,24,24,24,0,0,74,74,74,74,74,0,74,0,,,,,,0,,26-01-22,26-01-22,17:09:09,Sat Feb 26 2022 17:09:09 GMT+0100 (CET),The main experiment item,yes,0,0,C:/Users/rrics/Documents/!!ResearchBMECOGSCI/gnet,0,0,0,prototype4.png,no,mono,no,18,no,black,no,no,768,1146,3.5.6,legacy,xpyriment,osweb,1.3.13,0,right,down,right,,13490,20548,13490,,2,legacy,794,1440,24,900,24,0,25,1440,1645891785402,1024,2,48000,-16,experiment,prototype2.png,0,even,MacIntel,125,132911,129894,125,125,635571,637077,630585,134456,630585,125,,,,,,visual_patterns,0,0,0,yes,1366
undefined,undefined,undefined,undefined,white,no,Mozilla,Netscape,"5.0 (Macintosh; Intel Mac OS X 10_15_7) AppleWebKit/605.1.15 (KHTML, like Gecko) Version/15.3 Safari/605.1.15",xpyriment,legacy,legacy,0,uniform,0,0,0,0,24,24,24,0,0,74,74,74,74,74,0,74,0,0,0,0,0,0,0,0,26-01-22,26-01-22,17:09:09,Sat Feb 26 2022 17:09:09 GMT+0100 (CET),The main experiment item,yes,0,0,C:/Users/rrics/Documents/!!ResearchBMECOGSCI/gnet,0,0,0,prototype4.png,no,mono,no,18,no,black,no,no,768,1146,3.5.6,legacy,xpyriment,osweb,1.3.13,0,down,down,right,down,51434,20548,13490,51434,2,legacy,794,1440,24,900,24,0,25,1440,1645891785402,1024,2,48000,-16,experiment,p5sarrsha3.png,0,even,MacIntel,125,132911,129894,125,125,635571,637077,630585,134456,630585,125,691551,693065,688570,637096,688570,visual_patterns,0,0,0,yes,1366
undefined,undefined,undefined,undefined,white,no,Mozilla,Netscape,"5.0 (Macintosh; Intel Mac OS X 10_15_7) AppleWebKit/605.1.15 (KHTML, like Gecko) Version/15.3 Safari/605.1.15",xpyriment,legacy,legacy,0,uniform,0,0,0,0,24,24,24,0,0,74,74,74,74,74,0,74,0,1,1,1,1,1,0,1,26-01-22,26-01-22,17:09:09,Sat Feb 26 2022 17:09:09 GMT+0100 (CET),The main experiment item,yes,0,0,C:/Users/rrics/Documents/!!ResearchBMECOGSCI/gnet,0,0,0,prototype4.png,no,mono,no,18,no,black,no,no,768,1146,3.5.6,legacy,xpyriment,osweb,1.3.13,0,down,down,right,down,51434,20548,13490,51434,2,legacy,794,1440,24,900,24,0,25,1440,1645891785402,1024,2,48000,-16,experiment,p2sarrshacol1.png,0,even,MacIntel,125,132911,129894,125,125,635571,637077,630585,134456,630585,125,696082,697598,693097,637096,693096,visual_patterns,0,0,0,yes,1366
undefined,undefined,undefined,undefined,white,no,Mozilla,Netscape,"5.0 (Macintosh; Intel Mac OS X 10_15_7) AppleWebKit/605.1.15 (KHTML, like Gecko) Version/15.3 Safari/605.1.15",xpyriment,legacy,legacy,0,uniform,0,0,0,0,24,24,24,0,0,74,74,74,74,74,0,74,0,2,2,2,2,2,0,2,26-01-22,26-01-22,17:09:09,Sat Feb 26 2022 17:09:09 GMT+0100 (CET),The main experiment item,yes,0,0,C:/Users/rrics/Documents/!!ResearchBMECOGSCI/gnet,0,0,0,prototype4.png,no,mono,no,18,no,black,no,no,768,1146,3.5.6,legacy,xpyriment,osweb,1.3.13,0,down,down,right,down,51434,20548,13490,51434,2,legacy,794,1440,24,900,24,0,25,1440,1645891785402,1024,2,48000,-16,experiment,p4sarr4.png,0,even,MacIntel,125,132911,129894,125,125,635571,637077,630585,134456,630585,125,700621,702132,697635,637096,697635,visual_patterns,0,0,0,yes,1366
undefined,undefined,undefined,undefined,white,no,Mozilla,Netscape,"5.0 (Macintosh; Intel Mac OS X 10_15_7) AppleWebKit/605.1.15 (KHTML, like Gecko) Version/15.3 Safari/605.1.15",xpyriment,legacy,legacy,0,uniform,0,0,0,0,24,24,24,0,0,74,74,74,74,74,0,74,0,3,3,3,3,3,0,3,26-01-22,26-01-22,17:09:09,Sat Feb 26 2022 17:09:09 GMT+0100 (CET),The main experiment item,yes,0,0,C:/Users/rrics/Documents/!!ResearchBMECOGSCI/gnet,0,0,0,prototype4.png,no,mono,no,18,no,black,no,no,768,1146,3.5.6,legacy,xpyriment,osweb,1.3.13,0,down,down,right,down,51434,20548,13490,51434,2,legacy,794,1440,24,900,24,0,25,1440,1645891785402,1024,2,48000,-16,experiment,p5sarrsha2.png,0,even,MacIntel,125,132911,129894,125,125,635571,637077,630585,134456,630585,125,705150,706665,702164,637096,702164,visual_patterns,0,0,0,yes,1366
undefined,undefined,undefined,undefined,white,no,Mozilla,Netscape,"5.0 (Macintosh; Intel Mac OS X 10_15_7) AppleWebKit/605.1.15 (KHTML, like Gecko) Version/15.3 Safari/605.1.15",xpyriment,legacy,legacy,0,uniform,0,0,0,0,24,24,24,0,0,74,74,74,74,74,0,74,0,4,4,4,4,4,0,4,26-01-22,26-01-22,17:09:09,Sat Feb 26 2022 17:09:09 GMT+0100 (CET),The main experiment item,yes,0,0,C:/Users/rrics/Documents/!!ResearchBMECOGSCI/gnet,0,0,0,prototype4.png,no,mono,no,18,no,black,no,no,768,1146,3.5.6,legacy,xpyriment,osweb,1.3.13,0,down,down,right,down,51434,20548,13490,51434,2,legacy,794,1440,24,900,24,0,25,1440,1645891785402,1024,2,48000,-16,experiment,p7sarr2.png,0,even,MacIntel,125,132911,129894,125,125,635571,637077,630585,134456,630585,125,709691,711199,706705,637096,706705,visual_patterns,0,0,0,yes,1366
undefined,undefined,undefined,undefined,white,no,Mozilla,Netscape,"5.0 (Macintosh; Intel Mac OS X 10_15_7) AppleWebKit/605.1.15 (KHTML, like Gecko) Version/15.3 Safari/605.1.15",xpyriment,legacy,legacy,0,uniform,0,0,0,0,24,24,24,0,0,74,74,74,74,74,0,74,0,5,5,5,5,5,0,5,26-01-22,26-01-22,17:09:09,Sat Feb 26 2022 17:09:09 GMT+0100 (CET),The main experiment item,yes,0,0,C:/Users/rrics/Documents/!!ResearchBMECOGSCI/gnet,0,0,0,prototype4.png,no,mono,no,18,no,black,no,no,768,1146,3.5.6,legacy,xpyriment,osweb,1.3.13,0,down,down,right,down,51434,20548,13490,51434,2,legacy,794,1440,24,900,24,0,25,1440,1645891785402,1024,2,48000,-16,experiment,p1sarrsha4.png,0,even,MacIntel,125,132911,129894,125,125,635571,637077,630585,134456,630585,125,714222,715733,711236,637096,711235,visual_patterns,0,0,0,yes,1366
undefined,undefined,undefined,undefined,white,no,Mozilla,Netscape,"5.0 (Macintosh; Intel Mac OS X 10_15_7) AppleWebKit/605.1.15 (KHTML, like Gecko) Version/15.3 Safari/605.1.15",xpyriment,legacy,legacy,0,uniform,0,0,0,0,24,24,24,0,0,74,74,74,74,74,0,74,0,6,6,6,6,6,0,6,26-01-22,26-01-22,17:09:09,Sat Feb 26 2022 17:09:09 GMT+0100 (CET),The main experiment item,yes,0,0,C:/Users/rrics/Documents/!!ResearchBMECOGSCI/gnet,0,0,0,prototype4.png,no,mono,no,18,no,black,no,no,768,1146,3.5.6,legacy,xpyriment,osweb,1.3.13,0,down,down,right,down,51434,20548,13490,51434,2,legacy,794,1440,24,900,24,0,25,1440,1645891785402,1024,2,48000,-16,experiment,p3sarrcol2.png,0,even,MacIntel,125,132911,129894,125,125,635571,637077,630585,134456,630585,125,718750,720266,715766,637096,715766,visual_patterns,0,0,0,yes,1366
undefined,undefined,undefined,undefined,white,no,Mozilla,Netscape,"5.0 (Macintosh; Intel Mac OS X 10_15_7) AppleWebKit/605.1.15 (KHTML, like Gecko) Version/15.3 Safari/605.1.15",xpyriment,legacy,legacy,0,uniform,0,0,0,0,24,24,24,0,0,74,74,74,74,74,0,74,0,7,7,7,7,7,0,7,26-01-22,26-01-22,17:09:09,Sat Feb 26 2022 17:09:09 GMT+0100 (CET),The main experiment item,yes,0,0,C:/Users/rrics/Documents/!!ResearchBMECOGSCI/gnet,0,0,0,prototype4.png,no,mono,no,18,no,black,no,no,768,1146,3.5.6,legacy,xpyriment,osweb,1.3.13,0,down,down,right,down,51434,20548,13490,51434,2,legacy,794,1440,24,900,24,0,25,1440,1645891785402,1024,2,48000,-16,experiment,p3sarrcol3.png,0,even,MacIntel,125,132911,129894,125,125,635571,637077,630585,134456,630585,125,723287,724800,720302,637096,720302,visual_patterns,0,0,0,yes,1366
undefined,undefined,undefined,undefined,white,no,Mozilla,Netscape,"5.0 (Macintosh; Intel Mac OS X 10_15_7) AppleWebKit/605.1.15 (KHTML, like Gecko) Version/15.3 Safari/605.1.15",xpyriment,legacy,legacy,0,uniform,0,0,0,0,24,24,24,0,0,74,74,74,74,74,0,74,0,8,8,8,8,8,0,8,26-01-22,26-01-22,17:09:09,Sat Feb 26 2022 17:09:09 GMT+0100 (CET),The main experiment item,yes,0,0,C:/Users/rrics/Documents/!!ResearchBMECOGSCI/gnet,0,0,0,prototype4.png,no,mono,no,18,no,black,no,no,768,1146,3.5.6,legacy,xpyriment,osweb,1.3.13,0,down,down,right,down,51434,20548,13490,51434,2,legacy,794,1440,24,900,24,0,25,1440,1645891785402,1024,2,48000,-16,experiment,p1sarrsha1.png,0,even,MacIntel,125,132911,129894,125,125,635571,637077,630585,134456,630585,125,727813,729317,724833,637096,724833,visual_patterns,0,0,0,yes,1366
undefined,undefined,undefined,undefined,white,no,Mozilla,Netscape,"5.0 (Macintosh; Intel Mac OS X 10_15_7) AppleWebKit/605.1.15 (KHTML, like Gecko) Version/15.3 Safari/605.1.15",xpyriment,legacy,legacy,0,uniform,0,0,0,0,24,24,24,0,0,74,74,74,74,74,0,74,0,9,9,9,9,9,0,9,26-01-22,26-01-22,17:09:09,Sat Feb 26 2022 17:09:09 GMT+0100 (CET),The main experiment item,yes,0,0,C:/Users/rrics/Documents/!!ResearchBMECOGSCI/gnet,0,0,0,prototype4.png,no,mono,no,18,no,black,no,no,768,1146,3.5.6,legacy,xpyriment,osweb,1.3.13,0,down,down,right,down,51434,20548,13490,51434,2,legacy,794,1440,24,900,24,0,25,1440,1645891785402,1024,2,48000,-16,experiment,p4sarr1.png,0,even,MacIntel,125,132911,129894,125,125,635571,637077,630585,134456,630585,125,732341,733851,729355,637096,729355,visual_patterns,0,0,0,yes,1366
undefined,undefined,undefined,undefined,white,no,Mozilla,Netscape,"5.0 (Macintosh; Intel Mac OS X 10_15_7) AppleWebKit/605.1.15 (KHTML, like Gecko) Version/15.3 Safari/605.1.15",xpyriment,legacy,legacy,0,uniform,0,0,0,0,24,24,24,0,0,74,74,74,74,74,0,74,0,10,10,10,10,10,0,10,26-01-22,26-01-22,17:09:09,Sat Feb 26 2022 17:09:09 GMT+0100 (CET),The main experiment item,yes,0,0,C:/Users/rrics/Documents/!!ResearchBMECOGSCI/gnet,0,0,0,prototype4.png,no,mono,no,18,no,black,no,no,768,1146,3.5.6,legacy,xpyriment,osweb,1.3.13,0,down,down,right,down,51434,20548,13490,51434,2,legacy,794,1440,24,900,24,0,25,1440,1645891785402,1024,2,48000,-16,experiment,p9sarr2.png,0,even,MacIntel,125,132911,129894,125,125,635571,637077,630585,134456,630585,125,736868,738384,733884,637096,733883,visual_patterns,0,0,0,yes,1366
undefined,undefined,undefined,undefined,white,no,Mozilla,Netscape,"5.0 (Macintosh; Intel Mac OS X 10_15_7) AppleWebKit/605.1.15 (KHTML, like Gecko) Version/15.3 Safari/605.1.15",xpyriment,legacy,legacy,0,uniform,0,0,0,0,24,24,24,0,0,74,74,74,74,74,0,74,0,11,11,11,11,11,0,11,26-01-22,26-01-22,17:09:09,Sat Feb 26 2022 17:09:09 GMT+0100 (CET),The main experiment item,yes,0,0,C:/Users/rrics/Documents/!!ResearchBMECOGSCI/gnet,0,0,0,prototype4.png,no,mono,no,18,no,black,no,no,768,1146,3.5.6,legacy,xpyriment,osweb,1.3.13,0,down,down,right,down,51434,20548,13490,51434,2,legacy,794,1440,24,900,24,0,25,1440,1645891785402,1024,2,48000,-16,experiment,p1sarr2.png,0,even,MacIntel,125,132911,129894,125,125,635571,637077,630585,134456,630585,125,741398,742900,738418,637096,738418,visual_patterns,0,0,0,yes,1366
undefined,undefined,undefined,undefined,white,no,Mozilla,Netscape,"5.0 (Macintosh; Intel Mac OS X 10_15_7) AppleWebKit/605.1.15 (KHTML, like Gecko) Version/15.3 Safari/605.1.15",xpyriment,legacy,legacy,0,uniform,0,0,0,0,24,24,24,0,0,74,74,74,74,74,0,74,0,12,12,12,12,12,0,12,26-01-22,26-01-22,17:09:09,Sat Feb 26 2022 17:09:09 GMT+0100 (CET),The main experiment item,yes,0,0,C:/Users/rrics/Documents/!!ResearchBMECOGSCI/gnet,0,0,0,prototype4.png,no,mono,no,18,no,black,no,no,768,1146,3.5.6,legacy,xpyriment,osweb,1.3.13,0,down,down,right,down,51434,20548,13490,51434,2,legacy,794,1440,24,900,24,0,25,1440,1645891785402,1024,2,48000,-16,experiment,p3sarrcol4.png,0,even,MacIntel,125,132911,129894,125,125,635571,637077,630585,134456,630585,125,745916,747418,742933,637096,742933,visual_patterns,0,0,0,yes,1366
undefined,undefined,undefined,undefined,white,no,Mozilla,Netscape,"5.0 (Macintosh; Intel Mac OS X 10_15_7) AppleWebKit/605.1.15 (KHTML, like Gecko) Version/15.3 Safari/605.1.15",xpyriment,legacy,legacy,0,uniform,0,0,0,0,24,24,24,0,0,74,74,74,74,74,0,74,0,13,13,13,13,13,0,13,26-01-22,26-01-22,17:09:09,Sat Feb 26 2022 17:09:09 GMT+0100 (CET),The main experiment item,yes,0,0,C:/Users/rrics/Documents/!!ResearchBMECOGSCI/gnet,0,0,0,prototype4.png,no,mono,no,18,no,black,no,no,768,1146,3.5.6,legacy,xpyriment,osweb,1.3.13,0,down,down,right,down,51434,20548,13490,51434,2,legacy,794,1440,24,900,24,0,25,1440,1645891785402,1024,2,48000,-16,experiment,p2sarrshacol2.png,0,even,MacIntel,125,132911,129894,125,125,635571,637077,630585,134456,630585,125,750434,751935,747450,637096,747450,visual_patterns,0,0,0,yes,1366
undefined,undefined,undefined,undefined,white,no,Mozilla,Netscape,"5.0 (Macintosh; Intel Mac OS X 10_15_7) AppleWebKit/605.1.15 (KHTML, like Gecko) Version/15.3 Safari/605.1.15",xpyriment,legacy,legacy,0,uniform,0,0,0,0,24,24,24,0,0,74,74,74,74,74,0,74,0,14,14,14,14,14,0,14,26-01-22,26-01-22,17:09:09,Sat Feb 26 2022 17:09:09 GMT+0100 (CET),The main experiment item,yes,0,0,C:/Users/rrics/Documents/!!ResearchBMECOGSCI/gnet,0,0,0,prototype4.png,no,mono,no,18,no,black,no,no,768,1146,3.5.6,legacy,xpyriment,osweb,1.3.13,0,down,down,right,down,51434,20548,13490,51434,2,legacy,794,1440,24,900,24,0,25,1440,1645891785402,1024,2,48000,-16,experiment,p6sarr1.png,0,even,MacIntel,125,132911,129894,125,125,635571,637077,630585,134456,630585,125,754952,756469,751968,637096,751967,visual_patterns,0,0,0,yes,1366
undefined,undefined,undefined,undefined,white,no,Mozilla,Netscape,"5.0 (Macintosh; Intel Mac OS X 10_15_7) AppleWebKit/605.1.15 (KHTML, like Gecko) Version/15.3 Safari/605.1.15",xpyriment,legacy,legacy,0,uniform,0,0,0,0,24,24,24,0,0,74,74,74,74,74,0,74,0,15,15,15,15,15,0,15,26-01-22,26-01-22,17:09:09,Sat Feb 26 2022 17:09:09 GMT+0100 (CET),The main experiment item,yes,0,0,C:/Users/rrics/Documents/!!ResearchBMECOGSCI/gnet,0,0,0,prototype4.png,no,mono,no,18,no,black,no,no,768,1146,3.5.6,legacy,xpyriment,osweb,1.3.13,0,down,down,right,down,51434,20548,13490,51434,2,legacy,794,1440,24,900,24,0,25,1440,1645891785402,1024,2,48000,-16,experiment,p4sarrshacol3.png,0,even,MacIntel,125,132911,129894,125,125,635571,637077,630585,134456,630585,125,759491,761002,756506,637096,756506,visual_patterns,0,0,0,yes,1366
undefined,undefined,undefined,undefined,white,no,Mozilla,Netscape,"5.0 (Macintosh; Intel Mac OS X 10_15_7) AppleWebKit/605.1.15 (KHTML, like Gecko) Version/15.3 Safari/605.1.15",xpyriment,legacy,legacy,0,uniform,0,0,0,0,24,24,24,0,0,74,74,74,74,74,0,74,0,16,16,16,16,16,0,16,26-01-22,26-01-22,17:09:09,Sat Feb 26 2022 17:09:09 GMT+0100 (CET),The main experiment item,yes,0,0,C:/Users/rrics/Documents/!!ResearchBMECOGSCI/gnet,0,0,0,prototype4.png,no,mono,no,18,no,black,no,no,768,1146,3.5.6,legacy,xpyriment,osweb,1.3.13,0,down,down,right,down,51434,20548,13490,51434,2,legacy,794,1440,24,900,24,0,25,1440,1645891785402,1024,2,48000,-16,experiment,p4sarrshacol4.png,0,even,MacIntel,125,132911,129894,125,125,635571,637077,630585,134456,630585,125,764021,765536,761039,637096,761039,visual_patterns,0,0,0,yes,1366
undefined,undefined,undefined,undefined,white,no,Mozilla,Netscape,"5.0 (Macintosh; Intel Mac OS X 10_15_7) AppleWebKit/605.1.15 (KHTML, like Gecko) Version/15.3 Safari/605.1.15",xpyriment,legacy,legacy,0,uniform,0,0,0,0,24,24,24,0,0,74,74,74,74,74,0,74,0,17,17,17,17,17,0,17,26-01-22,26-01-22,17:09:09,Sat Feb 26 2022 17:09:09 GMT+0100 (CET),The main experiment item,yes,0,0,C:/Users/rrics/Documents/!!ResearchBMECOGSCI/gnet,0,0,0,prototype4.png,no,mono,no,18,no,black,no,no,768,1146,3.5.6,legacy,xpyriment,osweb,1.3.13,0,down,down,right,down,51434,20548,13490,51434,2,legacy,794,1440,24,900,24,0,25,1440,1645891785402,1024,2,48000,-16,experiment,p2sarrcol1.png,0,even,MacIntel,125,132911,129894,125,125,635571,637077,630585,134456,630585,125,768552,770053,765571,637096,765571,visual_patterns,0,0,0,yes,1366
undefined,undefined,undefined,undefined,white,no,Mozilla,Netscape,"5.0 (Macintosh; Intel Mac OS X 10_15_7) AppleWebKit/605.1.15 (KHTML, like Gecko) Version/15.3 Safari/605.1.15",xpyriment,legacy,legacy,0,uniform,0,0,0,0,24,24,24,0,0,74,74,74,74,74,0,74,0,18,18,18,18,18,0,18,26-01-22,26-01-22,17:09:09,Sat Feb 26 2022 17:09:09 GMT+0100 (CET),The main experiment item,yes,0,0,C:/Users/rrics/Documents/!!ResearchBMECOGSCI/gnet,0,0,0,prototype4.png,no,mono,no,18,no,black,no,no,768,1146,3.5.6,legacy,xpyriment,osweb,1.3.13,0,down,down,right,down,51434,20548,13490,51434,2,legacy,794,1440,24,900,24,0,25,1440,1645891785402,1024,2,48000,-16,experiment,p1sarr4.png,0,even,MacIntel,125,132911,129894,125,125,635571,637077,630585,134456,630585,125,773075,774586,770089,637096,770089,visual_patterns,0,0,0,yes,1366
undefined,undefined,undefined,undefined,white,no,Mozilla,Netscape,"5.0 (Macintosh; Intel Mac OS X 10_15_7) AppleWebKit/605.1.15 (KHTML, like Gecko) Version/15.3 Safari/605.1.15",xpyriment,legacy,legacy,0,uniform,0,0,0,0,24,24,24,0,0,74,74,74,74,74,0,74,0,19,19,19,19,19,0,19,26-01-22,26-01-22,17:09:09,Sat Feb 26 2022 17:09:09 GMT+0100 (CET),The main experiment item,yes,0,0,C:/Users/rrics/Documents/!!ResearchBMECOGSCI/gnet,0,0,0,prototype4.png,no,mono,no,18,no,black,no,no,768,1146,3.5.6,legacy,xpyriment,osweb,1.3.13,0,down,down,right,down,51434,20548,13490,51434,2,legacy,794,1440,24,900,24,0,25,1440,1645891785402,1024,2,48000,-16,experiment,p10sarr1.png,0,even,MacIntel,125,132911,129894,125,125,635571,637077,630585,134456,630585,125,777602,779104,774619,637096,774619,visual_patterns,0,0,0,yes,1366
undefined,undefined,undefined,undefined,white,no,Mozilla,Netscape,"5.0 (Macintosh; Intel Mac OS X 10_15_7) AppleWebKit/605.1.15 (KHTML, like Gecko) Version/15.3 Safari/605.1.15",xpyriment,legacy,legacy,0,uniform,0,0,0,0,24,24,24,0,0,74,74,74,74,74,0,74,0,20,20,20,20,20,0,20,26-01-22,26-01-22,17:09:09,Sat Feb 26 2022 17:09:09 GMT+0100 (CET),The main experiment item,yes,0,0,C:/Users/rrics/Documents/!!ResearchBMECOGSCI/gnet,0,0,0,prototype4.png,no,mono,no,18,no,black,no,no,768,1146,3.5.6,legacy,xpyriment,osweb,1.3.13,0,down,down,right,down,51434,20548,13490,51434,2,legacy,794,1440,24,900,24,0,25,1440,1645891785402,1024,2,48000,-16,experiment,p8sarr3.png,0,even,MacIntel,125,132911,129894,125,125,635571,637077,630585,134456,630585,125,782125,783637,779139,637096,779139,visual_patterns,0,0,0,yes,1366
undefined,undefined,undefined,undefined,white,no,Mozilla,Netscape,"5.0 (Macintosh; Intel Mac OS X 10_15_7) AppleWebKit/605.1.15 (KHTML, like Gecko) Version/15.3 Safari/605.1.15",xpyriment,legacy,legacy,0,uniform,0,0,0,0,24,24,24,0,0,74,74,74,74,74,0,74,0,21,21,21,21,21,0,21,26-01-22,26-01-22,17:09:09,Sat Feb 26 2022 17:09:09 GMT+0100 (CET),The main experiment item,yes,0,0,C:/Users/rrics/Documents/!!ResearchBMECOGSCI/gnet,0,0,0,prototype4.png,no,mono,no,18,no,black,no,no,768,1146,3.5.6,legacy,xpyriment,osweb,1.3.13,0,down,down,right,down,51434,20548,13490,51434,2,legacy,794,1440,24,900,24,0,25,1440,1645891785402,1024,2,48000,-16,experiment,p9sarr4.png,0,even,MacIntel,125,132911,129894,125,125,635571,637077,630585,134456,630585,125,786658,788171,783674,637096,783674,visual_patterns,0,0,0,yes,1366
undefined,undefined,undefined,undefined,white,no,Mozilla,Netscape,"5.0 (Macintosh; Intel Mac OS X 10_15_7) AppleWebKit/605.1.15 (KHTML, like Gecko) Version/15.3 Safari/605.1.15",xpyriment,legacy,legacy,0,uniform,0,0,0,0,24,24,24,0,0,74,74,74,74,74,0,74,0,22,22,22,22,22,0,22,26-01-22,26-01-22,17:09:09,Sat Feb 26 2022 17:09:09 GMT+0100 (CET),The main experiment item,yes,0,0,C:/Users/rrics/Documents/!!ResearchBMECOGSCI/gnet,0,0,0,prototype4.png,no,mono,no,18,no,black,no,no,768,1146,3.5.6,legacy,xpyriment,osweb,1.3.13,0,down,down,right,down,51434,20548,13490,51434,2,legacy,794,1440,24,900,24,0,25,1440,1645891785402,1024,2,48000,-16,experiment,p5sarrcol2.png,0,even,MacIntel,125,132911,129894,125,125,635571,637077,630585,134456,630585,125,791186,792688,788202,637096,788202,visual_patterns,0,0,0,yes,1366
undefined,undefined,undefined,undefined,white,no,Mozilla,Netscape,"5.0 (Macintosh; Intel Mac OS X 10_15_7) AppleWebKit/605.1.15 (KHTML, like Gecko) Version/15.3 Safari/605.1.15",xpyriment,legacy,legacy,0,uniform,0,0,0,0,24,24,24,0,0,74,74,74,74,74,0,74,0,23,23,23,23,23,0,23,26-01-22,26-01-22,17:09:09,Sat Feb 26 2022 17:09:09 GMT+0100 (CET),The main experiment item,yes,0,0,C:/Users/rrics/Documents/!!ResearchBMECOGSCI/gnet,0,0,0,prototype4.png,no,mono,no,18,no,black,no,no,768,1146,3.5.6,legacy,xpyriment,osweb,1.3.13,0,down,down,right,down,51434,20548,13490,51434,2,legacy,794,1440,24,900,24,0,25,1440,1645891785402,1024,2,48000,-16,experiment,p7sarr4.png,0,even,MacIntel,125,132911,129894,125,125,635571,637077,630585,134456,630585,125,795703,797205,792719,637096,792719,visual_patterns,0,0,0,yes,1366
undefined,undefined,undefined,undefined,white,no,Mozilla,Netscape,"5.0 (Macintosh; Intel Mac OS X 10_15_7) AppleWebKit/605.1.15 (KHTML, like Gecko) Version/15.3 Safari/605.1.15",xpyriment,legacy,legacy,0,uniform,0,0,0,0,24,24,24,0,0,74,74,74,74,74,0,74,0,24,24,24,24,24,0,24,26-01-22,26-01-22,17:09:09,Sat Feb 26 2022 17:09:09 GMT+0100 (CET),The main experiment item,yes,0,0,C:/Users/rrics/Documents/!!ResearchBMECOGSCI/gnet,0,0,0,prototype4.png,no,mono,no,18,no,black,no,no,768,1146,3.5.6,legacy,xpyriment,osweb,1.3.13,0,down,down,right,down,51434,20548,13490,51434,2,legacy,794,1440,24,900,24,0,25,1440,1645891785402,1024,2,48000,-16,experiment,p3sarrsha3.png,0,even,MacIntel,125,132911,129894,125,125,635571,637077,630585,134456,630585,125,800229,801739,797243,637096,797242,visual_patterns,0,0,0,yes,1366
undefined,undefined,undefined,undefined,white,no,Mozilla,Netscape,"5.0 (Macintosh; Intel Mac OS X 10_15_7) AppleWebKit/605.1.15 (KHTML, like Gecko) Version/15.3 Safari/605.1.15",xpyriment,legacy,legacy,0,uniform,0,0,0,0,24,24,24,0,0,74,74,74,74,74,0,74,0,25,25,25,25,25,0,25,26-01-22,26-01-22,17:09:09,Sat Feb 26 2022 17:09:09 GMT+0100 (CET),The main experiment item,yes,0,0,C:/Users/rrics/Documents/!!ResearchBMECOGSCI/gnet,0,0,0,prototype4.png,no,mono,no,18,no,black,no,no,768,1146,3.5.6,legacy,xpyriment,osweb,1.3.13,0,down,down,right,down,51434,20548,13490,51434,2,legacy,794,1440,24,900,24,0,25,1440,1645891785402,1024,2,48000,-16,experiment,p8sarr4.png,0,even,MacIntel,125,132911,129894,125,125,635571,637077,630585,134456,630585,125,804761,806272,801775,637096,801774,visual_patterns,0,0,0,yes,1366
undefined,undefined,undefined,undefined,white,no,Mozilla,Netscape,"5.0 (Macintosh; Intel Mac OS X 10_15_7) AppleWebKit/605.1.15 (KHTML, like Gecko) Version/15.3 Safari/605.1.15",xpyriment,legacy,legacy,0,uniform,0,0,0,0,24,24,24,0,0,74,74,74,74,74,0,74,0,26,26,26,26,26,0,26,26-01-22,26-01-22,17:09:09,Sat Feb 26 2022 17:09:09 GMT+0100 (CET),The main experiment item,yes,0,0,C:/Users/rrics/Documents/!!ResearchBMECOGSCI/gnet,0,0,0,prototype4.png,no,mono,no,18,no,black,no,no,768,1146,3.5.6,legacy,xpyriment,osweb,1.3.13,0,down,down,right,down,51434,20548,13490,51434,2,legacy,794,1440,24,900,24,0,25,1440,1645891785402,1024,2,48000,-16,experiment,p2sarrshacol4.png,0,even,MacIntel,125,132911,129894,125,125,635571,637077,630585,134456,630585,125,809292,810806,806310,637096,806310,visual_patterns,0,0,0,yes,1366
undefined,undefined,undefined,undefined,white,no,Mozilla,Netscape,"5.0 (Macintosh; Intel Mac OS X 10_15_7) AppleWebKit/605.1.15 (KHTML, like Gecko) Version/15.3 Safari/605.1.15",xpyriment,legacy,legacy,0,uniform,0,0,0,0,24,24,24,0,0,74,74,74,74,74,0,74,0,27,27,27,27,27,0,27,26-01-22,26-01-22,17:09:09,Sat Feb 26 2022 17:09:09 GMT+0100 (CET),The main experiment item,yes,0,0,C:/Users/rrics/Documents/!!ResearchBMECOGSCI/gnet,0,0,0,prototype4.png,no,mono,no,18,no,black,no,no,768,1146,3.5.6,legacy,xpyriment,osweb,1.3.13,0,down,down,right,down,51434,20548,13490,51434,2,legacy,794,1440,24,900,24,0,25,1440,1645891785402,1024,2,48000,-16,experiment,p4sarrshacol1.png,0,even,MacIntel,125,132911,129894,125,125,635571,637077,630585,134456,630585,125,813822,815323,810838,637096,810838,visual_patterns,0,0,0,yes,1366
undefined,undefined,undefined,undefined,white,no,Mozilla,Netscape,"5.0 (Macintosh; Intel Mac OS X 10_15_7) AppleWebKit/605.1.15 (KHTML, like Gecko) Version/15.3 Safari/605.1.15",xpyriment,legacy,legacy,0,uniform,0,0,0,0,24,24,24,0,0,74,74,74,74,74,0,74,0,28,28,28,28,28,0,28,26-01-22,26-01-22,17:09:09,Sat Feb 26 2022 17:09:09 GMT+0100 (CET),The main experiment item,yes,0,0,C:/Users/rrics/Documents/!!ResearchBMECOGSCI/gnet,0,0,0,prototype4.png,no,mono,no,18,no,black,no,no,768,1146,3.5.6,legacy,xpyriment,osweb,1.3.13,0,down,down,right,down,51434,20548,13490,51434,2,legacy,794,1440,24,900,24,0,25,1440,1645891785402,1024,2,48000,-16,experiment,p1sarrshacol3.png,0,even,MacIntel,125,132911,129894,125,125,635571,637077,630585,134456,630585,125,818345,819856,815360,637096,815360,visual_patterns,0,0,0,yes,1366
undefined,undefined,undefined,undefined,white,no,Mozilla,Netscape,"5.0 (Macintosh; Intel Mac OS X 10_15_7) AppleWebKit/605.1.15 (KHTML, like Gecko) Version/15.3 Safari/605.1.15",xpyriment,legacy,legacy,0,uniform,0,0,0,0,24,24,24,0,0,74,74,74,74,74,0,74,0,29,29,29,29,29,0,29,26-01-22,26-01-22,17:09:09,Sat Feb 26 2022 17:09:09 GMT+0100 (CET),The main experiment item,yes,0,0,C:/Users/rrics/Documents/!!ResearchBMECOGSCI/gnet,0,0,0,prototype4.png,no,mono,no,18,no,black,no,no,768,1146,3.5.6,legacy,xpyriment,osweb,1.3.13,0,down,down,right,down,51434,20548,13490,51434,2,legacy,794,1440,24,900,24,0,25,1440,1645891785402,1024,2,48000,-16,experiment,p2sarrsha1.png,0,even,MacIntel,125,132911,129894,125,125,635571,637077,630585,134456,630585,125,822874,824390,819889,637096,819889,visual_patterns,0,0,0,yes,1366
undefined,undefined,undefined,undefined,white,no,Mozilla,Netscape,"5.0 (Macintosh; Intel Mac OS X 10_15_7) AppleWebKit/605.1.15 (KHTML, like Gecko) Version/15.3 Safari/605.1.15",xpyriment,legacy,legacy,0,uniform,0,0,0,0,24,24,24,0,0,74,74,74,74,74,0,74,0,30,30,30,30,30,0,30,26-01-22,26-01-22,17:09:09,Sat Feb 26 2022 17:09:09 GMT+0100 (CET),The main experiment item,yes,0,0,C:/Users/rrics/Documents/!!ResearchBMECOGSCI/gnet,0,0,0,prototype4.png,no,mono,no,18,no,black,no,no,768,1146,3.5.6,legacy,xpyriment,osweb,1.3.13,0,down,down,right,down,51434,20548,13490,51434,2,legacy,794,1440,24,900,24,0,25,1440,1645891785402,1024,2,48000,-16,experiment,p3sarr2.png,0,even,MacIntel,125,132911,129894,125,125,635571,637077,630585,134456,630585,125,827402,828907,824422,637096,824422,visual_patterns,0,0,0,yes,1366
undefined,undefined,undefined,undefined,white,no,Mozilla,Netscape,"5.0 (Macintosh; Intel Mac OS X 10_15_7) AppleWebKit/605.1.15 (KHTML, like Gecko) Version/15.3 Safari/605.1.15",xpyriment,legacy,legacy,0,uniform,0,0,0,0,24,24,24,0,0,74,74,74,74,74,0,74,0,31,31,31,31,31,0,31,26-01-22,26-01-22,17:09:09,Sat Feb 26 2022 17:09:09 GMT+0100 (CET),The main experiment item,yes,0,0,C:/Users/rrics/Documents/!!ResearchBMECOGSCI/gnet,0,0,0,prototype4.png,no,mono,no,18,no,black,no,no,768,1146,3.5.6,legacy,xpyriment,osweb,1.3.13,0,down,down,right,down,51434,20548,13490,51434,2,legacy,794,1440,24,900,24,0,25,1440,1645891785402,1024,2,48000,-16,experiment,p3sarrshacol3.png,0,even,MacIntel,125,132911,129894,125,125,635571,637077,630585,134456,630585,125,831927,833441,828944,637096,828944,visual_patterns,0,0,0,yes,1366
undefined,undefined,undefined,undefined,white,no,Mozilla,Netscape,"5.0 (Macintosh; Intel Mac OS X 10_15_7) AppleWebKit/605.1.15 (KHTML, like Gecko) Version/15.3 Safari/605.1.15",xpyriment,legacy,legacy,0,uniform,0,0,0,0,24,24,24,0,0,74,74,74,74,74,0,74,0,32,32,32,32,32,0,32,26-01-22,26-01-22,17:09:09,Sat Feb 26 2022 17:09:09 GMT+0100 (CET),The main experiment item,yes,0,0,C:/Users/rrics/Documents/!!ResearchBMECOGSCI/gnet,0,0,0,prototype4.png,no,mono,no,18,no,black,no,no,768,1146,3.5.6,legacy,xpyriment,osweb,1.3.13,0,down,down,right,down,51434,20548,13490,51434,2,legacy,794,1440,24,900,24,0,25,1440,1645891785402,1024,2,48000,-16,experiment,p2sarrcol4.png,0,even,MacIntel,125,132911,129894,125,125,635571,637077,630585,134456,630585,125,836463,837974,833476,637096,833476,visual_patterns,0,0,0,yes,1366
undefined,undefined,undefined,undefined,white,no,Mozilla,Netscape,"5.0 (Macintosh; Intel Mac OS X 10_15_7) AppleWebKit/605.1.15 (KHTML, like Gecko) Version/15.3 Safari/605.1.15",xpyriment,legacy,legacy,0,uniform,0,0,0,0,24,24,24,0,0,74,74,74,74,74,0,74,0,33,33,33,33,33,0,33,26-01-22,26-01-22,17:09:09,Sat Feb 26 2022 17:09:09 GMT+0100 (CET),The main experiment item,yes,0,0,C:/Users/rrics/Documents/!!ResearchBMECOGSCI/gnet,0,0,0,prototype4.png,no,mono,no,18,no,black,no,no,768,1146,3.5.6,legacy,xpyriment,osweb,1.3.13,0,down,down,right,down,51434,20548,13490,51434,2,legacy,794,1440,24,900,24,0,25,1440,1645891785402,1024,2,48000,-16,experiment,p5sarrcol1.png,0,even,MacIntel,125,132911,129894,125,125,635571,637077,630585,134456,630585,125,840994,842508,838008,637096,838007,visual_patterns,0,0,0,yes,1366
undefined,undefined,undefined,undefined,white,no,Mozilla,Netscape,"5.0 (Macintosh; Intel Mac OS X 10_15_7) AppleWebKit/605.1.15 (KHTML, like Gecko) Version/15.3 Safari/605.1.15",xpyriment,legacy,legacy,0,uniform,0,0,0,0,24,24,24,0,0,74,74,74,74,74,0,74,0,34,34,34,34,34,0,34,26-01-22,26-01-22,17:09:09,Sat Feb 26 2022 17:09:09 GMT+0100 (CET),The main experiment item,yes,0,0,C:/Users/rrics/Documents/!!ResearchBMECOGSCI/gnet,0,0,0,prototype4.png,no,mono,no,18,no,black,no,no,768,1146,3.5.6,legacy,xpyriment,osweb,1.3.13,0,down,down,right,down,51434,20548,13490,51434,2,legacy,794,1440,24,900,24,0,25,1440,1645891785402,1024,2,48000,-16,experiment,p8sarr2.png,0,even,MacIntel,125,132911,129894,125,125,635571,637077,630585,134456,630585,125,845523,847025,842539,637096,842539,visual_patterns,0,0,0,yes,1366
undefined,undefined,undefined,undefined,white,no,Mozilla,Netscape,"5.0 (Macintosh; Intel Mac OS X 10_15_7) AppleWebKit/605.1.15 (KHTML, like Gecko) Version/15.3 Safari/605.1.15",xpyriment,legacy,legacy,0,uniform,0,0,0,0,24,24,24,0,0,74,74,74,74,74,0,74,0,35,35,35,35,35,0,35,26-01-22,26-01-22,17:09:09,Sat Feb 26 2022 17:09:09 GMT+0100 (CET),The main experiment item,yes,0,0,C:/Users/rrics/Documents/!!ResearchBMECOGSCI/gnet,0,0,0,prototype4.png,no,mono,no,18,no,black,no,no,768,1146,3.5.6,legacy,xpyriment,osweb,1.3.13,0,down,down,right,down,51434,20548,13490,51434,2,legacy,794,1440,24,900,24,0,25,1440,1645891785402,1024,2,48000,-16,experiment,p5sarr3.png,0,even,MacIntel,125,132911,129894,125,125,635571,637077,630585,134456,630585,125,850045,851559,847061,637096,847060,visual_patterns,0,0,0,yes,1366
undefined,undefined,undefined,undefined,white,no,Mozilla,Netscape,"5.0 (Macintosh; Intel Mac OS X 10_15_7) AppleWebKit/605.1.15 (KHTML, like Gecko) Version/15.3 Safari/605.1.15",xpyriment,legacy,legacy,0,uniform,0,0,0,0,24,24,24,0,0,74,74,74,74,74,0,74,0,36,36,36,36,36,0,36,26-01-22,26-01-22,17:09:09,Sat Feb 26 2022 17:09:09 GMT+0100 (CET),The main experiment item,yes,0,0,C:/Users/rrics/Documents/!!ResearchBMECOGSCI/gnet,0,0,0,prototype4.png,no,mono,no,18,no,black,no,no,768,1146,3.5.6,legacy,xpyriment,osweb,1.3.13,0,down,down,right,down,51434,20548,13490,51434,2,legacy,794,1440,24,900,24,0,25,1440,1645891785402,1024,2,48000,-16,experiment,p7sarr1.png,0,even,MacIntel,125,132911,129894,125,125,635571,637077,630585,134456,630585,125,854574,856075,851591,637096,851591,visual_patterns,0,0,0,yes,1366
undefined,undefined,undefined,undefined,white,no,Mozilla,Netscape,"5.0 (Macintosh; Intel Mac OS X 10_15_7) AppleWebKit/605.1.15 (KHTML, like Gecko) Version/15.3 Safari/605.1.15",xpyriment,legacy,legacy,0,uniform,0,0,0,0,24,24,24,0,0,74,74,74,74,74,0,74,0,37,37,37,37,37,0,37,26-01-22,26-01-22,17:09:09,Sat Feb 26 2022 17:09:09 GMT+0100 (CET),The main experiment item,yes,0,0,C:/Users/rrics/Documents/!!ResearchBMECOGSCI/gnet,0,0,0,prototype4.png,no,mono,no,18,no,black,no,no,768,1146,3.5.6,legacy,xpyriment,osweb,1.3.13,0,down,down,right,down,51434,20548,13490,51434,2,legacy,794,1440,24,900,24,0,25,1440,1645891785402,1024,2,48000,-16,experiment,p1sarrcol4.png,0,even,MacIntel,125,132911,129894,125,125,635571,637077,630585,134456,630585,125,859098,860609,856113,637096,856112,visual_patterns,0,0,0,yes,1366
undefined,undefined,undefined,undefined,white,no,Mozilla,Netscape,"5.0 (Macintosh; Intel Mac OS X 10_15_7) AppleWebKit/605.1.15 (KHTML, like Gecko) Version/15.3 Safari/605.1.15",xpyriment,legacy,legacy,0,uniform,0,0,0,0,24,24,24,0,0,74,74,74,74,74,0,74,0,38,38,38,38,38,0,38,26-01-22,26-01-22,17:09:09,Sat Feb 26 2022 17:09:09 GMT+0100 (CET),The main experiment item,yes,0,0,C:/Users/rrics/Documents/!!ResearchBMECOGSCI/gnet,0,0,0,prototype4.png,no,mono,no,18,no,black,no,no,768,1146,3.5.6,legacy,xpyriment,osweb,1.3.13,0,down,down,right,down,51434,20548,13490,51434,2,legacy,794,1440,24,900,24,0,25,1440,1645891785402,1024,2,48000,-16,experiment,p3sarrsha4.png,0,even,MacIntel,125,132911,129894,125,125,635571,637077,630585,134456,630585,125,863630,865142,860645,637096,860645,visual_patterns,0,0,0,yes,1366
undefined,undefined,undefined,undefined,white,no,Mozilla,Netscape,"5.0 (Macintosh; Intel Mac OS X 10_15_7) AppleWebKit/605.1.15 (KHTML, like Gecko) Version/15.3 Safari/605.1.15",xpyriment,legacy,legacy,0,uniform,0,0,0,0,24,24,24,0,0,74,74,74,74,74,0,74,0,39,39,39,39,39,0,39,26-01-22,26-01-22,17:09:09,Sat Feb 26 2022 17:09:09 GMT+0100 (CET),The main experiment item,yes,0,0,C:/Users/rrics/Documents/!!ResearchBMECOGSCI/gnet,0,0,0,prototype4.png,no,mono,no,18,no,black,no,no,768,1146,3.5.6,legacy,xpyriment,osweb,1.3.13,0,down,down,right,down,51434,20548,13490,51434,2,legacy,794,1440,24,900,24,0,25,1440,1645891785402,1024,2,48000,-16,experiment,p3sarr1.png,0,even,MacIntel,125,132911,129894,125,125,635571,637077,630585,134456,630585,125,868157,869659,865174,637096,865174,visual_patterns,0,0,0,yes,1366
undefined,undefined,undefined,undefined,white,no,Mozilla,Netscape,"5.0 (Macintosh; Intel Mac OS X 10_15_7) AppleWebKit/605.1.15 (KHTML, like Gecko) Version/15.3 Safari/605.1.15",xpyriment,legacy,legacy,0,uniform,0,0,0,0,24,24,24,0,0,74,74,74,74,74,0,74,0,40,40,40,40,40,0,40,26-01-22,26-01-22,17:09:09,Sat Feb 26 2022 17:09:09 GMT+0100 (CET),The main experiment item,yes,0,0,C:/Users/rrics/Documents/!!ResearchBMECOGSCI/gnet,0,0,0,prototype4.png,no,mono,no,18,no,black,no,no,768,1146,3.5.6,legacy,xpyriment,osweb,1.3.13,0,down,down,right,down,51434,20548,13490,51434,2,legacy,794,1440,24,900,24,0,25,1440,1645891785402,1024,2,48000,-16,experiment,p2sarrsha3.png,0,even,MacIntel,125,132911,129894,125,125,635571,637077,630585,134456,630585,125,872679,874193,869696,637096,869696,visual_patterns,0,0,0,yes,1366
undefined,undefined,undefined,undefined,white,no,Mozilla,Netscape,"5.0 (Macintosh; Intel Mac OS X 10_15_7) AppleWebKit/605.1.15 (KHTML, like Gecko) Version/15.3 Safari/605.1.15",xpyriment,legacy,legacy,0,uniform,0,0,0,0,24,24,24,0,0,74,74,74,74,74,0,74,0,41,41,41,41,41,0,41,26-01-22,26-01-22,17:09:09,Sat Feb 26 2022 17:09:09 GMT+0100 (CET),The main experiment item,yes,0,0,C:/Users/rrics/Documents/!!ResearchBMECOGSCI/gnet,0,0,0,prototype4.png,no,mono,no,18,no,black,no,no,768,1146,3.5.6,legacy,xpyriment,osweb,1.3.13,0,down,down,right,down,51434,20548,13490,51434,2,legacy,794,1440,24,900,24,0,25,1440,1645891785402,1024,2,48000,-16,experiment,p9sarr3.png,0,even,MacIntel,125,132911,129894,125,125,635571,637077,630585,134456,630585,125,877216,878727,874229,637096,874229,visual_patterns,0,0,0,yes,1366
undefined,undefined,undefined,undefined,white,no,Mozilla,Netscape,"5.0 (Macintosh; Intel Mac OS X 10_15_7) AppleWebKit/605.1.15 (KHTML, like Gecko) Version/15.3 Safari/605.1.15",xpyriment,legacy,legacy,0,uniform,0,0,0,0,24,24,24,0,0,74,74,74,74,74,0,74,0,42,42,42,42,42,0,42,26-01-22,26-01-22,17:09:09,Sat Feb 26 2022 17:09:09 GMT+0100 (CET),The main experiment item,yes,0,0,C:/Users/rrics/Documents/!!ResearchBMECOGSCI/gnet,0,0,0,prototype4.png,no,mono,no,18,no,black,no,no,768,1146,3.5.6,legacy,xpyriment,osweb,1.3.13,0,down,down,right,down,51434,20548,13490,51434,2,legacy,794,1440,24,900,24,0,25,1440,1645891785402,1024,2,48000,-16,experiment,p10sarr4.png,0,even,MacIntel,125,132911,129894,125,125,635571,637077,630585,134456,630585,125,881745,883261,878763,637096,878763,visual_patterns,0,0,0,yes,1366
undefined,undefined,undefined,undefined,white,no,Mozilla,Netscape,"5.0 (Macintosh; Intel Mac OS X 10_15_7) AppleWebKit/605.1.15 (KHTML, like Gecko) Version/15.3 Safari/605.1.15",xpyriment,legacy,legacy,0,uniform,0,0,0,0,24,24,24,0,0,74,74,74,74,74,0,74,0,43,43,43,43,43,0,43,26-01-22,26-01-22,17:09:09,Sat Feb 26 2022 17:09:09 GMT+0100 (CET),The main experiment item,yes,0,0,C:/Users/rrics/Documents/!!ResearchBMECOGSCI/gnet,0,0,0,prototype4.png,no,mono,no,18,no,black,no,no,768,1146,3.5.6,legacy,xpyriment,osweb,1.3.13,0,down,down,right,down,51434,20548,13490,51434,2,legacy,794,1440,24,900,24,0,25,1440,1645891785402,1024,2,48000,-16,experiment,p4sarrcol1.png,0,even,MacIntel,125,132911,129894,125,125,635571,637077,630585,134456,630585,125,886278,887794,883292,637096,883292,visual_patterns,0,0,0,yes,1366
undefined,undefined,undefined,undefined,white,no,Mozilla,Netscape,"5.0 (Macintosh; Intel Mac OS X 10_15_7) AppleWebKit/605.1.15 (KHTML, like Gecko) Version/15.3 Safari/605.1.15",xpyriment,legacy,legacy,0,uniform,0,0,0,0,24,24,24,0,0,74,74,74,74,74,0,74,0,44,44,44,44,44,0,44,26-01-22,26-01-22,17:09:09,Sat Feb 26 2022 17:09:09 GMT+0100 (CET),The main experiment item,yes,0,0,C:/Users/rrics/Documents/!!ResearchBMECOGSCI/gnet,0,0,0,prototype4.png,no,mono,no,18,no,black,no,no,768,1146,3.5.6,legacy,xpyriment,osweb,1.3.13,0,down,down,right,down,51434,20548,13490,51434,2,legacy,794,1440,24,900,24,0,25,1440,1645891785402,1024,2,48000,-16,experiment,p5sarrshacol4.png,0,even,MacIntel,125,132911,129894,125,125,635571,637077,630585,134456,630585,125,890812,892327,887830,637096,887830,visual_patterns,0,0,0,yes,1366
undefined,undefined,undefined,undefined,white,no,Mozilla,Netscape,"5.0 (Macintosh; Intel Mac OS X 10_15_7) AppleWebKit/605.1.15 (KHTML, like Gecko) Version/15.3 Safari/605.1.15",xpyriment,legacy,legacy,0,uniform,0,0,0,0,24,24,24,0,0,74,74,74,74,74,0,74,0,45,45,45,45,45,0,45,26-01-22,26-01-22,17:09:09,Sat Feb 26 2022 17:09:09 GMT+0100 (CET),The main experiment item,yes,0,0,C:/Users/rrics/Documents/!!ResearchBMECOGSCI/gnet,0,0,0,prototype4.png,no,mono,no,18,no,black,no,no,768,1146,3.5.6,legacy,xpyriment,osweb,1.3.13,0,down,down,right,down,51434,20548,13490,51434,2,legacy,794,1440,24,900,24,0,25,1440,1645891785402,1024,2,48000,-16,experiment,p3sarr3.png,0,even,MacIntel,125,132911,129894,125,125,635571,637077,630585,134456,630585,125,895350,896862,892363,637096,892363,visual_patterns,0,0,0,yes,1366
undefined,undefined,undefined,undefined,white,no,Mozilla,Netscape,"5.0 (Macintosh; Intel Mac OS X 10_15_7) AppleWebKit/605.1.15 (KHTML, like Gecko) Version/15.3 Safari/605.1.15",xpyriment,legacy,legacy,0,uniform,0,0,0,0,24,24,24,0,0,74,74,74,74,74,0,74,0,46,46,46,46,46,0,46,26-01-22,26-01-22,17:09:09,Sat Feb 26 2022 17:09:09 GMT+0100 (CET),The main experiment item,yes,0,0,C:/Users/rrics/Documents/!!ResearchBMECOGSCI/gnet,0,0,0,prototype4.png,no,mono,no,18,no,black,no,no,768,1146,3.5.6,legacy,xpyriment,osweb,1.3.13,0,down,down,right,down,51434,20548,13490,51434,2,legacy,794,1440,24,900,24,0,25,1440,1645891785402,1024,2,48000,-16,experiment,p2sarr3.png,0,even,MacIntel,125,132911,129894,125,125,635571,637077,630585,134456,630585,125,899883,901395,896898,637096,896898,visual_patterns,0,0,0,yes,1366
undefined,undefined,undefined,undefined,white,no,Mozilla,Netscape,"5.0 (Macintosh; Intel Mac OS X 10_15_7) AppleWebKit/605.1.15 (KHTML, like Gecko) Version/15.3 Safari/605.1.15",xpyriment,legacy,legacy,0,uniform,0,0,0,0,24,24,24,0,0,74,74,74,74,74,0,74,0,47,47,47,47,47,0,47,26-01-22,26-01-22,17:09:09,Sat Feb 26 2022 17:09:09 GMT+0100 (CET),The main experiment item,yes,0,0,C:/Users/rrics/Documents/!!ResearchBMECOGSCI/gnet,0,0,0,prototype4.png,no,mono,no,18,no,black,no,no,768,1146,3.5.6,legacy,xpyriment,osweb,1.3.13,0,down,down,right,down,51434,20548,13490,51434,2,legacy,794,1440,24,900,24,0,25,1440,1645891785402,1024,2,48000,-16,experiment,p4sarr2.png,0,even,MacIntel,125,132911,129894,125,125,635571,637077,630585,134456,630585,125,904412,905929,901427,637096,901427,visual_patterns,0,0,0,yes,1366
undefined,undefined,undefined,undefined,white,no,Mozilla,Netscape,"5.0 (Macintosh; Intel Mac OS X 10_15_7) AppleWebKit/605.1.15 (KHTML, like Gecko) Version/15.3 Safari/605.1.15",xpyriment,legacy,legacy,0,uniform,0,0,0,0,24,24,24,0,0,74,74,74,74,74,0,74,0,48,48,48,48,48,0,48,26-01-22,26-01-22,17:09:09,Sat Feb 26 2022 17:09:09 GMT+0100 (CET),The main experiment item,yes,0,0,C:/Users/rrics/Documents/!!ResearchBMECOGSCI/gnet,0,0,0,prototype4.png,no,mono,no,18,no,black,no,no,768,1146,3.5.6,legacy,xpyriment,osweb,1.3.13,0,down,down,right,down,51434,20548,13490,51434,2,legacy,794,1440,24,900,24,0,25,1440,1645891785402,1024,2,48000,-16,experiment,p2sarrshacol3.png,0,even,MacIntel,125,132911,129894,125,125,635571,637077,630585,134456,630585,125,908949,910463,905966,637096,905966,visual_patterns,0,0,0,yes,1366
undefined,undefined,undefined,undefined,white,no,Mozilla,Netscape,"5.0 (Macintosh; Intel Mac OS X 10_15_7) AppleWebKit/605.1.15 (KHTML, like Gecko) Version/15.3 Safari/605.1.15",xpyriment,legacy,legacy,0,uniform,0,0,0,0,24,24,24,0,0,74,74,74,74,74,0,74,0,49,49,49,49,49,0,49,26-01-22,26-01-22,17:09:09,Sat Feb 26 2022 17:09:09 GMT+0100 (CET),The main experiment item,yes,0,0,C:/Users/rrics/Documents/!!ResearchBMECOGSCI/gnet,0,0,0,prototype4.png,no,mono,no,18,no,black,no,no,768,1146,3.5.6,legacy,xpyriment,osweb,1.3.13,0,down,down,right,down,51434,20548,13490,51434,2,legacy,794,1440,24,900,24,0,25,1440,1645891785402,1024,2,48000,-16,experiment,p2sarrcol2.png,0,even,MacIntel,125,132911,129894,125,125,635571,637077,630585,134456,630585,125,913480,914996,910495,637096,910494,visual_patterns,0,0,0,yes,1366
undefined,undefined,undefined,undefined,white,no,Mozilla,Netscape,"5.0 (Macintosh; Intel Mac OS X 10_15_7) AppleWebKit/605.1.15 (KHTML, like Gecko) Version/15.3 Safari/605.1.15",xpyriment,legacy,legacy,0,uniform,0,0,0,0,24,24,24,0,0,74,74,74,74,74,0,74,0,50,50,50,50,50,0,50,26-01-22,26-01-22,17:09:09,Sat Feb 26 2022 17:09:09 GMT+0100 (CET),The main experiment item,yes,0,0,C:/Users/rrics/Documents/!!ResearchBMECOGSCI/gnet,0,0,0,prototype4.png,no,mono,no,18,no,black,no,no,768,1146,3.5.6,legacy,xpyriment,osweb,1.3.13,0,down,down,right,down,51434,20548,13490,51434,2,legacy,794,1440,24,900,24,0,25,1440,1645891785402,1024,2,48000,-16,experiment,p4sarrsha3.png,0,even,MacIntel,125,132911,129894,125,125,635571,637077,630585,134456,630585,125,918017,919530,915032,637096,915032,visual_patterns,0,0,0,yes,1366
