acc,accuracy,average_response_time,avg_rt,background,bidi,browser_codename,browser_name,browser_version,canvas_backend,clock_backend,color_backend,compensation,coordinates,count_end,count_experiment,count_osweb,count_prestudy,count_prestudy_isi,count_prestudy_sequence,count_prestudy_stimpres,count_start,count_study,count_study_coroutines,count_study_isi,count_study_logger,count_study_response,count_study_sequence,count_study_start,count_study_stimpres,count_test,count_test_coroutines,count_test_isi,count_test_logger,count_test_response,count_test_sequence,count_test_start,count_test_stimpres,date_startdate,date_startdateUTC,date_starttime,datetime,description,disable_garbage_collection,experiment_debug,experiment_parameters,experiment_path,experiment_pilot,experiment_taskname,experiment_taskversion,fampict,font_bold,font_family,font_italic,font_size,font_underline,foreground,form_clicks,fullscreen,height,jatosStudyResultId,jatosVersion,keyboard_backend,mouse_backend,opensesame_codename,opensesame_version,repeat_cycle,response,response_start,response_study_start,response_test_start,response_time,response_time_start,response_time_study_start,response_time_test_start,round_decimals,sampler_backend,screen_availableHeight,screen_availableWidth,screen_colorDepth,screen_height,screen_pixelDepth,screen_screenX,screen_screenY,screen_width,sessionid,sound_buf_size,sound_channels,sound_freq,sound_sample_size,start,stim,subject_nr,subject_parity,system_os,time_prestudy,time_prestudy_isi,time_prestudy_stimpres,time_start,time_study,time_study_isi,time_study_logger,time_study_response,time_study_start,time_study_stimpres,time_test,time_test_isi,time_test_logger,time_test_response,time_test_start,time_test_stimpres,title,total_correct,total_response_time,total_responses,uniform_coordinates,width
undefined,undefined,undefined,undefined,white,no,Mozilla,Netscape,"5.0 (Windows NT 10.0; Win64; x64) AppleWebKit/537.36 (KHTML, like Gecko) Chrome/98.0.4758.102 Safari/537.36",xpyriment,legacy,legacy,0,uniform,0,0,0,0,24,24,24,0,0,0,0,0,0,0,0,0,0,,,,,,0,,26-01-22,26-01-22,19:32:05,Sat Feb 26 2022 19:32:05 GMT+0100 (közép-európai téli idő),The main experiment item,yes,0,0,C:/Users/rrics/Documents/!!ResearchBMECOGSCI/gnet,0,0,0,prototype1.png,no,mono,no,18,no,black,no,no,768,1147,3.5.6,legacy,xpyriment,osweb,1.3.13,0,left,k,left,,40396,31263,40396,,2,legacy,1040,1920,24,1080,24,-1920,-249,1920,1645900372050,1024,2,48000,-16,experiment,p6sarr1.png,1,odd,Win32,129,143214,140199,128,129,190151,191654,185152,144731,185152,128,,,,,,visual_patterns,0,0,0,yes,1366
undefined,undefined,undefined,undefined,white,no,Mozilla,Netscape,"5.0 (Windows NT 10.0; Win64; x64) AppleWebKit/537.36 (KHTML, like Gecko) Chrome/98.0.4758.102 Safari/537.36",xpyriment,legacy,legacy,0,uniform,0,0,0,0,24,24,24,0,0,1,1,1,1,1,0,1,0,,,,,,0,,26-01-22,26-01-22,19:32:05,Sat Feb 26 2022 19:32:05 GMT+0100 (közép-európai téli idő),The main experiment item,yes,0,0,C:/Users/rrics/Documents/!!ResearchBMECOGSCI/gnet,0,0,0,prototype1.png,no,mono,no,18,no,black,no,no,768,1147,3.5.6,legacy,xpyriment,osweb,1.3.13,0,left,k,left,,40396,31263,40396,,2,legacy,1040,1920,24,1080,24,-1920,-249,1920,1645900372050,1024,2,48000,-16,experiment,prototype3.png,1,odd,Win32,129,143214,140199,128,129,196666,198170,191662,144731,191662,128,,,,,,visual_patterns,0,0,0,yes,1366
undefined,undefined,undefined,undefined,white,no,Mozilla,Netscape,"5.0 (Windows NT 10.0; Win64; x64) AppleWebKit/537.36 (KHTML, like Gecko) Chrome/98.0.4758.102 Safari/537.36",xpyriment,legacy,legacy,0,uniform,0,0,0,0,24,24,24,0,0,2,2,2,2,2,0,2,0,,,,,,0,,26-01-22,26-01-22,19:32:05,Sat Feb 26 2022 19:32:05 GMT+0100 (közép-európai téli idő),The main experiment item,yes,0,0,C:/Users/rrics/Documents/!!ResearchBMECOGSCI/gnet,0,0,0,prototype1.png,no,mono,no,18,no,black,no,no,768,1147,3.5.6,legacy,xpyriment,osweb,1.3.13,0,left,k,left,,40396,31263,40396,,2,legacy,1040,1920,24,1080,24,-1920,-249,1920,1645900372050,1024,2,48000,-16,experiment,p3sarr1.png,1,odd,Win32,129,143214,140199,128,129,203179,204685,198177,144731,198177,128,,,,,,visual_patterns,0,0,0,yes,1366
undefined,undefined,undefined,undefined,white,no,Mozilla,Netscape,"5.0 (Windows NT 10.0; Win64; x64) AppleWebKit/537.36 (KHTML, like Gecko) Chrome/98.0.4758.102 Safari/537.36",xpyriment,legacy,legacy,0,uniform,0,0,0,0,24,24,24,0,0,3,3,3,3,3,0,3,0,,,,,,0,,26-01-22,26-01-22,19:32:05,Sat Feb 26 2022 19:32:05 GMT+0100 (közép-európai téli idő),The main experiment item,yes,0,0,C:/Users/rrics/Documents/!!ResearchBMECOGSCI/gnet,0,0,0,prototype1.png,no,mono,no,18,no,black,no,no,768,1147,3.5.6,legacy,xpyriment,osweb,1.3.13,0,left,k,left,,40396,31263,40396,,2,legacy,1040,1920,24,1080,24,-1920,-249,1920,1645900372050,1024,2,48000,-16,experiment,p9sarr2.png,1,odd,Win32,129,143214,140199,128,129,209710,211217,204708,144731,204708,128,,,,,,visual_patterns,0,0,0,yes,1366
undefined,undefined,undefined,undefined,white,no,Mozilla,Netscape,"5.0 (Windows NT 10.0; Win64; x64) AppleWebKit/537.36 (KHTML, like Gecko) Chrome/98.0.4758.102 Safari/537.36",xpyriment,legacy,legacy,0,uniform,0,0,0,0,24,24,24,0,0,4,4,4,4,4,0,4,0,,,,,,0,,26-01-22,26-01-22,19:32:05,Sat Feb 26 2022 19:32:05 GMT+0100 (közép-európai téli idő),The main experiment item,yes,0,0,C:/Users/rrics/Documents/!!ResearchBMECOGSCI/gnet,0,0,0,prototype1.png,no,mono,no,18,no,black,no,no,768,1147,3.5.6,legacy,xpyriment,osweb,1.3.13,0,left,k,left,,40396,31263,40396,,2,legacy,1040,1920,24,1080,24,-1920,-249,1920,1645900372050,1024,2,48000,-16,experiment,p4sarr2.png,1,odd,Win32,129,143214,140199,128,129,216226,217732,211224,144731,211224,128,,,,,,visual_patterns,0,0,0,yes,1366
undefined,undefined,undefined,undefined,white,no,Mozilla,Netscape,"5.0 (Windows NT 10.0; Win64; x64) AppleWebKit/537.36 (KHTML, like Gecko) Chrome/98.0.4758.102 Safari/537.36",xpyriment,legacy,legacy,0,uniform,0,0,0,0,24,24,24,0,0,5,5,5,5,5,0,5,0,,,,,,0,,26-01-22,26-01-22,19:32:05,Sat Feb 26 2022 19:32:05 GMT+0100 (közép-európai téli idő),The main experiment item,yes,0,0,C:/Users/rrics/Documents/!!ResearchBMECOGSCI/gnet,0,0,0,prototype1.png,no,mono,no,18,no,black,no,no,768,1147,3.5.6,legacy,xpyriment,osweb,1.3.13,0,left,k,left,,40396,31263,40396,,2,legacy,1040,1920,24,1080,24,-1920,-249,1920,1645900372050,1024,2,48000,-16,experiment,p4sarrshacol2.png,1,odd,Win32,129,143214,140199,128,129,222741,224247,217740,144731,217740,128,,,,,,visual_patterns,0,0,0,yes,1366
undefined,undefined,undefined,undefined,white,no,Mozilla,Netscape,"5.0 (Windows NT 10.0; Win64; x64) AppleWebKit/537.36 (KHTML, like Gecko) Chrome/98.0.4758.102 Safari/537.36",xpyriment,legacy,legacy,0,uniform,0,0,0,0,24,24,24,0,0,6,6,6,6,6,0,6,0,,,,,,0,,26-01-22,26-01-22,19:32:05,Sat Feb 26 2022 19:32:05 GMT+0100 (közép-európai téli idő),The main experiment item,yes,0,0,C:/Users/rrics/Documents/!!ResearchBMECOGSCI/gnet,0,0,0,prototype1.png,no,mono,no,18,no,black,no,no,768,1147,3.5.6,legacy,xpyriment,osweb,1.3.13,0,left,k,left,,40396,31263,40396,,2,legacy,1040,1920,24,1080,24,-1920,-249,1920,1645900372050,1024,2,48000,-16,experiment,p5sarrsha2.png,1,odd,Win32,129,143214,140199,128,129,229254,230763,224255,144731,224255,128,,,,,,visual_patterns,0,0,0,yes,1366
undefined,undefined,undefined,undefined,white,no,Mozilla,Netscape,"5.0 (Windows NT 10.0; Win64; x64) AppleWebKit/537.36 (KHTML, like Gecko) Chrome/98.0.4758.102 Safari/537.36",xpyriment,legacy,legacy,0,uniform,0,0,0,0,24,24,24,0,0,7,7,7,7,7,0,7,0,,,,,,0,,26-01-22,26-01-22,19:32:05,Sat Feb 26 2022 19:32:05 GMT+0100 (közép-európai téli idő),The main experiment item,yes,0,0,C:/Users/rrics/Documents/!!ResearchBMECOGSCI/gnet,0,0,0,prototype1.png,no,mono,no,18,no,black,no,no,768,1147,3.5.6,legacy,xpyriment,osweb,1.3.13,0,left,k,left,,40396,31263,40396,,2,legacy,1040,1920,24,1080,24,-1920,-249,1920,1645900372050,1024,2,48000,-16,experiment,p2sarr1.png,1,odd,Win32,129,143214,140199,128,129,235771,237278,230770,144731,230770,128,,,,,,visual_patterns,0,0,0,yes,1366
undefined,undefined,undefined,undefined,white,no,Mozilla,Netscape,"5.0 (Windows NT 10.0; Win64; x64) AppleWebKit/537.36 (KHTML, like Gecko) Chrome/98.0.4758.102 Safari/537.36",xpyriment,legacy,legacy,0,uniform,0,0,0,0,24,24,24,0,0,8,8,8,8,8,0,8,0,,,,,,0,,26-01-22,26-01-22,19:32:05,Sat Feb 26 2022 19:32:05 GMT+0100 (közép-európai téli idő),The main experiment item,yes,0,0,C:/Users/rrics/Documents/!!ResearchBMECOGSCI/gnet,0,0,0,prototype1.png,no,mono,no,18,no,black,no,no,768,1147,3.5.6,legacy,xpyriment,osweb,1.3.13,0,left,k,left,,40396,31263,40396,,2,legacy,1040,1920,24,1080,24,-1920,-249,1920,1645900372050,1024,2,48000,-16,experiment,prototype4.png,1,odd,Win32,129,143214,140199,128,129,242302,243810,237300,144731,237300,128,,,,,,visual_patterns,0,0,0,yes,1366
undefined,undefined,undefined,undefined,white,no,Mozilla,Netscape,"5.0 (Windows NT 10.0; Win64; x64) AppleWebKit/537.36 (KHTML, like Gecko) Chrome/98.0.4758.102 Safari/537.36",xpyriment,legacy,legacy,0,uniform,0,0,0,0,24,24,24,0,0,9,9,9,9,9,0,9,0,,,,,,0,,26-01-22,26-01-22,19:32:05,Sat Feb 26 2022 19:32:05 GMT+0100 (közép-európai téli idő),The main experiment item,yes,0,0,C:/Users/rrics/Documents/!!ResearchBMECOGSCI/gnet,0,0,0,prototype1.png,no,mono,no,18,no,black,no,no,768,1147,3.5.6,legacy,xpyriment,osweb,1.3.13,0,left,k,left,,40396,31263,40396,,2,legacy,1040,1920,24,1080,24,-1920,-249,1920,1645900372050,1024,2,48000,-16,experiment,p5sarrsha1.png,1,odd,Win32,129,143214,140199,128,129,248818,250325,243817,144731,243817,128,,,,,,visual_patterns,0,0,0,yes,1366
undefined,undefined,undefined,undefined,white,no,Mozilla,Netscape,"5.0 (Windows NT 10.0; Win64; x64) AppleWebKit/537.36 (KHTML, like Gecko) Chrome/98.0.4758.102 Safari/537.36",xpyriment,legacy,legacy,0,uniform,0,0,0,0,24,24,24,0,0,10,10,10,10,10,0,10,0,,,,,,0,,26-01-22,26-01-22,19:32:05,Sat Feb 26 2022 19:32:05 GMT+0100 (közép-európai téli idő),The main experiment item,yes,0,0,C:/Users/rrics/Documents/!!ResearchBMECOGSCI/gnet,0,0,0,prototype1.png,no,mono,no,18,no,black,no,no,768,1147,3.5.6,legacy,xpyriment,osweb,1.3.13,0,left,k,left,,40396,31263,40396,,2,legacy,1040,1920,24,1080,24,-1920,-249,1920,1645900372050,1024,2,48000,-16,experiment,p5sarrcol1.png,1,odd,Win32,129,143214,140199,128,129,255336,256841,250334,144731,250334,128,,,,,,visual_patterns,0,0,0,yes,1366
undefined,undefined,undefined,undefined,white,no,Mozilla,Netscape,"5.0 (Windows NT 10.0; Win64; x64) AppleWebKit/537.36 (KHTML, like Gecko) Chrome/98.0.4758.102 Safari/537.36",xpyriment,legacy,legacy,0,uniform,0,0,0,0,24,24,24,0,0,11,11,11,11,11,0,11,0,,,,,,0,,26-01-22,26-01-22,19:32:05,Sat Feb 26 2022 19:32:05 GMT+0100 (közép-európai téli idő),The main experiment item,yes,0,0,C:/Users/rrics/Documents/!!ResearchBMECOGSCI/gnet,0,0,0,prototype1.png,no,mono,no,18,no,black,no,no,768,1147,3.5.6,legacy,xpyriment,osweb,1.3.13,0,left,k,left,,40396,31263,40396,,2,legacy,1040,1920,24,1080,24,-1920,-249,1920,1645900372050,1024,2,48000,-16,experiment,p8sarr2.png,1,odd,Win32,129,143214,140199,128,129,261847,263356,256848,144731,256848,128,,,,,,visual_patterns,0,0,0,yes,1366
undefined,undefined,undefined,undefined,white,no,Mozilla,Netscape,"5.0 (Windows NT 10.0; Win64; x64) AppleWebKit/537.36 (KHTML, like Gecko) Chrome/98.0.4758.102 Safari/537.36",xpyriment,legacy,legacy,0,uniform,0,0,0,0,24,24,24,0,0,12,12,12,12,12,0,12,0,,,,,,0,,26-01-22,26-01-22,19:32:05,Sat Feb 26 2022 19:32:05 GMT+0100 (közép-európai téli idő),The main experiment item,yes,0,0,C:/Users/rrics/Documents/!!ResearchBMECOGSCI/gnet,0,0,0,prototype1.png,no,mono,no,18,no,black,no,no,768,1147,3.5.6,legacy,xpyriment,osweb,1.3.13,0,left,k,left,,40396,31263,40396,,2,legacy,1040,1920,24,1080,24,-1920,-249,1920,1645900372050,1024,2,48000,-16,experiment,p5sarrshacol2.png,1,odd,Win32,129,143214,140199,128,129,268363,269871,263364,144731,263364,128,,,,,,visual_patterns,0,0,0,yes,1366
undefined,undefined,undefined,undefined,white,no,Mozilla,Netscape,"5.0 (Windows NT 10.0; Win64; x64) AppleWebKit/537.36 (KHTML, like Gecko) Chrome/98.0.4758.102 Safari/537.36",xpyriment,legacy,legacy,0,uniform,0,0,0,0,24,24,24,0,0,13,13,13,13,13,0,13,0,,,,,,0,,26-01-22,26-01-22,19:32:05,Sat Feb 26 2022 19:32:05 GMT+0100 (közép-európai téli idő),The main experiment item,yes,0,0,C:/Users/rrics/Documents/!!ResearchBMECOGSCI/gnet,0,0,0,prototype1.png,no,mono,no,18,no,black,no,no,768,1147,3.5.6,legacy,xpyriment,osweb,1.3.13,0,left,k,left,,40396,31263,40396,,2,legacy,1040,1920,24,1080,24,-1920,-249,1920,1645900372050,1024,2,48000,-16,experiment,p8sarr1.png,1,odd,Win32,129,143214,140199,128,129,274881,276387,269880,144731,269880,128,,,,,,visual_patterns,0,0,0,yes,1366
undefined,undefined,undefined,undefined,white,no,Mozilla,Netscape,"5.0 (Windows NT 10.0; Win64; x64) AppleWebKit/537.36 (KHTML, like Gecko) Chrome/98.0.4758.102 Safari/537.36",xpyriment,legacy,legacy,0,uniform,0,0,0,0,24,24,24,0,0,14,14,14,14,14,0,14,0,,,,,,0,,26-01-22,26-01-22,19:32:05,Sat Feb 26 2022 19:32:05 GMT+0100 (közép-európai téli idő),The main experiment item,yes,0,0,C:/Users/rrics/Documents/!!ResearchBMECOGSCI/gnet,0,0,0,prototype1.png,no,mono,no,18,no,black,no,no,768,1147,3.5.6,legacy,xpyriment,osweb,1.3.13,0,left,k,left,,40396,31263,40396,,2,legacy,1040,1920,24,1080,24,-1920,-249,1920,1645900372050,1024,2,48000,-16,experiment,p3sarrcol1.png,1,odd,Win32,129,143214,140199,128,129,281396,282902,276395,144731,276395,128,,,,,,visual_patterns,0,0,0,yes,1366
undefined,undefined,undefined,undefined,white,no,Mozilla,Netscape,"5.0 (Windows NT 10.0; Win64; x64) AppleWebKit/537.36 (KHTML, like Gecko) Chrome/98.0.4758.102 Safari/537.36",xpyriment,legacy,legacy,0,uniform,0,0,0,0,24,24,24,0,0,15,15,15,15,15,0,15,0,,,,,,0,,26-01-22,26-01-22,19:32:05,Sat Feb 26 2022 19:32:05 GMT+0100 (közép-európai téli idő),The main experiment item,yes,0,0,C:/Users/rrics/Documents/!!ResearchBMECOGSCI/gnet,0,0,0,prototype1.png,no,mono,no,18,no,black,no,no,768,1147,3.5.6,legacy,xpyriment,osweb,1.3.13,0,left,k,left,,40396,31263,40396,,2,legacy,1040,1920,24,1080,24,-1920,-249,1920,1645900372050,1024,2,48000,-16,experiment,prototype1.png,1,odd,Win32,129,143214,140199,128,129,287907,289417,282908,144731,282908,128,,,,,,visual_patterns,0,0,0,yes,1366
undefined,undefined,undefined,undefined,white,no,Mozilla,Netscape,"5.0 (Windows NT 10.0; Win64; x64) AppleWebKit/537.36 (KHTML, like Gecko) Chrome/98.0.4758.102 Safari/537.36",xpyriment,legacy,legacy,0,uniform,0,0,0,0,24,24,24,0,0,16,16,16,16,16,0,16,0,,,,,,0,,26-01-22,26-01-22,19:32:05,Sat Feb 26 2022 19:32:05 GMT+0100 (közép-európai téli idő),The main experiment item,yes,0,0,C:/Users/rrics/Documents/!!ResearchBMECOGSCI/gnet,0,0,0,prototype1.png,no,mono,no,18,no,black,no,no,768,1147,3.5.6,legacy,xpyriment,osweb,1.3.13,0,left,k,left,,40396,31263,40396,,2,legacy,1040,1920,24,1080,24,-1920,-249,1920,1645900372050,1024,2,48000,-16,experiment,p2sarr2.png,1,odd,Win32,129,143214,140199,128,129,294426,295933,289425,144731,289425,128,,,,,,visual_patterns,0,0,0,yes,1366
undefined,undefined,undefined,undefined,white,no,Mozilla,Netscape,"5.0 (Windows NT 10.0; Win64; x64) AppleWebKit/537.36 (KHTML, like Gecko) Chrome/98.0.4758.102 Safari/537.36",xpyriment,legacy,legacy,0,uniform,0,0,0,0,24,24,24,0,0,17,17,17,17,17,0,17,0,,,,,,0,,26-01-22,26-01-22,19:32:05,Sat Feb 26 2022 19:32:05 GMT+0100 (közép-európai téli idő),The main experiment item,yes,0,0,C:/Users/rrics/Documents/!!ResearchBMECOGSCI/gnet,0,0,0,prototype1.png,no,mono,no,18,no,black,no,no,768,1147,3.5.6,legacy,xpyriment,osweb,1.3.13,0,left,k,left,,40396,31263,40396,,2,legacy,1040,1920,24,1080,24,-1920,-249,1920,1645900372050,1024,2,48000,-16,experiment,p3sarrsha2.png,1,odd,Win32,129,143214,140199,128,129,300941,302448,295940,144731,295940,128,,,,,,visual_patterns,0,0,0,yes,1366
undefined,undefined,undefined,undefined,white,no,Mozilla,Netscape,"5.0 (Windows NT 10.0; Win64; x64) AppleWebKit/537.36 (KHTML, like Gecko) Chrome/98.0.4758.102 Safari/537.36",xpyriment,legacy,legacy,0,uniform,0,0,0,0,24,24,24,0,0,18,18,18,18,18,0,18,0,,,,,,0,,26-01-22,26-01-22,19:32:05,Sat Feb 26 2022 19:32:05 GMT+0100 (közép-európai téli idő),The main experiment item,yes,0,0,C:/Users/rrics/Documents/!!ResearchBMECOGSCI/gnet,0,0,0,prototype1.png,no,mono,no,18,no,black,no,no,768,1147,3.5.6,legacy,xpyriment,osweb,1.3.13,0,left,k,left,,40396,31263,40396,,2,legacy,1040,1920,24,1080,24,-1920,-249,1920,1645900372050,1024,2,48000,-16,experiment,prototype4.png,1,odd,Win32,129,143214,140199,128,129,307471,308980,302470,144731,302470,128,,,,,,visual_patterns,0,0,0,yes,1366
undefined,undefined,undefined,undefined,white,no,Mozilla,Netscape,"5.0 (Windows NT 10.0; Win64; x64) AppleWebKit/537.36 (KHTML, like Gecko) Chrome/98.0.4758.102 Safari/537.36",xpyriment,legacy,legacy,0,uniform,0,0,0,0,24,24,24,0,0,19,19,19,19,19,0,19,0,,,,,,0,,26-01-22,26-01-22,19:32:05,Sat Feb 26 2022 19:32:05 GMT+0100 (közép-európai téli idő),The main experiment item,yes,0,0,C:/Users/rrics/Documents/!!ResearchBMECOGSCI/gnet,0,0,0,prototype1.png,no,mono,no,18,no,black,no,no,768,1147,3.5.6,legacy,xpyriment,osweb,1.3.13,0,left,k,left,,40396,31263,40396,,2,legacy,1040,1920,24,1080,24,-1920,-249,1920,1645900372050,1024,2,48000,-16,experiment,p3sarrsha1.png,1,odd,Win32,129,143214,140199,128,129,313989,315495,308987,144731,308987,128,,,,,,visual_patterns,0,0,0,yes,1366
undefined,undefined,undefined,undefined,white,no,Mozilla,Netscape,"5.0 (Windows NT 10.0; Win64; x64) AppleWebKit/537.36 (KHTML, like Gecko) Chrome/98.0.4758.102 Safari/537.36",xpyriment,legacy,legacy,0,uniform,0,0,0,0,24,24,24,0,0,20,20,20,20,20,0,20,0,,,,,,0,,26-01-22,26-01-22,19:32:05,Sat Feb 26 2022 19:32:05 GMT+0100 (közép-európai téli idő),The main experiment item,yes,0,0,C:/Users/rrics/Documents/!!ResearchBMECOGSCI/gnet,0,0,0,prototype1.png,no,mono,no,18,no,black,no,no,768,1147,3.5.6,legacy,xpyriment,osweb,1.3.13,0,left,k,left,,40396,31263,40396,,2,legacy,1040,1920,24,1080,24,-1920,-249,1920,1645900372050,1024,2,48000,-16,experiment,prototype2.png,1,odd,Win32,129,143214,140199,128,129,320502,322011,315501,144731,315501,128,,,,,,visual_patterns,0,0,0,yes,1366
undefined,undefined,undefined,undefined,white,no,Mozilla,Netscape,"5.0 (Windows NT 10.0; Win64; x64) AppleWebKit/537.36 (KHTML, like Gecko) Chrome/98.0.4758.102 Safari/537.36",xpyriment,legacy,legacy,0,uniform,0,0,0,0,24,24,24,0,0,21,21,21,21,21,0,21,0,,,,,,0,,26-01-22,26-01-22,19:32:05,Sat Feb 26 2022 19:32:05 GMT+0100 (közép-európai téli idő),The main experiment item,yes,0,0,C:/Users/rrics/Documents/!!ResearchBMECOGSCI/gnet,0,0,0,prototype1.png,no,mono,no,18,no,black,no,no,768,1147,3.5.6,legacy,xpyriment,osweb,1.3.13,0,left,k,left,,40396,31263,40396,,2,legacy,1040,1920,24,1080,24,-1920,-249,1920,1645900372050,1024,2,48000,-16,experiment,p4sarrcol2.png,1,odd,Win32,129,143214,140199,128,129,327017,328526,322018,144731,322017,128,,,,,,visual_patterns,0,0,0,yes,1366
undefined,undefined,undefined,undefined,white,no,Mozilla,Netscape,"5.0 (Windows NT 10.0; Win64; x64) AppleWebKit/537.36 (KHTML, like Gecko) Chrome/98.0.4758.102 Safari/537.36",xpyriment,legacy,legacy,0,uniform,0,0,0,0,24,24,24,0,0,22,22,22,22,22,0,22,0,,,,,,0,,26-01-22,26-01-22,19:32:05,Sat Feb 26 2022 19:32:05 GMT+0100 (közép-európai téli idő),The main experiment item,yes,0,0,C:/Users/rrics/Documents/!!ResearchBMECOGSCI/gnet,0,0,0,prototype1.png,no,mono,no,18,no,black,no,no,768,1147,3.5.6,legacy,xpyriment,osweb,1.3.13,0,left,k,left,,40396,31263,40396,,2,legacy,1040,1920,24,1080,24,-1920,-249,1920,1645900372050,1024,2,48000,-16,experiment,p5sarrshacol1.png,1,odd,Win32,129,143214,140199,128,129,333534,335041,328535,144731,328535,128,,,,,,visual_patterns,0,0,0,yes,1366
undefined,undefined,undefined,undefined,white,no,Mozilla,Netscape,"5.0 (Windows NT 10.0; Win64; x64) AppleWebKit/537.36 (KHTML, like Gecko) Chrome/98.0.4758.102 Safari/537.36",xpyriment,legacy,legacy,0,uniform,0,0,0,0,24,24,24,0,0,23,23,23,23,23,0,23,0,,,,,,0,,26-01-22,26-01-22,19:32:05,Sat Feb 26 2022 19:32:05 GMT+0100 (közép-európai téli idő),The main experiment item,yes,0,0,C:/Users/rrics/Documents/!!ResearchBMECOGSCI/gnet,0,0,0,prototype1.png,no,mono,no,18,no,black,no,no,768,1147,3.5.6,legacy,xpyriment,osweb,1.3.13,0,left,k,left,,40396,31263,40396,,2,legacy,1040,1920,24,1080,24,-1920,-249,1920,1645900372050,1024,2,48000,-16,experiment,prototype2.png,1,odd,Win32,129,143214,140199,128,129,340051,341557,335047,144731,335047,128,,,,,,visual_patterns,0,0,0,yes,1366
undefined,undefined,undefined,undefined,white,no,Mozilla,Netscape,"5.0 (Windows NT 10.0; Win64; x64) AppleWebKit/537.36 (KHTML, like Gecko) Chrome/98.0.4758.102 Safari/537.36",xpyriment,legacy,legacy,0,uniform,0,0,0,0,24,24,24,0,0,24,24,24,24,24,0,24,0,,,,,,0,,26-01-22,26-01-22,19:32:05,Sat Feb 26 2022 19:32:05 GMT+0100 (közép-európai téli idő),The main experiment item,yes,0,0,C:/Users/rrics/Documents/!!ResearchBMECOGSCI/gnet,0,0,0,prototype1.png,no,mono,no,18,no,black,no,no,768,1147,3.5.6,legacy,xpyriment,osweb,1.3.13,0,left,k,left,,40396,31263,40396,,2,legacy,1040,1920,24,1080,24,-1920,-249,1920,1645900372050,1024,2,48000,-16,experiment,p4sarrsha2.png,1,odd,Win32,129,143214,140199,128,129,346563,348072,341565,144731,341565,128,,,,,,visual_patterns,0,0,0,yes,1366
undefined,undefined,undefined,undefined,white,no,Mozilla,Netscape,"5.0 (Windows NT 10.0; Win64; x64) AppleWebKit/537.36 (KHTML, like Gecko) Chrome/98.0.4758.102 Safari/537.36",xpyriment,legacy,legacy,0,uniform,0,0,0,0,24,24,24,0,0,25,25,25,25,25,0,25,0,,,,,,0,,26-01-22,26-01-22,19:32:05,Sat Feb 26 2022 19:32:05 GMT+0100 (közép-európai téli idő),The main experiment item,yes,0,0,C:/Users/rrics/Documents/!!ResearchBMECOGSCI/gnet,0,0,0,prototype1.png,no,mono,no,18,no,black,no,no,768,1147,3.5.6,legacy,xpyriment,osweb,1.3.13,0,left,k,left,,40396,31263,40396,,2,legacy,1040,1920,24,1080,24,-1920,-249,1920,1645900372050,1024,2,48000,-16,experiment,p9sarr1.png,1,odd,Win32,129,143214,140199,128,129,353079,354587,348079,144731,348079,128,,,,,,visual_patterns,0,0,0,yes,1366
undefined,undefined,undefined,undefined,white,no,Mozilla,Netscape,"5.0 (Windows NT 10.0; Win64; x64) AppleWebKit/537.36 (KHTML, like Gecko) Chrome/98.0.4758.102 Safari/537.36",xpyriment,legacy,legacy,0,uniform,0,0,0,0,24,24,24,0,0,26,26,26,26,26,0,26,0,,,,,,0,,26-01-22,26-01-22,19:32:05,Sat Feb 26 2022 19:32:05 GMT+0100 (közép-európai téli idő),The main experiment item,yes,0,0,C:/Users/rrics/Documents/!!ResearchBMECOGSCI/gnet,0,0,0,prototype1.png,no,mono,no,18,no,black,no,no,768,1147,3.5.6,legacy,xpyriment,osweb,1.3.13,0,left,k,left,,40396,31263,40396,,2,legacy,1040,1920,24,1080,24,-1920,-249,1920,1645900372050,1024,2,48000,-16,experiment,prototype1.png,1,odd,Win32,129,143214,140199,128,129,359598,361103,354593,144731,354593,128,,,,,,visual_patterns,0,0,0,yes,1366
undefined,undefined,undefined,undefined,white,no,Mozilla,Netscape,"5.0 (Windows NT 10.0; Win64; x64) AppleWebKit/537.36 (KHTML, like Gecko) Chrome/98.0.4758.102 Safari/537.36",xpyriment,legacy,legacy,0,uniform,0,0,0,0,24,24,24,0,0,27,27,27,27,27,0,27,0,,,,,,0,,26-01-22,26-01-22,19:32:05,Sat Feb 26 2022 19:32:05 GMT+0100 (közép-európai téli idő),The main experiment item,yes,0,0,C:/Users/rrics/Documents/!!ResearchBMECOGSCI/gnet,0,0,0,prototype1.png,no,mono,no,18,no,black,no,no,768,1147,3.5.6,legacy,xpyriment,osweb,1.3.13,0,left,k,left,,40396,31263,40396,,2,legacy,1040,1920,24,1080,24,-1920,-249,1920,1645900372050,1024,2,48000,-16,experiment,p4sarrcol1.png,1,odd,Win32,129,143214,140199,128,129,366110,367618,361110,144731,361110,128,,,,,,visual_patterns,0,0,0,yes,1366
undefined,undefined,undefined,undefined,white,no,Mozilla,Netscape,"5.0 (Windows NT 10.0; Win64; x64) AppleWebKit/537.36 (KHTML, like Gecko) Chrome/98.0.4758.102 Safari/537.36",xpyriment,legacy,legacy,0,uniform,0,0,0,0,24,24,24,0,0,28,28,28,28,28,0,28,0,,,,,,0,,26-01-22,26-01-22,19:32:05,Sat Feb 26 2022 19:32:05 GMT+0100 (közép-európai téli idő),The main experiment item,yes,0,0,C:/Users/rrics/Documents/!!ResearchBMECOGSCI/gnet,0,0,0,prototype1.png,no,mono,no,18,no,black,no,no,768,1147,3.5.6,legacy,xpyriment,osweb,1.3.13,0,left,k,left,,40396,31263,40396,,2,legacy,1040,1920,24,1080,24,-1920,-249,1920,1645900372050,1024,2,48000,-16,experiment,prototype4.png,1,odd,Win32,129,143214,140199,128,129,372641,374150,367641,144731,367641,128,,,,,,visual_patterns,0,0,0,yes,1366
undefined,undefined,undefined,undefined,white,no,Mozilla,Netscape,"5.0 (Windows NT 10.0; Win64; x64) AppleWebKit/537.36 (KHTML, like Gecko) Chrome/98.0.4758.102 Safari/537.36",xpyriment,legacy,legacy,0,uniform,0,0,0,0,24,24,24,0,0,29,29,29,29,29,0,29,0,,,,,,0,,26-01-22,26-01-22,19:32:05,Sat Feb 26 2022 19:32:05 GMT+0100 (közép-európai téli idő),The main experiment item,yes,0,0,C:/Users/rrics/Documents/!!ResearchBMECOGSCI/gnet,0,0,0,prototype1.png,no,mono,no,18,no,black,no,no,768,1147,3.5.6,legacy,xpyriment,osweb,1.3.13,0,left,k,left,,40396,31263,40396,,2,legacy,1040,1920,24,1080,24,-1920,-249,1920,1645900372050,1024,2,48000,-16,experiment,prototype5.png,1,odd,Win32,129,143214,140199,128,129,379159,380665,374156,144731,374156,128,,,,,,visual_patterns,0,0,0,yes,1366
undefined,undefined,undefined,undefined,white,no,Mozilla,Netscape,"5.0 (Windows NT 10.0; Win64; x64) AppleWebKit/537.36 (KHTML, like Gecko) Chrome/98.0.4758.102 Safari/537.36",xpyriment,legacy,legacy,0,uniform,0,0,0,0,24,24,24,0,0,30,30,30,30,30,0,30,0,,,,,,0,,26-01-22,26-01-22,19:32:05,Sat Feb 26 2022 19:32:05 GMT+0100 (közép-európai téli idő),The main experiment item,yes,0,0,C:/Users/rrics/Documents/!!ResearchBMECOGSCI/gnet,0,0,0,prototype1.png,no,mono,no,18,no,black,no,no,768,1147,3.5.6,legacy,xpyriment,osweb,1.3.13,0,left,k,left,,40396,31263,40396,,2,legacy,1040,1920,24,1080,24,-1920,-249,1920,1645900372050,1024,2,48000,-16,experiment,p5sarrcol2.png,1,odd,Win32,129,143214,140199,128,129,385676,387181,380673,144731,380673,128,,,,,,visual_patterns,0,0,0,yes,1366
undefined,undefined,undefined,undefined,white,no,Mozilla,Netscape,"5.0 (Windows NT 10.0; Win64; x64) AppleWebKit/537.36 (KHTML, like Gecko) Chrome/98.0.4758.102 Safari/537.36",xpyriment,legacy,legacy,0,uniform,0,0,0,0,24,24,24,0,0,31,31,31,31,31,0,31,0,,,,,,0,,26-01-22,26-01-22,19:32:05,Sat Feb 26 2022 19:32:05 GMT+0100 (közép-európai téli idő),The main experiment item,yes,0,0,C:/Users/rrics/Documents/!!ResearchBMECOGSCI/gnet,0,0,0,prototype1.png,no,mono,no,18,no,black,no,no,768,1147,3.5.6,legacy,xpyriment,osweb,1.3.13,0,left,k,left,,40396,31263,40396,,2,legacy,1040,1920,24,1080,24,-1920,-249,1920,1645900372050,1024,2,48000,-16,experiment,p2sarrsha2.png,1,odd,Win32,129,143214,140199,128,129,392190,393696,387188,144731,387188,128,,,,,,visual_patterns,0,0,0,yes,1366
undefined,undefined,undefined,undefined,white,no,Mozilla,Netscape,"5.0 (Windows NT 10.0; Win64; x64) AppleWebKit/537.36 (KHTML, like Gecko) Chrome/98.0.4758.102 Safari/537.36",xpyriment,legacy,legacy,0,uniform,0,0,0,0,24,24,24,0,0,32,32,32,32,32,0,32,0,,,,,,0,,26-01-22,26-01-22,19:32:05,Sat Feb 26 2022 19:32:05 GMT+0100 (közép-európai téli idő),The main experiment item,yes,0,0,C:/Users/rrics/Documents/!!ResearchBMECOGSCI/gnet,0,0,0,prototype1.png,no,mono,no,18,no,black,no,no,768,1147,3.5.6,legacy,xpyriment,osweb,1.3.13,0,left,k,left,,40396,31263,40396,,2,legacy,1040,1920,24,1080,24,-1920,-249,1920,1645900372050,1024,2,48000,-16,experiment,p5sarr1.png,1,odd,Win32,129,143214,140199,128,129,398702,400212,393703,144731,393703,128,,,,,,visual_patterns,0,0,0,yes,1366
undefined,undefined,undefined,undefined,white,no,Mozilla,Netscape,"5.0 (Windows NT 10.0; Win64; x64) AppleWebKit/537.36 (KHTML, like Gecko) Chrome/98.0.4758.102 Safari/537.36",xpyriment,legacy,legacy,0,uniform,0,0,0,0,24,24,24,0,0,33,33,33,33,33,0,33,0,,,,,,0,,26-01-22,26-01-22,19:32:05,Sat Feb 26 2022 19:32:05 GMT+0100 (közép-európai téli idő),The main experiment item,yes,0,0,C:/Users/rrics/Documents/!!ResearchBMECOGSCI/gnet,0,0,0,prototype1.png,no,mono,no,18,no,black,no,no,768,1147,3.5.6,legacy,xpyriment,osweb,1.3.13,0,left,k,left,,40396,31263,40396,,2,legacy,1040,1920,24,1080,24,-1920,-249,1920,1645900372050,1024,2,48000,-16,experiment,p3sarrshacol1.png,1,odd,Win32,129,143214,140199,128,129,405236,406744,400236,144731,400236,128,,,,,,visual_patterns,0,0,0,yes,1366
undefined,undefined,undefined,undefined,white,no,Mozilla,Netscape,"5.0 (Windows NT 10.0; Win64; x64) AppleWebKit/537.36 (KHTML, like Gecko) Chrome/98.0.4758.102 Safari/537.36",xpyriment,legacy,legacy,0,uniform,0,0,0,0,24,24,24,0,0,34,34,34,34,34,0,34,0,,,,,,0,,26-01-22,26-01-22,19:32:05,Sat Feb 26 2022 19:32:05 GMT+0100 (közép-európai téli idő),The main experiment item,yes,0,0,C:/Users/rrics/Documents/!!ResearchBMECOGSCI/gnet,0,0,0,prototype1.png,no,mono,no,18,no,black,no,no,768,1147,3.5.6,legacy,xpyriment,osweb,1.3.13,0,left,k,left,,40396,31263,40396,,2,legacy,1040,1920,24,1080,24,-1920,-249,1920,1645900372050,1024,2,48000,-16,experiment,prototype1.png,1,odd,Win32,129,143214,140199,128,129,411752,413259,406751,144731,406750,128,,,,,,visual_patterns,0,0,0,yes,1366
undefined,undefined,undefined,undefined,white,no,Mozilla,Netscape,"5.0 (Windows NT 10.0; Win64; x64) AppleWebKit/537.36 (KHTML, like Gecko) Chrome/98.0.4758.102 Safari/537.36",xpyriment,legacy,legacy,0,uniform,0,0,0,0,24,24,24,0,0,35,35,35,35,35,0,35,0,,,,,,0,,26-01-22,26-01-22,19:32:05,Sat Feb 26 2022 19:32:05 GMT+0100 (közép-európai téli idő),The main experiment item,yes,0,0,C:/Users/rrics/Documents/!!ResearchBMECOGSCI/gnet,0,0,0,prototype1.png,no,mono,no,18,no,black,no,no,768,1147,3.5.6,legacy,xpyriment,osweb,1.3.13,0,left,k,left,,40396,31263,40396,,2,legacy,1040,1920,24,1080,24,-1920,-249,1920,1645900372050,1024,2,48000,-16,experiment,p4sarrshacol1.png,1,odd,Win32,129,143214,140199,128,129,418269,419774,413266,144731,413266,128,,,,,,visual_patterns,0,0,0,yes,1366
undefined,undefined,undefined,undefined,white,no,Mozilla,Netscape,"5.0 (Windows NT 10.0; Win64; x64) AppleWebKit/537.36 (KHTML, like Gecko) Chrome/98.0.4758.102 Safari/537.36",xpyriment,legacy,legacy,0,uniform,0,0,0,0,24,24,24,0,0,36,36,36,36,36,0,36,0,,,,,,0,,26-01-22,26-01-22,19:32:05,Sat Feb 26 2022 19:32:05 GMT+0100 (közép-európai téli idő),The main experiment item,yes,0,0,C:/Users/rrics/Documents/!!ResearchBMECOGSCI/gnet,0,0,0,prototype1.png,no,mono,no,18,no,black,no,no,768,1147,3.5.6,legacy,xpyriment,osweb,1.3.13,0,left,k,left,,40396,31263,40396,,2,legacy,1040,1920,24,1080,24,-1920,-249,1920,1645900372050,1024,2,48000,-16,experiment,prototype3.png,1,odd,Win32,129,143214,140199,128,129,424783,426290,419780,144731,419780,128,,,,,,visual_patterns,0,0,0,yes,1366
undefined,undefined,undefined,undefined,white,no,Mozilla,Netscape,"5.0 (Windows NT 10.0; Win64; x64) AppleWebKit/537.36 (KHTML, like Gecko) Chrome/98.0.4758.102 Safari/537.36",xpyriment,legacy,legacy,0,uniform,0,0,0,0,24,24,24,0,0,37,37,37,37,37,0,37,0,,,,,,0,,26-01-22,26-01-22,19:32:05,Sat Feb 26 2022 19:32:05 GMT+0100 (közép-európai téli idő),The main experiment item,yes,0,0,C:/Users/rrics/Documents/!!ResearchBMECOGSCI/gnet,0,0,0,prototype1.png,no,mono,no,18,no,black,no,no,768,1147,3.5.6,legacy,xpyriment,osweb,1.3.13,0,left,k,left,,40396,31263,40396,,2,legacy,1040,1920,24,1080,24,-1920,-249,1920,1645900372050,1024,2,48000,-16,experiment,prototype3.png,1,odd,Win32,129,143214,140199,128,129,431298,432805,426295,144731,426295,128,,,,,,visual_patterns,0,0,0,yes,1366
undefined,undefined,undefined,undefined,white,no,Mozilla,Netscape,"5.0 (Windows NT 10.0; Win64; x64) AppleWebKit/537.36 (KHTML, like Gecko) Chrome/98.0.4758.102 Safari/537.36",xpyriment,legacy,legacy,0,uniform,0,0,0,0,24,24,24,0,0,38,38,38,38,38,0,38,0,,,,,,0,,26-01-22,26-01-22,19:32:05,Sat Feb 26 2022 19:32:05 GMT+0100 (közép-európai téli idő),The main experiment item,yes,0,0,C:/Users/rrics/Documents/!!ResearchBMECOGSCI/gnet,0,0,0,prototype1.png,no,mono,no,18,no,black,no,no,768,1147,3.5.6,legacy,xpyriment,osweb,1.3.13,0,left,k,left,,40396,31263,40396,,2,legacy,1040,1920,24,1080,24,-1920,-249,1920,1645900372050,1024,2,48000,-16,experiment,p7sarr1.png,1,odd,Win32,129,143214,140199,128,129,437815,439320,432813,144731,432813,128,,,,,,visual_patterns,0,0,0,yes,1366
undefined,undefined,undefined,undefined,white,no,Mozilla,Netscape,"5.0 (Windows NT 10.0; Win64; x64) AppleWebKit/537.36 (KHTML, like Gecko) Chrome/98.0.4758.102 Safari/537.36",xpyriment,legacy,legacy,0,uniform,0,0,0,0,24,24,24,0,0,39,39,39,39,39,0,39,0,,,,,,0,,26-01-22,26-01-22,19:32:05,Sat Feb 26 2022 19:32:05 GMT+0100 (közép-európai téli idő),The main experiment item,yes,0,0,C:/Users/rrics/Documents/!!ResearchBMECOGSCI/gnet,0,0,0,prototype1.png,no,mono,no,18,no,black,no,no,768,1147,3.5.6,legacy,xpyriment,osweb,1.3.13,0,left,k,left,,40396,31263,40396,,2,legacy,1040,1920,24,1080,24,-1920,-249,1920,1645900372050,1024,2,48000,-16,experiment,p1sarrsha1.png,1,odd,Win32,129,143214,140199,128,129,444326,445836,439328,144731,439328,128,,,,,,visual_patterns,0,0,0,yes,1366
undefined,undefined,undefined,undefined,white,no,Mozilla,Netscape,"5.0 (Windows NT 10.0; Win64; x64) AppleWebKit/537.36 (KHTML, like Gecko) Chrome/98.0.4758.102 Safari/537.36",xpyriment,legacy,legacy,0,uniform,0,0,0,0,24,24,24,0,0,40,40,40,40,40,0,40,0,,,,,,0,,26-01-22,26-01-22,19:32:05,Sat Feb 26 2022 19:32:05 GMT+0100 (közép-európai téli idő),The main experiment item,yes,0,0,C:/Users/rrics/Documents/!!ResearchBMECOGSCI/gnet,0,0,0,prototype1.png,no,mono,no,18,no,black,no,no,768,1147,3.5.6,legacy,xpyriment,osweb,1.3.13,0,left,k,left,,40396,31263,40396,,2,legacy,1040,1920,24,1080,24,-1920,-249,1920,1645900372050,1024,2,48000,-16,experiment,prototype5.png,1,odd,Win32,129,143214,140199,128,129,450842,452351,445841,144731,445841,128,,,,,,visual_patterns,0,0,0,yes,1366
undefined,undefined,undefined,undefined,white,no,Mozilla,Netscape,"5.0 (Windows NT 10.0; Win64; x64) AppleWebKit/537.36 (KHTML, like Gecko) Chrome/98.0.4758.102 Safari/537.36",xpyriment,legacy,legacy,0,uniform,0,0,0,0,24,24,24,0,0,41,41,41,41,41,0,41,0,,,,,,0,,26-01-22,26-01-22,19:32:05,Sat Feb 26 2022 19:32:05 GMT+0100 (közép-európai téli idő),The main experiment item,yes,0,0,C:/Users/rrics/Documents/!!ResearchBMECOGSCI/gnet,0,0,0,prototype1.png,no,mono,no,18,no,black,no,no,768,1147,3.5.6,legacy,xpyriment,osweb,1.3.13,0,left,k,left,,40396,31263,40396,,2,legacy,1040,1920,24,1080,24,-1920,-249,1920,1645900372050,1024,2,48000,-16,experiment,p3sarrshacol2.png,1,odd,Win32,129,143214,140199,128,129,457357,458866,452358,144731,452358,128,,,,,,visual_patterns,0,0,0,yes,1366
undefined,undefined,undefined,undefined,white,no,Mozilla,Netscape,"5.0 (Windows NT 10.0; Win64; x64) AppleWebKit/537.36 (KHTML, like Gecko) Chrome/98.0.4758.102 Safari/537.36",xpyriment,legacy,legacy,0,uniform,0,0,0,0,24,24,24,0,0,42,42,42,42,42,0,42,0,,,,,,0,,26-01-22,26-01-22,19:32:05,Sat Feb 26 2022 19:32:05 GMT+0100 (közép-európai téli idő),The main experiment item,yes,0,0,C:/Users/rrics/Documents/!!ResearchBMECOGSCI/gnet,0,0,0,prototype1.png,no,mono,no,18,no,black,no,no,768,1147,3.5.6,legacy,xpyriment,osweb,1.3.13,0,left,k,left,,40396,31263,40396,,2,legacy,1040,1920,24,1080,24,-1920,-249,1920,1645900372050,1024,2,48000,-16,experiment,p3sarrcol2.png,1,odd,Win32,129,143214,140199,128,129,463875,465382,458873,144731,458873,128,,,,,,visual_patterns,0,0,0,yes,1366
undefined,undefined,undefined,undefined,white,no,Mozilla,Netscape,"5.0 (Windows NT 10.0; Win64; x64) AppleWebKit/537.36 (KHTML, like Gecko) Chrome/98.0.4758.102 Safari/537.36",xpyriment,legacy,legacy,0,uniform,0,0,0,0,24,24,24,0,0,43,43,43,43,43,0,43,0,,,,,,0,,26-01-22,26-01-22,19:32:05,Sat Feb 26 2022 19:32:05 GMT+0100 (közép-európai téli idő),The main experiment item,yes,0,0,C:/Users/rrics/Documents/!!ResearchBMECOGSCI/gnet,0,0,0,prototype1.png,no,mono,no,18,no,black,no,no,768,1147,3.5.6,legacy,xpyriment,osweb,1.3.13,0,left,k,left,,40396,31263,40396,,2,legacy,1040,1920,24,1080,24,-1920,-249,1920,1645900372050,1024,2,48000,-16,experiment,p3sarr2.png,1,odd,Win32,129,143214,140199,128,129,470405,471914,465406,144731,465406,128,,,,,,visual_patterns,0,0,0,yes,1366
undefined,undefined,undefined,undefined,white,no,Mozilla,Netscape,"5.0 (Windows NT 10.0; Win64; x64) AppleWebKit/537.36 (KHTML, like Gecko) Chrome/98.0.4758.102 Safari/537.36",xpyriment,legacy,legacy,0,uniform,0,0,0,0,24,24,24,0,0,44,44,44,44,44,0,44,0,,,,,,0,,26-01-22,26-01-22,19:32:05,Sat Feb 26 2022 19:32:05 GMT+0100 (közép-európai téli idő),The main experiment item,yes,0,0,C:/Users/rrics/Documents/!!ResearchBMECOGSCI/gnet,0,0,0,prototype1.png,no,mono,no,18,no,black,no,no,768,1147,3.5.6,legacy,xpyriment,osweb,1.3.13,0,left,k,left,,40396,31263,40396,,2,legacy,1040,1920,24,1080,24,-1920,-249,1920,1645900372050,1024,2,48000,-16,experiment,p2sarrsha1.png,1,odd,Win32,129,143214,140199,128,129,476923,478429,471921,144731,471921,128,,,,,,visual_patterns,0,0,0,yes,1366
undefined,undefined,undefined,undefined,white,no,Mozilla,Netscape,"5.0 (Windows NT 10.0; Win64; x64) AppleWebKit/537.36 (KHTML, like Gecko) Chrome/98.0.4758.102 Safari/537.36",xpyriment,legacy,legacy,0,uniform,0,0,0,0,24,24,24,0,0,45,45,45,45,45,0,45,0,,,,,,0,,26-01-22,26-01-22,19:32:05,Sat Feb 26 2022 19:32:05 GMT+0100 (közép-európai téli idő),The main experiment item,yes,0,0,C:/Users/rrics/Documents/!!ResearchBMECOGSCI/gnet,0,0,0,prototype1.png,no,mono,no,18,no,black,no,no,768,1147,3.5.6,legacy,xpyriment,osweb,1.3.13,0,left,k,left,,40396,31263,40396,,2,legacy,1040,1920,24,1080,24,-1920,-249,1920,1645900372050,1024,2,48000,-16,experiment,p4sarrsha1.png,1,odd,Win32,129,143214,140199,128,129,483436,484944,478436,144731,478436,128,,,,,,visual_patterns,0,0,0,yes,1366
undefined,undefined,undefined,undefined,white,no,Mozilla,Netscape,"5.0 (Windows NT 10.0; Win64; x64) AppleWebKit/537.36 (KHTML, like Gecko) Chrome/98.0.4758.102 Safari/537.36",xpyriment,legacy,legacy,0,uniform,0,0,0,0,24,24,24,0,0,46,46,46,46,46,0,46,0,,,,,,0,,26-01-22,26-01-22,19:32:05,Sat Feb 26 2022 19:32:05 GMT+0100 (közép-európai téli idő),The main experiment item,yes,0,0,C:/Users/rrics/Documents/!!ResearchBMECOGSCI/gnet,0,0,0,prototype1.png,no,mono,no,18,no,black,no,no,768,1147,3.5.6,legacy,xpyriment,osweb,1.3.13,0,left,k,left,,40396,31263,40396,,2,legacy,1040,1920,24,1080,24,-1920,-249,1920,1645900372050,1024,2,48000,-16,experiment,p1sarrcol1.png,1,odd,Win32,129,143214,140199,128,129,489950,491460,484952,144731,484952,128,,,,,,visual_patterns,0,0,0,yes,1366
undefined,undefined,undefined,undefined,white,no,Mozilla,Netscape,"5.0 (Windows NT 10.0; Win64; x64) AppleWebKit/537.36 (KHTML, like Gecko) Chrome/98.0.4758.102 Safari/537.36",xpyriment,legacy,legacy,0,uniform,0,0,0,0,24,24,24,0,0,47,47,47,47,47,0,47,0,,,,,,0,,26-01-22,26-01-22,19:32:05,Sat Feb 26 2022 19:32:05 GMT+0100 (közép-európai téli idő),The main experiment item,yes,0,0,C:/Users/rrics/Documents/!!ResearchBMECOGSCI/gnet,0,0,0,prototype1.png,no,mono,no,18,no,black,no,no,768,1147,3.5.6,legacy,xpyriment,osweb,1.3.13,0,left,k,left,,40396,31263,40396,,2,legacy,1040,1920,24,1080,24,-1920,-249,1920,1645900372050,1024,2,48000,-16,experiment,p1sarrsha2.png,1,odd,Win32,129,143214,140199,128,129,496469,497975,491467,144731,491467,128,,,,,,visual_patterns,0,0,0,yes,1366
undefined,undefined,undefined,undefined,white,no,Mozilla,Netscape,"5.0 (Windows NT 10.0; Win64; x64) AppleWebKit/537.36 (KHTML, like Gecko) Chrome/98.0.4758.102 Safari/537.36",xpyriment,legacy,legacy,0,uniform,0,0,0,0,24,24,24,0,0,48,48,48,48,48,0,48,0,,,,,,0,,26-01-22,26-01-22,19:32:05,Sat Feb 26 2022 19:32:05 GMT+0100 (közép-európai téli idő),The main experiment item,yes,0,0,C:/Users/rrics/Documents/!!ResearchBMECOGSCI/gnet,0,0,0,prototype1.png,no,mono,no,18,no,black,no,no,768,1147,3.5.6,legacy,xpyriment,osweb,1.3.13,0,left,k,left,,40396,31263,40396,,2,legacy,1040,1920,24,1080,24,-1920,-249,1920,1645900372050,1024,2,48000,-16,experiment,p7sarr2.png,1,odd,Win32,129,143214,140199,128,129,503004,504507,498003,144731,498003,128,,,,,,visual_patterns,0,0,0,yes,1366
undefined,undefined,undefined,undefined,white,no,Mozilla,Netscape,"5.0 (Windows NT 10.0; Win64; x64) AppleWebKit/537.36 (KHTML, like Gecko) Chrome/98.0.4758.102 Safari/537.36",xpyriment,legacy,legacy,0,uniform,0,0,0,0,24,24,24,0,0,49,49,49,49,49,0,49,0,,,,,,0,,26-01-22,26-01-22,19:32:05,Sat Feb 26 2022 19:32:05 GMT+0100 (közép-európai téli idő),The main experiment item,yes,0,0,C:/Users/rrics/Documents/!!ResearchBMECOGSCI/gnet,0,0,0,prototype1.png,no,mono,no,18,no,black,no,no,768,1147,3.5.6,legacy,xpyriment,osweb,1.3.13,0,left,k,left,,40396,31263,40396,,2,legacy,1040,1920,24,1080,24,-1920,-249,1920,1645900372050,1024,2,48000,-16,experiment,p4sarr1.png,1,odd,Win32,129,143214,140199,128,129,509514,511022,504514,144731,504514,128,,,,,,visual_patterns,0,0,0,yes,1366
undefined,undefined,undefined,undefined,white,no,Mozilla,Netscape,"5.0 (Windows NT 10.0; Win64; x64) AppleWebKit/537.36 (KHTML, like Gecko) Chrome/98.0.4758.102 Safari/537.36",xpyriment,legacy,legacy,0,uniform,0,0,0,0,24,24,24,0,0,50,50,50,50,50,0,50,0,,,,,,0,,26-01-22,26-01-22,19:32:05,Sat Feb 26 2022 19:32:05 GMT+0100 (közép-európai téli idő),The main experiment item,yes,0,0,C:/Users/rrics/Documents/!!ResearchBMECOGSCI/gnet,0,0,0,prototype1.png,no,mono,no,18,no,black,no,no,768,1147,3.5.6,legacy,xpyriment,osweb,1.3.13,0,left,k,left,,40396,31263,40396,,2,legacy,1040,1920,24,1080,24,-1920,-249,1920,1645900372050,1024,2,48000,-16,experiment,p10sarr1.png,1,odd,Win32,129,143214,140199,128,129,516028,517538,511030,144731,511030,128,,,,,,visual_patterns,0,0,0,yes,1366
undefined,undefined,undefined,undefined,white,no,Mozilla,Netscape,"5.0 (Windows NT 10.0; Win64; x64) AppleWebKit/537.36 (KHTML, like Gecko) Chrome/98.0.4758.102 Safari/537.36",xpyriment,legacy,legacy,0,uniform,0,0,0,0,24,24,24,0,0,51,51,51,51,51,0,51,0,,,,,,0,,26-01-22,26-01-22,19:32:05,Sat Feb 26 2022 19:32:05 GMT+0100 (közép-európai téli idő),The main experiment item,yes,0,0,C:/Users/rrics/Documents/!!ResearchBMECOGSCI/gnet,0,0,0,prototype1.png,no,mono,no,18,no,black,no,no,768,1147,3.5.6,legacy,xpyriment,osweb,1.3.13,0,left,k,left,,40396,31263,40396,,2,legacy,1040,1920,24,1080,24,-1920,-249,1920,1645900372050,1024,2,48000,-16,experiment,prototype3.png,1,odd,Win32,129,143214,140199,128,129,522545,524053,517544,144731,517544,128,,,,,,visual_patterns,0,0,0,yes,1366
undefined,undefined,undefined,undefined,white,no,Mozilla,Netscape,"5.0 (Windows NT 10.0; Win64; x64) AppleWebKit/537.36 (KHTML, like Gecko) Chrome/98.0.4758.102 Safari/537.36",xpyriment,legacy,legacy,0,uniform,0,0,0,0,24,24,24,0,0,52,52,52,52,52,0,52,0,,,,,,0,,26-01-22,26-01-22,19:32:05,Sat Feb 26 2022 19:32:05 GMT+0100 (közép-európai téli idő),The main experiment item,yes,0,0,C:/Users/rrics/Documents/!!ResearchBMECOGSCI/gnet,0,0,0,prototype1.png,no,mono,no,18,no,black,no,no,768,1147,3.5.6,legacy,xpyriment,osweb,1.3.13,0,left,k,left,,40396,31263,40396,,2,legacy,1040,1920,24,1080,24,-1920,-249,1920,1645900372050,1024,2,48000,-16,experiment,p1sarr1.png,1,odd,Win32,129,143214,140199,128,129,529061,530568,524060,144731,524060,128,,,,,,visual_patterns,0,0,0,yes,1366
undefined,undefined,undefined,undefined,white,no,Mozilla,Netscape,"5.0 (Windows NT 10.0; Win64; x64) AppleWebKit/537.36 (KHTML, like Gecko) Chrome/98.0.4758.102 Safari/537.36",xpyriment,legacy,legacy,0,uniform,0,0,0,0,24,24,24,0,0,53,53,53,53,53,0,53,0,,,,,,0,,26-01-22,26-01-22,19:32:05,Sat Feb 26 2022 19:32:05 GMT+0100 (közép-európai téli idő),The main experiment item,yes,0,0,C:/Users/rrics/Documents/!!ResearchBMECOGSCI/gnet,0,0,0,prototype1.png,no,mono,no,18,no,black,no,no,768,1147,3.5.6,legacy,xpyriment,osweb,1.3.13,0,left,k,left,,40396,31263,40396,,2,legacy,1040,1920,24,1080,24,-1920,-249,1920,1645900372050,1024,2,48000,-16,experiment,p1sarrcol2.png,1,odd,Win32,129,143214,140199,128,129,535578,537084,530575,144731,530575,128,,,,,,visual_patterns,0,0,0,yes,1366
undefined,undefined,undefined,undefined,white,no,Mozilla,Netscape,"5.0 (Windows NT 10.0; Win64; x64) AppleWebKit/537.36 (KHTML, like Gecko) Chrome/98.0.4758.102 Safari/537.36",xpyriment,legacy,legacy,0,uniform,0,0,0,0,24,24,24,0,0,54,54,54,54,54,0,54,0,,,,,,0,,26-01-22,26-01-22,19:32:05,Sat Feb 26 2022 19:32:05 GMT+0100 (közép-európai téli idő),The main experiment item,yes,0,0,C:/Users/rrics/Documents/!!ResearchBMECOGSCI/gnet,0,0,0,prototype1.png,no,mono,no,18,no,black,no,no,768,1147,3.5.6,legacy,xpyriment,osweb,1.3.13,0,left,k,left,,40396,31263,40396,,2,legacy,1040,1920,24,1080,24,-1920,-249,1920,1645900372050,1024,2,48000,-16,experiment,p2sarrcol2.png,1,odd,Win32,129,143214,140199,128,129,542092,543599,537092,144731,537092,128,,,,,,visual_patterns,0,0,0,yes,1366
undefined,undefined,undefined,undefined,white,no,Mozilla,Netscape,"5.0 (Windows NT 10.0; Win64; x64) AppleWebKit/537.36 (KHTML, like Gecko) Chrome/98.0.4758.102 Safari/537.36",xpyriment,legacy,legacy,0,uniform,0,0,0,0,24,24,24,0,0,55,55,55,55,55,0,55,0,,,,,,0,,26-01-22,26-01-22,19:32:05,Sat Feb 26 2022 19:32:05 GMT+0100 (közép-európai téli idő),The main experiment item,yes,0,0,C:/Users/rrics/Documents/!!ResearchBMECOGSCI/gnet,0,0,0,prototype1.png,no,mono,no,18,no,black,no,no,768,1147,3.5.6,legacy,xpyriment,osweb,1.3.13,0,left,k,left,,40396,31263,40396,,2,legacy,1040,1920,24,1080,24,-1920,-249,1920,1645900372050,1024,2,48000,-16,experiment,prototype4.png,1,odd,Win32,129,143214,140199,128,129,548605,550114,543605,144731,543605,128,,,,,,visual_patterns,0,0,0,yes,1366
undefined,undefined,undefined,undefined,white,no,Mozilla,Netscape,"5.0 (Windows NT 10.0; Win64; x64) AppleWebKit/537.36 (KHTML, like Gecko) Chrome/98.0.4758.102 Safari/537.36",xpyriment,legacy,legacy,0,uniform,0,0,0,0,24,24,24,0,0,56,56,56,56,56,0,56,0,,,,,,0,,26-01-22,26-01-22,19:32:05,Sat Feb 26 2022 19:32:05 GMT+0100 (közép-európai téli idő),The main experiment item,yes,0,0,C:/Users/rrics/Documents/!!ResearchBMECOGSCI/gnet,0,0,0,prototype1.png,no,mono,no,18,no,black,no,no,768,1147,3.5.6,legacy,xpyriment,osweb,1.3.13,0,left,k,left,,40396,31263,40396,,2,legacy,1040,1920,24,1080,24,-1920,-249,1920,1645900372050,1024,2,48000,-16,experiment,p2sarrshacol1.png,1,odd,Win32,129,143214,140199,128,129,555124,556630,550122,144731,550122,128,,,,,,visual_patterns,0,0,0,yes,1366
undefined,undefined,undefined,undefined,white,no,Mozilla,Netscape,"5.0 (Windows NT 10.0; Win64; x64) AppleWebKit/537.36 (KHTML, like Gecko) Chrome/98.0.4758.102 Safari/537.36",xpyriment,legacy,legacy,0,uniform,0,0,0,0,24,24,24,0,0,57,57,57,57,57,0,57,0,,,,,,0,,26-01-22,26-01-22,19:32:05,Sat Feb 26 2022 19:32:05 GMT+0100 (közép-európai téli idő),The main experiment item,yes,0,0,C:/Users/rrics/Documents/!!ResearchBMECOGSCI/gnet,0,0,0,prototype1.png,no,mono,no,18,no,black,no,no,768,1147,3.5.6,legacy,xpyriment,osweb,1.3.13,0,left,k,left,,40396,31263,40396,,2,legacy,1040,1920,24,1080,24,-1920,-249,1920,1645900372050,1024,2,48000,-16,experiment,prototype5.png,1,odd,Win32,129,143214,140199,128,129,561640,563145,556636,144731,556636,128,,,,,,visual_patterns,0,0,0,yes,1366
undefined,undefined,undefined,undefined,white,no,Mozilla,Netscape,"5.0 (Windows NT 10.0; Win64; x64) AppleWebKit/537.36 (KHTML, like Gecko) Chrome/98.0.4758.102 Safari/537.36",xpyriment,legacy,legacy,0,uniform,0,0,0,0,24,24,24,0,0,58,58,58,58,58,0,58,0,,,,,,0,,26-01-22,26-01-22,19:32:05,Sat Feb 26 2022 19:32:05 GMT+0100 (közép-európai téli idő),The main experiment item,yes,0,0,C:/Users/rrics/Documents/!!ResearchBMECOGSCI/gnet,0,0,0,prototype1.png,no,mono,no,18,no,black,no,no,768,1147,3.5.6,legacy,xpyriment,osweb,1.3.13,0,left,k,left,,40396,31263,40396,,2,legacy,1040,1920,24,1080,24,-1920,-249,1920,1645900372050,1024,2,48000,-16,experiment,prototype2.png,1,odd,Win32,129,143214,140199,128,129,568152,569660,563152,144731,563152,128,,,,,,visual_patterns,0,0,0,yes,1366
undefined,undefined,undefined,undefined,white,no,Mozilla,Netscape,"5.0 (Windows NT 10.0; Win64; x64) AppleWebKit/537.36 (KHTML, like Gecko) Chrome/98.0.4758.102 Safari/537.36",xpyriment,legacy,legacy,0,uniform,0,0,0,0,24,24,24,0,0,59,59,59,59,59,0,59,0,,,,,,0,,26-01-22,26-01-22,19:32:05,Sat Feb 26 2022 19:32:05 GMT+0100 (közép-európai téli idő),The main experiment item,yes,0,0,C:/Users/rrics/Documents/!!ResearchBMECOGSCI/gnet,0,0,0,prototype1.png,no,mono,no,18,no,black,no,no,768,1147,3.5.6,legacy,xpyriment,osweb,1.3.13,0,left,k,left,,40396,31263,40396,,2,legacy,1040,1920,24,1080,24,-1920,-249,1920,1645900372050,1024,2,48000,-16,experiment,prototype5.png,1,odd,Win32,129,143214,140199,128,129,574669,576176,569666,144731,569666,128,,,,,,visual_patterns,0,0,0,yes,1366
undefined,undefined,undefined,undefined,white,no,Mozilla,Netscape,"5.0 (Windows NT 10.0; Win64; x64) AppleWebKit/537.36 (KHTML, like Gecko) Chrome/98.0.4758.102 Safari/537.36",xpyriment,legacy,legacy,0,uniform,0,0,0,0,24,24,24,0,0,60,60,60,60,60,0,60,0,,,,,,0,,26-01-22,26-01-22,19:32:05,Sat Feb 26 2022 19:32:05 GMT+0100 (közép-európai téli idő),The main experiment item,yes,0,0,C:/Users/rrics/Documents/!!ResearchBMECOGSCI/gnet,0,0,0,prototype1.png,no,mono,no,18,no,black,no,no,768,1147,3.5.6,legacy,xpyriment,osweb,1.3.13,0,left,k,left,,40396,31263,40396,,2,legacy,1040,1920,24,1080,24,-1920,-249,1920,1645900372050,1024,2,48000,-16,experiment,p1sarrshacol2.png,1,odd,Win32,129,143214,140199,128,129,581186,582691,576184,144731,576184,128,,,,,,visual_patterns,0,0,0,yes,1366
undefined,undefined,undefined,undefined,white,no,Mozilla,Netscape,"5.0 (Windows NT 10.0; Win64; x64) AppleWebKit/537.36 (KHTML, like Gecko) Chrome/98.0.4758.102 Safari/537.36",xpyriment,legacy,legacy,0,uniform,0,0,0,0,24,24,24,0,0,61,61,61,61,61,0,61,0,,,,,,0,,26-01-22,26-01-22,19:32:05,Sat Feb 26 2022 19:32:05 GMT+0100 (közép-európai téli idő),The main experiment item,yes,0,0,C:/Users/rrics/Documents/!!ResearchBMECOGSCI/gnet,0,0,0,prototype1.png,no,mono,no,18,no,black,no,no,768,1147,3.5.6,legacy,xpyriment,osweb,1.3.13,0,left,k,left,,40396,31263,40396,,2,legacy,1040,1920,24,1080,24,-1920,-249,1920,1645900372050,1024,2,48000,-16,experiment,p2sarrcol1.png,1,odd,Win32,129,143214,140199,128,129,587701,589206,582698,144731,582698,128,,,,,,visual_patterns,0,0,0,yes,1366
undefined,undefined,undefined,undefined,white,no,Mozilla,Netscape,"5.0 (Windows NT 10.0; Win64; x64) AppleWebKit/537.36 (KHTML, like Gecko) Chrome/98.0.4758.102 Safari/537.36",xpyriment,legacy,legacy,0,uniform,0,0,0,0,24,24,24,0,0,62,62,62,62,62,0,62,0,,,,,,0,,26-01-22,26-01-22,19:32:05,Sat Feb 26 2022 19:32:05 GMT+0100 (közép-európai téli idő),The main experiment item,yes,0,0,C:/Users/rrics/Documents/!!ResearchBMECOGSCI/gnet,0,0,0,prototype1.png,no,mono,no,18,no,black,no,no,768,1147,3.5.6,legacy,xpyriment,osweb,1.3.13,0,left,k,left,,40396,31263,40396,,2,legacy,1040,1920,24,1080,24,-1920,-249,1920,1645900372050,1024,2,48000,-16,experiment,p5sarr2.png,1,odd,Win32,129,143214,140199,128,129,594216,595722,589214,144731,589214,128,,,,,,visual_patterns,0,0,0,yes,1366
undefined,undefined,undefined,undefined,white,no,Mozilla,Netscape,"5.0 (Windows NT 10.0; Win64; x64) AppleWebKit/537.36 (KHTML, like Gecko) Chrome/98.0.4758.102 Safari/537.36",xpyriment,legacy,legacy,0,uniform,0,0,0,0,24,24,24,0,0,63,63,63,63,63,0,63,0,,,,,,0,,26-01-22,26-01-22,19:32:05,Sat Feb 26 2022 19:32:05 GMT+0100 (közép-európai téli idő),The main experiment item,yes,0,0,C:/Users/rrics/Documents/!!ResearchBMECOGSCI/gnet,0,0,0,prototype1.png,no,mono,no,18,no,black,no,no,768,1147,3.5.6,legacy,xpyriment,osweb,1.3.13,0,left,k,left,,40396,31263,40396,,2,legacy,1040,1920,24,1080,24,-1920,-249,1920,1645900372050,1024,2,48000,-16,experiment,p10sarr2.png,1,odd,Win32,129,143214,140199,128,129,600731,602237,595730,144731,595730,128,,,,,,visual_patterns,0,0,0,yes,1366
undefined,undefined,undefined,undefined,white,no,Mozilla,Netscape,"5.0 (Windows NT 10.0; Win64; x64) AppleWebKit/537.36 (KHTML, like Gecko) Chrome/98.0.4758.102 Safari/537.36",xpyriment,legacy,legacy,0,uniform,0,0,0,0,24,24,24,0,0,64,64,64,64,64,0,64,0,,,,,,0,,26-01-22,26-01-22,19:32:05,Sat Feb 26 2022 19:32:05 GMT+0100 (közép-európai téli idő),The main experiment item,yes,0,0,C:/Users/rrics/Documents/!!ResearchBMECOGSCI/gnet,0,0,0,prototype1.png,no,mono,no,18,no,black,no,no,768,1147,3.5.6,legacy,xpyriment,osweb,1.3.13,0,left,k,left,,40396,31263,40396,,2,legacy,1040,1920,24,1080,24,-1920,-249,1920,1645900372050,1024,2,48000,-16,experiment,prototype1.png,1,odd,Win32,129,143214,140199,128,129,607244,608752,602243,144731,602243,128,,,,,,visual_patterns,0,0,0,yes,1366
undefined,undefined,undefined,undefined,white,no,Mozilla,Netscape,"5.0 (Windows NT 10.0; Win64; x64) AppleWebKit/537.36 (KHTML, like Gecko) Chrome/98.0.4758.102 Safari/537.36",xpyriment,legacy,legacy,0,uniform,0,0,0,0,24,24,24,0,0,65,65,65,65,65,0,65,0,,,,,,0,,26-01-22,26-01-22,19:32:05,Sat Feb 26 2022 19:32:05 GMT+0100 (közép-európai téli idő),The main experiment item,yes,0,0,C:/Users/rrics/Documents/!!ResearchBMECOGSCI/gnet,0,0,0,prototype1.png,no,mono,no,18,no,black,no,no,768,1147,3.5.6,legacy,xpyriment,osweb,1.3.13,0,left,k,left,,40396,31263,40396,,2,legacy,1040,1920,24,1080,24,-1920,-249,1920,1645900372050,1024,2,48000,-16,experiment,prototype4.png,1,odd,Win32,129,143214,140199,128,129,613760,615268,608758,144731,608758,128,,,,,,visual_patterns,0,0,0,yes,1366
undefined,undefined,undefined,undefined,white,no,Mozilla,Netscape,"5.0 (Windows NT 10.0; Win64; x64) AppleWebKit/537.36 (KHTML, like Gecko) Chrome/98.0.4758.102 Safari/537.36",xpyriment,legacy,legacy,0,uniform,0,0,0,0,24,24,24,0,0,66,66,66,66,66,0,66,0,,,,,,0,,26-01-22,26-01-22,19:32:05,Sat Feb 26 2022 19:32:05 GMT+0100 (közép-európai téli idő),The main experiment item,yes,0,0,C:/Users/rrics/Documents/!!ResearchBMECOGSCI/gnet,0,0,0,prototype1.png,no,mono,no,18,no,black,no,no,768,1147,3.5.6,legacy,xpyriment,osweb,1.3.13,0,left,k,left,,40396,31263,40396,,2,legacy,1040,1920,24,1080,24,-1920,-249,1920,1645900372050,1024,2,48000,-16,experiment,p2sarrshacol2.png,1,odd,Win32,129,143214,140199,128,129,620278,621783,615276,144731,615276,128,,,,,,visual_patterns,0,0,0,yes,1366
undefined,undefined,undefined,undefined,white,no,Mozilla,Netscape,"5.0 (Windows NT 10.0; Win64; x64) AppleWebKit/537.36 (KHTML, like Gecko) Chrome/98.0.4758.102 Safari/537.36",xpyriment,legacy,legacy,0,uniform,0,0,0,0,24,24,24,0,0,67,67,67,67,67,0,67,0,,,,,,0,,26-01-22,26-01-22,19:32:05,Sat Feb 26 2022 19:32:05 GMT+0100 (közép-európai téli idő),The main experiment item,yes,0,0,C:/Users/rrics/Documents/!!ResearchBMECOGSCI/gnet,0,0,0,prototype1.png,no,mono,no,18,no,black,no,no,768,1147,3.5.6,legacy,xpyriment,osweb,1.3.13,0,left,k,left,,40396,31263,40396,,2,legacy,1040,1920,24,1080,24,-1920,-249,1920,1645900372050,1024,2,48000,-16,experiment,p1sarr2.png,1,odd,Win32,129,143214,140199,128,129,626791,628299,621790,144731,621790,128,,,,,,visual_patterns,0,0,0,yes,1366
undefined,undefined,undefined,undefined,white,no,Mozilla,Netscape,"5.0 (Windows NT 10.0; Win64; x64) AppleWebKit/537.36 (KHTML, like Gecko) Chrome/98.0.4758.102 Safari/537.36",xpyriment,legacy,legacy,0,uniform,0,0,0,0,24,24,24,0,0,68,68,68,68,68,0,68,0,,,,,,0,,26-01-22,26-01-22,19:32:05,Sat Feb 26 2022 19:32:05 GMT+0100 (közép-európai téli idő),The main experiment item,yes,0,0,C:/Users/rrics/Documents/!!ResearchBMECOGSCI/gnet,0,0,0,prototype1.png,no,mono,no,18,no,black,no,no,768,1147,3.5.6,legacy,xpyriment,osweb,1.3.13,0,left,k,left,,40396,31263,40396,,2,legacy,1040,1920,24,1080,24,-1920,-249,1920,1645900372050,1024,2,48000,-16,experiment,p6sarr2.png,1,odd,Win32,129,143214,140199,128,129,633307,634814,628306,144731,628306,128,,,,,,visual_patterns,0,0,0,yes,1366
undefined,undefined,undefined,undefined,white,no,Mozilla,Netscape,"5.0 (Windows NT 10.0; Win64; x64) AppleWebKit/537.36 (KHTML, like Gecko) Chrome/98.0.4758.102 Safari/537.36",xpyriment,legacy,legacy,0,uniform,0,0,0,0,24,24,24,0,0,69,69,69,69,69,0,69,0,,,,,,0,,26-01-22,26-01-22,19:32:05,Sat Feb 26 2022 19:32:05 GMT+0100 (közép-európai téli idő),The main experiment item,yes,0,0,C:/Users/rrics/Documents/!!ResearchBMECOGSCI/gnet,0,0,0,prototype1.png,no,mono,no,18,no,black,no,no,768,1147,3.5.6,legacy,xpyriment,osweb,1.3.13,0,left,k,left,,40396,31263,40396,,2,legacy,1040,1920,24,1080,24,-1920,-249,1920,1645900372050,1024,2,48000,-16,experiment,prototype2.png,1,odd,Win32,129,143214,140199,128,129,639823,641329,634820,144731,634820,128,,,,,,visual_patterns,0,0,0,yes,1366
undefined,undefined,undefined,undefined,white,no,Mozilla,Netscape,"5.0 (Windows NT 10.0; Win64; x64) AppleWebKit/537.36 (KHTML, like Gecko) Chrome/98.0.4758.102 Safari/537.36",xpyriment,legacy,legacy,0,uniform,0,0,0,0,24,24,24,0,0,70,70,70,70,70,0,70,0,,,,,,0,,26-01-22,26-01-22,19:32:05,Sat Feb 26 2022 19:32:05 GMT+0100 (közép-európai téli idő),The main experiment item,yes,0,0,C:/Users/rrics/Documents/!!ResearchBMECOGSCI/gnet,0,0,0,prototype1.png,no,mono,no,18,no,black,no,no,768,1147,3.5.6,legacy,xpyriment,osweb,1.3.13,0,left,k,left,,40396,31263,40396,,2,legacy,1040,1920,24,1080,24,-1920,-249,1920,1645900372050,1024,2,48000,-16,experiment,p1sarrshacol1.png,1,odd,Win32,129,143214,140199,128,129,646336,647845,641337,144731,641337,128,,,,,,visual_patterns,0,0,0,yes,1366
undefined,undefined,undefined,undefined,white,no,Mozilla,Netscape,"5.0 (Windows NT 10.0; Win64; x64) AppleWebKit/537.36 (KHTML, like Gecko) Chrome/98.0.4758.102 Safari/537.36",xpyriment,legacy,legacy,0,uniform,0,0,0,0,24,24,24,0,0,71,71,71,71,71,0,71,0,,,,,,0,,26-01-22,26-01-22,19:32:05,Sat Feb 26 2022 19:32:05 GMT+0100 (közép-európai téli idő),The main experiment item,yes,0,0,C:/Users/rrics/Documents/!!ResearchBMECOGSCI/gnet,0,0,0,prototype1.png,no,mono,no,18,no,black,no,no,768,1147,3.5.6,legacy,xpyriment,osweb,1.3.13,0,left,k,left,,40396,31263,40396,,2,legacy,1040,1920,24,1080,24,-1920,-249,1920,1645900372050,1024,2,48000,-16,experiment,prototype1.png,1,odd,Win32,129,143214,140199,128,129,652854,654360,647850,144731,647850,128,,,,,,visual_patterns,0,0,0,yes,1366
undefined,undefined,undefined,undefined,white,no,Mozilla,Netscape,"5.0 (Windows NT 10.0; Win64; x64) AppleWebKit/537.36 (KHTML, like Gecko) Chrome/98.0.4758.102 Safari/537.36",xpyriment,legacy,legacy,0,uniform,0,0,0,0,24,24,24,0,0,72,72,72,72,72,0,72,0,,,,,,0,,26-01-22,26-01-22,19:32:05,Sat Feb 26 2022 19:32:05 GMT+0100 (közép-európai téli idő),The main experiment item,yes,0,0,C:/Users/rrics/Documents/!!ResearchBMECOGSCI/gnet,0,0,0,prototype1.png,no,mono,no,18,no,black,no,no,768,1147,3.5.6,legacy,xpyriment,osweb,1.3.13,0,left,k,left,,40396,31263,40396,,2,legacy,1040,1920,24,1080,24,-1920,-249,1920,1645900372050,1024,2,48000,-16,experiment,prototype5.png,1,odd,Win32,129,143214,140199,128,129,659366,660875,654366,144731,654366,128,,,,,,visual_patterns,0,0,0,yes,1366
undefined,undefined,undefined,undefined,white,no,Mozilla,Netscape,"5.0 (Windows NT 10.0; Win64; x64) AppleWebKit/537.36 (KHTML, like Gecko) Chrome/98.0.4758.102 Safari/537.36",xpyriment,legacy,legacy,0,uniform,0,0,0,0,24,24,24,0,0,73,73,73,73,73,0,73,0,,,,,,0,,26-01-22,26-01-22,19:32:05,Sat Feb 26 2022 19:32:05 GMT+0100 (közép-európai téli idő),The main experiment item,yes,0,0,C:/Users/rrics/Documents/!!ResearchBMECOGSCI/gnet,0,0,0,prototype1.png,no,mono,no,18,no,black,no,no,768,1147,3.5.6,legacy,xpyriment,osweb,1.3.13,0,left,k,left,,40396,31263,40396,,2,legacy,1040,1920,24,1080,24,-1920,-249,1920,1645900372050,1024,2,48000,-16,experiment,prototype3.png,1,odd,Win32,129,143214,140199,128,129,665882,667391,660881,144731,660881,128,,,,,,visual_patterns,0,0,0,yes,1366
undefined,undefined,undefined,undefined,white,no,Mozilla,Netscape,"5.0 (Windows NT 10.0; Win64; x64) AppleWebKit/537.36 (KHTML, like Gecko) Chrome/98.0.4758.102 Safari/537.36",xpyriment,legacy,legacy,0,uniform,0,0,0,0,24,24,24,0,0,74,74,74,74,74,0,74,0,,,,,,0,,26-01-22,26-01-22,19:32:05,Sat Feb 26 2022 19:32:05 GMT+0100 (közép-európai téli idő),The main experiment item,yes,0,0,C:/Users/rrics/Documents/!!ResearchBMECOGSCI/gnet,0,0,0,prototype1.png,no,mono,no,18,no,black,no,no,768,1147,3.5.6,legacy,xpyriment,osweb,1.3.13,0,left,k,left,,40396,31263,40396,,2,legacy,1040,1920,24,1080,24,-1920,-249,1920,1645900372050,1024,2,48000,-16,experiment,prototype2.png,1,odd,Win32,129,143214,140199,128,129,672399,673906,667397,144731,667397,128,,,,,,visual_patterns,0,0,0,yes,1366
undefined,undefined,undefined,undefined,white,no,Mozilla,Netscape,"5.0 (Windows NT 10.0; Win64; x64) AppleWebKit/537.36 (KHTML, like Gecko) Chrome/98.0.4758.102 Safari/537.36",xpyriment,legacy,legacy,0,uniform,0,0,0,0,24,24,24,0,0,74,74,74,74,74,0,74,0,0,0,0,0,0,0,0,26-01-22,26-01-22,19:32:05,Sat Feb 26 2022 19:32:05 GMT+0100 (közép-európai téli idő),The main experiment item,yes,0,0,C:/Users/rrics/Documents/!!ResearchBMECOGSCI/gnet,0,0,0,prototype1.png,no,mono,no,18,no,black,no,no,768,1147,3.5.6,legacy,xpyriment,osweb,1.3.13,0,down,k,left,down,52420,31263,40396,52420,2,legacy,1040,1920,24,1080,24,-1920,-249,1920,1645900372050,1024,2,48000,-16,experiment,p5sarrsha3.png,1,odd,Win32,129,143214,140199,128,129,672399,673906,667397,144731,667397,128,729344,730861,726346,673909,726346,visual_patterns,0,0,0,yes,1366
undefined,undefined,undefined,undefined,white,no,Mozilla,Netscape,"5.0 (Windows NT 10.0; Win64; x64) AppleWebKit/537.36 (KHTML, like Gecko) Chrome/98.0.4758.102 Safari/537.36",xpyriment,legacy,legacy,0,uniform,0,0,0,0,24,24,24,0,0,74,74,74,74,74,0,74,0,1,1,1,1,1,0,1,26-01-22,26-01-22,19:32:05,Sat Feb 26 2022 19:32:05 GMT+0100 (közép-európai téli idő),The main experiment item,yes,0,0,C:/Users/rrics/Documents/!!ResearchBMECOGSCI/gnet,0,0,0,prototype1.png,no,mono,no,18,no,black,no,no,768,1147,3.5.6,legacy,xpyriment,osweb,1.3.13,0,down,k,left,down,52420,31263,40396,52420,2,legacy,1040,1920,24,1080,24,-1920,-249,1920,1645900372050,1024,2,48000,-16,experiment,p2sarrshacol1.png,1,odd,Win32,129,143214,140199,128,129,672399,673906,667397,144731,667397,128,733874,735377,730869,673909,730869,visual_patterns,0,0,0,yes,1366
undefined,undefined,undefined,undefined,white,no,Mozilla,Netscape,"5.0 (Windows NT 10.0; Win64; x64) AppleWebKit/537.36 (KHTML, like Gecko) Chrome/98.0.4758.102 Safari/537.36",xpyriment,legacy,legacy,0,uniform,0,0,0,0,24,24,24,0,0,74,74,74,74,74,0,74,0,2,2,2,2,2,0,2,26-01-22,26-01-22,19:32:05,Sat Feb 26 2022 19:32:05 GMT+0100 (közép-európai téli idő),The main experiment item,yes,0,0,C:/Users/rrics/Documents/!!ResearchBMECOGSCI/gnet,0,0,0,prototype1.png,no,mono,no,18,no,black,no,no,768,1147,3.5.6,legacy,xpyriment,osweb,1.3.13,0,down,k,left,down,52420,31263,40396,52420,2,legacy,1040,1920,24,1080,24,-1920,-249,1920,1645900372050,1024,2,48000,-16,experiment,p4sarr4.png,1,odd,Win32,129,143214,140199,128,129,672399,673906,667397,144731,667397,128,738386,739893,735385,673909,735385,visual_patterns,0,0,0,yes,1366
undefined,undefined,undefined,undefined,white,no,Mozilla,Netscape,"5.0 (Windows NT 10.0; Win64; x64) AppleWebKit/537.36 (KHTML, like Gecko) Chrome/98.0.4758.102 Safari/537.36",xpyriment,legacy,legacy,0,uniform,0,0,0,0,24,24,24,0,0,74,74,74,74,74,0,74,0,3,3,3,3,3,0,3,26-01-22,26-01-22,19:32:05,Sat Feb 26 2022 19:32:05 GMT+0100 (közép-európai téli idő),The main experiment item,yes,0,0,C:/Users/rrics/Documents/!!ResearchBMECOGSCI/gnet,0,0,0,prototype1.png,no,mono,no,18,no,black,no,no,768,1147,3.5.6,legacy,xpyriment,osweb,1.3.13,0,down,k,left,down,52420,31263,40396,52420,2,legacy,1040,1920,24,1080,24,-1920,-249,1920,1645900372050,1024,2,48000,-16,experiment,p5sarrsha2.png,1,odd,Win32,129,143214,140199,128,129,672399,673906,667397,144731,667397,128,742921,744425,739919,673909,739919,visual_patterns,0,0,0,yes,1366
undefined,undefined,undefined,undefined,white,no,Mozilla,Netscape,"5.0 (Windows NT 10.0; Win64; x64) AppleWebKit/537.36 (KHTML, like Gecko) Chrome/98.0.4758.102 Safari/537.36",xpyriment,legacy,legacy,0,uniform,0,0,0,0,24,24,24,0,0,74,74,74,74,74,0,74,0,4,4,4,4,4,0,4,26-01-22,26-01-22,19:32:05,Sat Feb 26 2022 19:32:05 GMT+0100 (közép-európai téli idő),The main experiment item,yes,0,0,C:/Users/rrics/Documents/!!ResearchBMECOGSCI/gnet,0,0,0,prototype1.png,no,mono,no,18,no,black,no,no,768,1147,3.5.6,legacy,xpyriment,osweb,1.3.13,0,down,k,left,down,52420,31263,40396,52420,2,legacy,1040,1920,24,1080,24,-1920,-249,1920,1645900372050,1024,2,48000,-16,experiment,p7sarr2.png,1,odd,Win32,129,143214,140199,128,129,672399,673906,667397,144731,667397,128,747434,748941,744434,673909,744434,visual_patterns,0,0,0,yes,1366
undefined,undefined,undefined,undefined,white,no,Mozilla,Netscape,"5.0 (Windows NT 10.0; Win64; x64) AppleWebKit/537.36 (KHTML, like Gecko) Chrome/98.0.4758.102 Safari/537.36",xpyriment,legacy,legacy,0,uniform,0,0,0,0,24,24,24,0,0,74,74,74,74,74,0,74,0,5,5,5,5,5,0,5,26-01-22,26-01-22,19:32:05,Sat Feb 26 2022 19:32:05 GMT+0100 (közép-európai téli idő),The main experiment item,yes,0,0,C:/Users/rrics/Documents/!!ResearchBMECOGSCI/gnet,0,0,0,prototype1.png,no,mono,no,18,no,black,no,no,768,1147,3.5.6,legacy,xpyriment,osweb,1.3.13,0,down,k,left,down,52420,31263,40396,52420,2,legacy,1040,1920,24,1080,24,-1920,-249,1920,1645900372050,1024,2,48000,-16,experiment,p1sarrsha4.png,1,odd,Win32,129,143214,140199,128,129,672399,673906,667397,144731,667397,128,751950,753457,748950,673909,748950,visual_patterns,0,0,0,yes,1366
undefined,undefined,undefined,undefined,white,no,Mozilla,Netscape,"5.0 (Windows NT 10.0; Win64; x64) AppleWebKit/537.36 (KHTML, like Gecko) Chrome/98.0.4758.102 Safari/537.36",xpyriment,legacy,legacy,0,uniform,0,0,0,0,24,24,24,0,0,74,74,74,74,74,0,74,0,6,6,6,6,6,0,6,26-01-22,26-01-22,19:32:05,Sat Feb 26 2022 19:32:05 GMT+0100 (közép-európai téli idő),The main experiment item,yes,0,0,C:/Users/rrics/Documents/!!ResearchBMECOGSCI/gnet,0,0,0,prototype1.png,no,mono,no,18,no,black,no,no,768,1147,3.5.6,legacy,xpyriment,osweb,1.3.13,0,down,k,left,down,52420,31263,40396,52420,2,legacy,1040,1920,24,1080,24,-1920,-249,1920,1645900372050,1024,2,48000,-16,experiment,p3sarrcol2.png,1,odd,Win32,129,143214,140199,128,129,672399,673906,667397,144731,667397,128,756465,757972,753464,673909,753464,visual_patterns,0,0,0,yes,1366
undefined,undefined,undefined,undefined,white,no,Mozilla,Netscape,"5.0 (Windows NT 10.0; Win64; x64) AppleWebKit/537.36 (KHTML, like Gecko) Chrome/98.0.4758.102 Safari/537.36",xpyriment,legacy,legacy,0,uniform,0,0,0,0,24,24,24,0,0,74,74,74,74,74,0,74,0,7,7,7,7,7,0,7,26-01-22,26-01-22,19:32:05,Sat Feb 26 2022 19:32:05 GMT+0100 (közép-európai téli idő),The main experiment item,yes,0,0,C:/Users/rrics/Documents/!!ResearchBMECOGSCI/gnet,0,0,0,prototype1.png,no,mono,no,18,no,black,no,no,768,1147,3.5.6,legacy,xpyriment,osweb,1.3.13,0,down,k,left,down,52420,31263,40396,52420,2,legacy,1040,1920,24,1080,24,-1920,-249,1920,1645900372050,1024,2,48000,-16,experiment,p3sarrcol3.png,1,odd,Win32,129,143214,140199,128,129,672399,673906,667397,144731,667397,128,760982,762488,757981,673909,757981,visual_patterns,0,0,0,yes,1366
undefined,undefined,undefined,undefined,white,no,Mozilla,Netscape,"5.0 (Windows NT 10.0; Win64; x64) AppleWebKit/537.36 (KHTML, like Gecko) Chrome/98.0.4758.102 Safari/537.36",xpyriment,legacy,legacy,0,uniform,0,0,0,0,24,24,24,0,0,74,74,74,74,74,0,74,0,8,8,8,8,8,0,8,26-01-22,26-01-22,19:32:05,Sat Feb 26 2022 19:32:05 GMT+0100 (közép-európai téli idő),The main experiment item,yes,0,0,C:/Users/rrics/Documents/!!ResearchBMECOGSCI/gnet,0,0,0,prototype1.png,no,mono,no,18,no,black,no,no,768,1147,3.5.6,legacy,xpyriment,osweb,1.3.13,0,down,k,left,down,52420,31263,40396,52420,2,legacy,1040,1920,24,1080,24,-1920,-249,1920,1645900372050,1024,2,48000,-16,experiment,p1sarrsha1.png,1,odd,Win32,129,143214,140199,128,129,672399,673906,667397,144731,667397,128,765516,767020,762512,673909,762512,visual_patterns,0,0,0,yes,1366
undefined,undefined,undefined,undefined,white,no,Mozilla,Netscape,"5.0 (Windows NT 10.0; Win64; x64) AppleWebKit/537.36 (KHTML, like Gecko) Chrome/98.0.4758.102 Safari/537.36",xpyriment,legacy,legacy,0,uniform,0,0,0,0,24,24,24,0,0,74,74,74,74,74,0,74,0,9,9,9,9,9,0,9,26-01-22,26-01-22,19:32:05,Sat Feb 26 2022 19:32:05 GMT+0100 (közép-európai téli idő),The main experiment item,yes,0,0,C:/Users/rrics/Documents/!!ResearchBMECOGSCI/gnet,0,0,0,prototype1.png,no,mono,no,18,no,black,no,no,768,1147,3.5.6,legacy,xpyriment,osweb,1.3.13,0,down,k,left,down,52420,31263,40396,52420,2,legacy,1040,1920,24,1080,24,-1920,-249,1920,1645900372050,1024,2,48000,-16,experiment,p4sarr1.png,1,odd,Win32,129,143214,140199,128,129,672399,673906,667397,144731,667397,128,770032,771536,767028,673909,767028,visual_patterns,0,0,0,yes,1366
undefined,undefined,undefined,undefined,white,no,Mozilla,Netscape,"5.0 (Windows NT 10.0; Win64; x64) AppleWebKit/537.36 (KHTML, like Gecko) Chrome/98.0.4758.102 Safari/537.36",xpyriment,legacy,legacy,0,uniform,0,0,0,0,24,24,24,0,0,74,74,74,74,74,0,74,0,10,10,10,10,10,0,10,26-01-22,26-01-22,19:32:05,Sat Feb 26 2022 19:32:05 GMT+0100 (közép-európai téli idő),The main experiment item,yes,0,0,C:/Users/rrics/Documents/!!ResearchBMECOGSCI/gnet,0,0,0,prototype1.png,no,mono,no,18,no,black,no,no,768,1147,3.5.6,legacy,xpyriment,osweb,1.3.13,0,down,k,left,down,52420,31263,40396,52420,2,legacy,1040,1920,24,1080,24,-1920,-249,1920,1645900372050,1024,2,48000,-16,experiment,p9sarr2.png,1,odd,Win32,129,143214,140199,128,129,672399,673906,667397,144731,667397,128,774547,776052,771545,673909,771545,visual_patterns,0,0,0,yes,1366
undefined,undefined,undefined,undefined,white,no,Mozilla,Netscape,"5.0 (Windows NT 10.0; Win64; x64) AppleWebKit/537.36 (KHTML, like Gecko) Chrome/98.0.4758.102 Safari/537.36",xpyriment,legacy,legacy,0,uniform,0,0,0,0,24,24,24,0,0,74,74,74,74,74,0,74,0,11,11,11,11,11,0,11,26-01-22,26-01-22,19:32:05,Sat Feb 26 2022 19:32:05 GMT+0100 (közép-európai téli idő),The main experiment item,yes,0,0,C:/Users/rrics/Documents/!!ResearchBMECOGSCI/gnet,0,0,0,prototype1.png,no,mono,no,18,no,black,no,no,768,1147,3.5.6,legacy,xpyriment,osweb,1.3.13,0,down,k,left,down,52420,31263,40396,52420,2,legacy,1040,1920,24,1080,24,-1920,-249,1920,1645900372050,1024,2,48000,-16,experiment,p1sarr2.png,1,odd,Win32,129,143214,140199,128,129,672399,673906,667397,144731,667397,128,779062,780568,776059,673909,776059,visual_patterns,0,0,0,yes,1366
undefined,undefined,undefined,undefined,white,no,Mozilla,Netscape,"5.0 (Windows NT 10.0; Win64; x64) AppleWebKit/537.36 (KHTML, like Gecko) Chrome/98.0.4758.102 Safari/537.36",xpyriment,legacy,legacy,0,uniform,0,0,0,0,24,24,24,0,0,74,74,74,74,74,0,74,0,12,12,12,12,12,0,12,26-01-22,26-01-22,19:32:05,Sat Feb 26 2022 19:32:05 GMT+0100 (közép-európai téli idő),The main experiment item,yes,0,0,C:/Users/rrics/Documents/!!ResearchBMECOGSCI/gnet,0,0,0,prototype1.png,no,mono,no,18,no,black,no,no,768,1147,3.5.6,legacy,xpyriment,osweb,1.3.13,0,down,k,left,down,52420,31263,40396,52420,2,legacy,1040,1920,24,1080,24,-1920,-249,1920,1645900372050,1024,2,48000,-16,experiment,p3sarrcol4.png,1,odd,Win32,129,143214,140199,128,129,672399,673906,667397,144731,667397,128,783576,785083,780576,673909,780576,visual_patterns,0,0,0,yes,1366
undefined,undefined,undefined,undefined,white,no,Mozilla,Netscape,"5.0 (Windows NT 10.0; Win64; x64) AppleWebKit/537.36 (KHTML, like Gecko) Chrome/98.0.4758.102 Safari/537.36",xpyriment,legacy,legacy,0,uniform,0,0,0,0,24,24,24,0,0,74,74,74,74,74,0,74,0,13,13,13,13,13,0,13,26-01-22,26-01-22,19:32:05,Sat Feb 26 2022 19:32:05 GMT+0100 (közép-európai téli idő),The main experiment item,yes,0,0,C:/Users/rrics/Documents/!!ResearchBMECOGSCI/gnet,0,0,0,prototype1.png,no,mono,no,18,no,black,no,no,768,1147,3.5.6,legacy,xpyriment,osweb,1.3.13,0,down,k,left,down,52420,31263,40396,52420,2,legacy,1040,1920,24,1080,24,-1920,-249,1920,1645900372050,1024,2,48000,-16,experiment,p2sarrshacol2.png,1,odd,Win32,129,143214,140199,128,129,672399,673906,667397,144731,667397,128,788113,789616,785108,673909,785108,visual_patterns,0,0,0,yes,1366
undefined,undefined,undefined,undefined,white,no,Mozilla,Netscape,"5.0 (Windows NT 10.0; Win64; x64) AppleWebKit/537.36 (KHTML, like Gecko) Chrome/98.0.4758.102 Safari/537.36",xpyriment,legacy,legacy,0,uniform,0,0,0,0,24,24,24,0,0,74,74,74,74,74,0,74,0,14,14,14,14,14,0,14,26-01-22,26-01-22,19:32:05,Sat Feb 26 2022 19:32:05 GMT+0100 (közép-európai téli idő),The main experiment item,yes,0,0,C:/Users/rrics/Documents/!!ResearchBMECOGSCI/gnet,0,0,0,prototype1.png,no,mono,no,18,no,black,no,no,768,1147,3.5.6,legacy,xpyriment,osweb,1.3.13,0,down,k,left,down,52420,31263,40396,52420,2,legacy,1040,1920,24,1080,24,-1920,-249,1920,1645900372050,1024,2,48000,-16,experiment,p6sarr1.png,1,odd,Win32,129,143214,140199,128,129,672399,673906,667397,144731,667397,128,792623,794132,789623,673909,789623,visual_patterns,0,0,0,yes,1366
undefined,undefined,undefined,undefined,white,no,Mozilla,Netscape,"5.0 (Windows NT 10.0; Win64; x64) AppleWebKit/537.36 (KHTML, like Gecko) Chrome/98.0.4758.102 Safari/537.36",xpyriment,legacy,legacy,0,uniform,0,0,0,0,24,24,24,0,0,74,74,74,74,74,0,74,0,15,15,15,15,15,0,15,26-01-22,26-01-22,19:32:05,Sat Feb 26 2022 19:32:05 GMT+0100 (közép-európai téli idő),The main experiment item,yes,0,0,C:/Users/rrics/Documents/!!ResearchBMECOGSCI/gnet,0,0,0,prototype1.png,no,mono,no,18,no,black,no,no,768,1147,3.5.6,legacy,xpyriment,osweb,1.3.13,0,down,k,left,down,52420,31263,40396,52420,2,legacy,1040,1920,24,1080,24,-1920,-249,1920,1645900372050,1024,2,48000,-16,experiment,p4sarrshacol3.png,1,odd,Win32,129,143214,140199,128,129,672399,673906,667397,144731,667397,128,797141,798647,794141,673909,794141,visual_patterns,0,0,0,yes,1366
undefined,undefined,undefined,undefined,white,no,Mozilla,Netscape,"5.0 (Windows NT 10.0; Win64; x64) AppleWebKit/537.36 (KHTML, like Gecko) Chrome/98.0.4758.102 Safari/537.36",xpyriment,legacy,legacy,0,uniform,0,0,0,0,24,24,24,0,0,74,74,74,74,74,0,74,0,16,16,16,16,16,0,16,26-01-22,26-01-22,19:32:05,Sat Feb 26 2022 19:32:05 GMT+0100 (közép-európai téli idő),The main experiment item,yes,0,0,C:/Users/rrics/Documents/!!ResearchBMECOGSCI/gnet,0,0,0,prototype1.png,no,mono,no,18,no,black,no,no,768,1147,3.5.6,legacy,xpyriment,osweb,1.3.13,0,down,k,left,down,52420,31263,40396,52420,2,legacy,1040,1920,24,1080,24,-1920,-249,1920,1645900372050,1024,2,48000,-16,experiment,p4sarrshacol4.png,1,odd,Win32,129,143214,140199,128,129,672399,673906,667397,144731,667397,128,801656,803163,798656,673909,798656,visual_patterns,0,0,0,yes,1366
undefined,undefined,undefined,undefined,white,no,Mozilla,Netscape,"5.0 (Windows NT 10.0; Win64; x64) AppleWebKit/537.36 (KHTML, like Gecko) Chrome/98.0.4758.102 Safari/537.36",xpyriment,legacy,legacy,0,uniform,0,0,0,0,24,24,24,0,0,74,74,74,74,74,0,74,0,17,17,17,17,17,0,17,26-01-22,26-01-22,19:32:05,Sat Feb 26 2022 19:32:05 GMT+0100 (közép-európai téli idő),The main experiment item,yes,0,0,C:/Users/rrics/Documents/!!ResearchBMECOGSCI/gnet,0,0,0,prototype1.png,no,mono,no,18,no,black,no,no,768,1147,3.5.6,legacy,xpyriment,osweb,1.3.13,0,down,k,left,down,52420,31263,40396,52420,2,legacy,1040,1920,24,1080,24,-1920,-249,1920,1645900372050,1024,2,48000,-16,experiment,p2sarrcol1.png,1,odd,Win32,129,143214,140199,128,129,672399,673906,667397,144731,667397,128,806171,807679,803171,673909,803171,visual_patterns,0,0,0,yes,1366
undefined,undefined,undefined,undefined,white,no,Mozilla,Netscape,"5.0 (Windows NT 10.0; Win64; x64) AppleWebKit/537.36 (KHTML, like Gecko) Chrome/98.0.4758.102 Safari/537.36",xpyriment,legacy,legacy,0,uniform,0,0,0,0,24,24,24,0,0,74,74,74,74,74,0,74,0,18,18,18,18,18,0,18,26-01-22,26-01-22,19:32:05,Sat Feb 26 2022 19:32:05 GMT+0100 (közép-európai téli idő),The main experiment item,yes,0,0,C:/Users/rrics/Documents/!!ResearchBMECOGSCI/gnet,0,0,0,prototype1.png,no,mono,no,18,no,black,no,no,768,1147,3.5.6,legacy,xpyriment,osweb,1.3.13,0,down,k,left,down,52420,31263,40396,52420,2,legacy,1040,1920,24,1080,24,-1920,-249,1920,1645900372050,1024,2,48000,-16,experiment,p1sarr4.png,1,odd,Win32,129,143214,140199,128,129,672399,673906,667397,144731,667397,128,810712,812228,807711,673909,807711,visual_patterns,0,0,0,yes,1366
undefined,undefined,undefined,undefined,white,no,Mozilla,Netscape,"5.0 (Windows NT 10.0; Win64; x64) AppleWebKit/537.36 (KHTML, like Gecko) Chrome/98.0.4758.102 Safari/537.36",xpyriment,legacy,legacy,0,uniform,0,0,0,0,24,24,24,0,0,74,74,74,74,74,0,74,0,19,19,19,19,19,0,19,26-01-22,26-01-22,19:32:05,Sat Feb 26 2022 19:32:05 GMT+0100 (közép-európai téli idő),The main experiment item,yes,0,0,C:/Users/rrics/Documents/!!ResearchBMECOGSCI/gnet,0,0,0,prototype1.png,no,mono,no,18,no,black,no,no,768,1147,3.5.6,legacy,xpyriment,osweb,1.3.13,0,down,k,left,down,52420,31263,40396,52420,2,legacy,1040,1920,24,1080,24,-1920,-249,1920,1645900372050,1024,2,48000,-16,experiment,p10sarr1.png,1,odd,Win32,129,143214,140199,128,129,672399,673906,667397,144731,667397,128,815235,816744,812236,673909,812236,visual_patterns,0,0,0,yes,1366
undefined,undefined,undefined,undefined,white,no,Mozilla,Netscape,"5.0 (Windows NT 10.0; Win64; x64) AppleWebKit/537.36 (KHTML, like Gecko) Chrome/98.0.4758.102 Safari/537.36",xpyriment,legacy,legacy,0,uniform,0,0,0,0,24,24,24,0,0,74,74,74,74,74,0,74,0,20,20,20,20,20,0,20,26-01-22,26-01-22,19:32:05,Sat Feb 26 2022 19:32:05 GMT+0100 (közép-európai téli idő),The main experiment item,yes,0,0,C:/Users/rrics/Documents/!!ResearchBMECOGSCI/gnet,0,0,0,prototype1.png,no,mono,no,18,no,black,no,no,768,1147,3.5.6,legacy,xpyriment,osweb,1.3.13,0,down,k,left,down,52420,31263,40396,52420,2,legacy,1040,1920,24,1080,24,-1920,-249,1920,1645900372050,1024,2,48000,-16,experiment,p8sarr3.png,1,odd,Win32,129,143214,140199,128,129,672399,673906,667397,144731,667397,128,819753,821259,816753,673909,816753,visual_patterns,0,0,0,yes,1366
undefined,undefined,undefined,undefined,white,no,Mozilla,Netscape,"5.0 (Windows NT 10.0; Win64; x64) AppleWebKit/537.36 (KHTML, like Gecko) Chrome/98.0.4758.102 Safari/537.36",xpyriment,legacy,legacy,0,uniform,0,0,0,0,24,24,24,0,0,74,74,74,74,74,0,74,0,21,21,21,21,21,0,21,26-01-22,26-01-22,19:32:05,Sat Feb 26 2022 19:32:05 GMT+0100 (közép-európai téli idő),The main experiment item,yes,0,0,C:/Users/rrics/Documents/!!ResearchBMECOGSCI/gnet,0,0,0,prototype1.png,no,mono,no,18,no,black,no,no,768,1147,3.5.6,legacy,xpyriment,osweb,1.3.13,0,down,k,left,down,52420,31263,40396,52420,2,legacy,1040,1920,24,1080,24,-1920,-249,1920,1645900372050,1024,2,48000,-16,experiment,p9sarr4.png,1,odd,Win32,129,143214,140199,128,129,672399,673906,667397,144731,667397,128,824270,825775,821268,673909,821268,visual_patterns,0,0,0,yes,1366
undefined,undefined,undefined,undefined,white,no,Mozilla,Netscape,"5.0 (Windows NT 10.0; Win64; x64) AppleWebKit/537.36 (KHTML, like Gecko) Chrome/98.0.4758.102 Safari/537.36",xpyriment,legacy,legacy,0,uniform,0,0,0,0,24,24,24,0,0,74,74,74,74,74,0,74,0,22,22,22,22,22,0,22,26-01-22,26-01-22,19:32:05,Sat Feb 26 2022 19:32:05 GMT+0100 (közép-európai téli idő),The main experiment item,yes,0,0,C:/Users/rrics/Documents/!!ResearchBMECOGSCI/gnet,0,0,0,prototype1.png,no,mono,no,18,no,black,no,no,768,1147,3.5.6,legacy,xpyriment,osweb,1.3.13,0,down,k,left,down,52420,31263,40396,52420,2,legacy,1040,1920,24,1080,24,-1920,-249,1920,1645900372050,1024,2,48000,-16,experiment,p5sarrcol2.png,1,odd,Win32,129,143214,140199,128,129,672399,673906,667397,144731,667397,128,828783,830291,825783,673909,825783,visual_patterns,0,0,0,yes,1366
undefined,undefined,undefined,undefined,white,no,Mozilla,Netscape,"5.0 (Windows NT 10.0; Win64; x64) AppleWebKit/537.36 (KHTML, like Gecko) Chrome/98.0.4758.102 Safari/537.36",xpyriment,legacy,legacy,0,uniform,0,0,0,0,24,24,24,0,0,74,74,74,74,74,0,74,0,23,23,23,23,23,0,23,26-01-22,26-01-22,19:32:05,Sat Feb 26 2022 19:32:05 GMT+0100 (közép-európai téli idő),The main experiment item,yes,0,0,C:/Users/rrics/Documents/!!ResearchBMECOGSCI/gnet,0,0,0,prototype1.png,no,mono,no,18,no,black,no,no,768,1147,3.5.6,legacy,xpyriment,osweb,1.3.13,0,down,k,left,down,52420,31263,40396,52420,2,legacy,1040,1920,24,1080,24,-1920,-249,1920,1645900372050,1024,2,48000,-16,experiment,p7sarr4.png,1,odd,Win32,129,143214,140199,128,129,672399,673906,667397,144731,667397,128,833317,834823,830318,673909,830318,visual_patterns,0,0,0,yes,1366
undefined,undefined,undefined,undefined,white,no,Mozilla,Netscape,"5.0 (Windows NT 10.0; Win64; x64) AppleWebKit/537.36 (KHTML, like Gecko) Chrome/98.0.4758.102 Safari/537.36",xpyriment,legacy,legacy,0,uniform,0,0,0,0,24,24,24,0,0,74,74,74,74,74,0,74,0,24,24,24,24,24,0,24,26-01-22,26-01-22,19:32:05,Sat Feb 26 2022 19:32:05 GMT+0100 (közép-európai téli idő),The main experiment item,yes,0,0,C:/Users/rrics/Documents/!!ResearchBMECOGSCI/gnet,0,0,0,prototype1.png,no,mono,no,18,no,black,no,no,768,1147,3.5.6,legacy,xpyriment,osweb,1.3.13,0,down,k,left,down,52420,31263,40396,52420,2,legacy,1040,1920,24,1080,24,-1920,-249,1920,1645900372050,1024,2,48000,-16,experiment,p3sarrsha3.png,1,odd,Win32,129,143214,140199,128,129,672399,673906,667397,144731,667397,128,837835,839339,834833,673909,834833,visual_patterns,0,0,0,yes,1366
undefined,undefined,undefined,undefined,white,no,Mozilla,Netscape,"5.0 (Windows NT 10.0; Win64; x64) AppleWebKit/537.36 (KHTML, like Gecko) Chrome/98.0.4758.102 Safari/537.36",xpyriment,legacy,legacy,0,uniform,0,0,0,0,24,24,24,0,0,74,74,74,74,74,0,74,0,25,25,25,25,25,0,25,26-01-22,26-01-22,19:32:05,Sat Feb 26 2022 19:32:05 GMT+0100 (közép-európai téli idő),The main experiment item,yes,0,0,C:/Users/rrics/Documents/!!ResearchBMECOGSCI/gnet,0,0,0,prototype1.png,no,mono,no,18,no,black,no,no,768,1147,3.5.6,legacy,xpyriment,osweb,1.3.13,0,down,k,left,down,52420,31263,40396,52420,2,legacy,1040,1920,24,1080,24,-1920,-249,1920,1645900372050,1024,2,48000,-16,experiment,p8sarr4.png,1,odd,Win32,129,143214,140199,128,129,672399,673906,667397,144731,667397,128,842348,843855,839347,673909,839347,visual_patterns,0,0,0,yes,1366
undefined,undefined,undefined,undefined,white,no,Mozilla,Netscape,"5.0 (Windows NT 10.0; Win64; x64) AppleWebKit/537.36 (KHTML, like Gecko) Chrome/98.0.4758.102 Safari/537.36",xpyriment,legacy,legacy,0,uniform,0,0,0,0,24,24,24,0,0,74,74,74,74,74,0,74,0,26,26,26,26,26,0,26,26-01-22,26-01-22,19:32:05,Sat Feb 26 2022 19:32:05 GMT+0100 (közép-európai téli idő),The main experiment item,yes,0,0,C:/Users/rrics/Documents/!!ResearchBMECOGSCI/gnet,0,0,0,prototype1.png,no,mono,no,18,no,black,no,no,768,1147,3.5.6,legacy,xpyriment,osweb,1.3.13,0,down,k,left,down,52420,31263,40396,52420,2,legacy,1040,1920,24,1080,24,-1920,-249,1920,1645900372050,1024,2,48000,-16,experiment,p2sarrshacol4.png,1,odd,Win32,129,143214,140199,128,129,672399,673906,667397,144731,667397,128,846866,848370,843864,673909,843864,visual_patterns,0,0,0,yes,1366
undefined,undefined,undefined,undefined,white,no,Mozilla,Netscape,"5.0 (Windows NT 10.0; Win64; x64) AppleWebKit/537.36 (KHTML, like Gecko) Chrome/98.0.4758.102 Safari/537.36",xpyriment,legacy,legacy,0,uniform,0,0,0,0,24,24,24,0,0,74,74,74,74,74,0,74,0,27,27,27,27,27,0,27,26-01-22,26-01-22,19:32:05,Sat Feb 26 2022 19:32:05 GMT+0100 (közép-európai téli idő),The main experiment item,yes,0,0,C:/Users/rrics/Documents/!!ResearchBMECOGSCI/gnet,0,0,0,prototype1.png,no,mono,no,18,no,black,no,no,768,1147,3.5.6,legacy,xpyriment,osweb,1.3.13,0,down,k,left,down,52420,31263,40396,52420,2,legacy,1040,1920,24,1080,24,-1920,-249,1920,1645900372050,1024,2,48000,-16,experiment,p4sarrshacol1.png,1,odd,Win32,129,143214,140199,128,129,672399,673906,667397,144731,667397,128,851378,852886,848378,673909,848378,visual_patterns,0,0,0,yes,1366
undefined,undefined,undefined,undefined,white,no,Mozilla,Netscape,"5.0 (Windows NT 10.0; Win64; x64) AppleWebKit/537.36 (KHTML, like Gecko) Chrome/98.0.4758.102 Safari/537.36",xpyriment,legacy,legacy,0,uniform,0,0,0,0,24,24,24,0,0,74,74,74,74,74,0,74,0,28,28,28,28,28,0,28,26-01-22,26-01-22,19:32:05,Sat Feb 26 2022 19:32:05 GMT+0100 (közép-európai téli idő),The main experiment item,yes,0,0,C:/Users/rrics/Documents/!!ResearchBMECOGSCI/gnet,0,0,0,prototype1.png,no,mono,no,18,no,black,no,no,768,1147,3.5.6,legacy,xpyriment,osweb,1.3.13,0,down,k,left,down,52420,31263,40396,52420,2,legacy,1040,1920,24,1080,24,-1920,-249,1920,1645900372050,1024,2,48000,-16,experiment,p1sarrshacol3.png,1,odd,Win32,129,143214,140199,128,129,672399,673906,667397,144731,667397,128,855896,857402,852895,673909,852895,visual_patterns,0,0,0,yes,1366
undefined,undefined,undefined,undefined,white,no,Mozilla,Netscape,"5.0 (Windows NT 10.0; Win64; x64) AppleWebKit/537.36 (KHTML, like Gecko) Chrome/98.0.4758.102 Safari/537.36",xpyriment,legacy,legacy,0,uniform,0,0,0,0,24,24,24,0,0,74,74,74,74,74,0,74,0,29,29,29,29,29,0,29,26-01-22,26-01-22,19:32:05,Sat Feb 26 2022 19:32:05 GMT+0100 (közép-európai téli idő),The main experiment item,yes,0,0,C:/Users/rrics/Documents/!!ResearchBMECOGSCI/gnet,0,0,0,prototype1.png,no,mono,no,18,no,black,no,no,768,1147,3.5.6,legacy,xpyriment,osweb,1.3.13,0,down,k,left,down,52420,31263,40396,52420,2,legacy,1040,1920,24,1080,24,-1920,-249,1920,1645900372050,1024,2,48000,-16,experiment,p2sarrsha1.png,1,odd,Win32,129,143214,140199,128,129,672399,673906,667397,144731,667397,128,860410,861918,857409,673909,857409,visual_patterns,0,0,0,yes,1366
undefined,undefined,undefined,undefined,white,no,Mozilla,Netscape,"5.0 (Windows NT 10.0; Win64; x64) AppleWebKit/537.36 (KHTML, like Gecko) Chrome/98.0.4758.102 Safari/537.36",xpyriment,legacy,legacy,0,uniform,0,0,0,0,24,24,24,0,0,74,74,74,74,74,0,74,0,30,30,30,30,30,0,30,26-01-22,26-01-22,19:32:05,Sat Feb 26 2022 19:32:05 GMT+0100 (közép-európai téli idő),The main experiment item,yes,0,0,C:/Users/rrics/Documents/!!ResearchBMECOGSCI/gnet,0,0,0,prototype1.png,no,mono,no,18,no,black,no,no,768,1147,3.5.6,legacy,xpyriment,osweb,1.3.13,0,down,k,left,down,52420,31263,40396,52420,2,legacy,1040,1920,24,1080,24,-1920,-249,1920,1645900372050,1024,2,48000,-16,experiment,p3sarr2.png,1,odd,Win32,129,143214,140199,128,129,672399,673906,667397,144731,667397,128,864928,866433,861925,673909,861925,visual_patterns,0,0,0,yes,1366
undefined,undefined,undefined,undefined,white,no,Mozilla,Netscape,"5.0 (Windows NT 10.0; Win64; x64) AppleWebKit/537.36 (KHTML, like Gecko) Chrome/98.0.4758.102 Safari/537.36",xpyriment,legacy,legacy,0,uniform,0,0,0,0,24,24,24,0,0,74,74,74,74,74,0,74,0,31,31,31,31,31,0,31,26-01-22,26-01-22,19:32:05,Sat Feb 26 2022 19:32:05 GMT+0100 (közép-európai téli idő),The main experiment item,yes,0,0,C:/Users/rrics/Documents/!!ResearchBMECOGSCI/gnet,0,0,0,prototype1.png,no,mono,no,18,no,black,no,no,768,1147,3.5.6,legacy,xpyriment,osweb,1.3.13,0,down,k,left,down,52420,31263,40396,52420,2,legacy,1040,1920,24,1080,24,-1920,-249,1920,1645900372050,1024,2,48000,-16,experiment,p3sarrshacol3.png,1,odd,Win32,129,143214,140199,128,129,672399,673906,667397,144731,667397,128,869445,870949,866443,673909,866443,visual_patterns,0,0,0,yes,1366
undefined,undefined,undefined,undefined,white,no,Mozilla,Netscape,"5.0 (Windows NT 10.0; Win64; x64) AppleWebKit/537.36 (KHTML, like Gecko) Chrome/98.0.4758.102 Safari/537.36",xpyriment,legacy,legacy,0,uniform,0,0,0,0,24,24,24,0,0,74,74,74,74,74,0,74,0,32,32,32,32,32,0,32,26-01-22,26-01-22,19:32:05,Sat Feb 26 2022 19:32:05 GMT+0100 (közép-európai téli idő),The main experiment item,yes,0,0,C:/Users/rrics/Documents/!!ResearchBMECOGSCI/gnet,0,0,0,prototype1.png,no,mono,no,18,no,black,no,no,768,1147,3.5.6,legacy,xpyriment,osweb,1.3.13,0,down,k,left,down,52420,31263,40396,52420,2,legacy,1040,1920,24,1080,24,-1920,-249,1920,1645900372050,1024,2,48000,-16,experiment,p2sarrcol4.png,1,odd,Win32,129,143214,140199,128,129,672399,673906,667397,144731,667397,128,873957,875465,870959,673909,870959,visual_patterns,0,0,0,yes,1366
undefined,undefined,undefined,undefined,white,no,Mozilla,Netscape,"5.0 (Windows NT 10.0; Win64; x64) AppleWebKit/537.36 (KHTML, like Gecko) Chrome/98.0.4758.102 Safari/537.36",xpyriment,legacy,legacy,0,uniform,0,0,0,0,24,24,24,0,0,74,74,74,74,74,0,74,0,33,33,33,33,33,0,33,26-01-22,26-01-22,19:32:05,Sat Feb 26 2022 19:32:05 GMT+0100 (közép-európai téli idő),The main experiment item,yes,0,0,C:/Users/rrics/Documents/!!ResearchBMECOGSCI/gnet,0,0,0,prototype1.png,no,mono,no,18,no,black,no,no,768,1147,3.5.6,legacy,xpyriment,osweb,1.3.13,0,down,k,left,down,52420,31263,40396,52420,2,legacy,1040,1920,24,1080,24,-1920,-249,1920,1645900372050,1024,2,48000,-16,experiment,p5sarrcol1.png,1,odd,Win32,129,143214,140199,128,129,672399,673906,667397,144731,667397,128,878496,879997,875494,673909,875494,visual_patterns,0,0,0,yes,1366
undefined,undefined,undefined,undefined,white,no,Mozilla,Netscape,"5.0 (Windows NT 10.0; Win64; x64) AppleWebKit/537.36 (KHTML, like Gecko) Chrome/98.0.4758.102 Safari/537.36",xpyriment,legacy,legacy,0,uniform,0,0,0,0,24,24,24,0,0,74,74,74,74,74,0,74,0,34,34,34,34,34,0,34,26-01-22,26-01-22,19:32:05,Sat Feb 26 2022 19:32:05 GMT+0100 (közép-európai téli idő),The main experiment item,yes,0,0,C:/Users/rrics/Documents/!!ResearchBMECOGSCI/gnet,0,0,0,prototype1.png,no,mono,no,18,no,black,no,no,768,1147,3.5.6,legacy,xpyriment,osweb,1.3.13,0,down,k,left,down,52420,31263,40396,52420,2,legacy,1040,1920,24,1080,24,-1920,-249,1920,1645900372050,1024,2,48000,-16,experiment,p8sarr2.png,1,odd,Win32,129,143214,140199,128,129,672399,673906,667397,144731,667397,128,883005,884513,880005,673909,880005,visual_patterns,0,0,0,yes,1366
undefined,undefined,undefined,undefined,white,no,Mozilla,Netscape,"5.0 (Windows NT 10.0; Win64; x64) AppleWebKit/537.36 (KHTML, like Gecko) Chrome/98.0.4758.102 Safari/537.36",xpyriment,legacy,legacy,0,uniform,0,0,0,0,24,24,24,0,0,74,74,74,74,74,0,74,0,35,35,35,35,35,0,35,26-01-22,26-01-22,19:32:05,Sat Feb 26 2022 19:32:05 GMT+0100 (közép-európai téli idő),The main experiment item,yes,0,0,C:/Users/rrics/Documents/!!ResearchBMECOGSCI/gnet,0,0,0,prototype1.png,no,mono,no,18,no,black,no,no,768,1147,3.5.6,legacy,xpyriment,osweb,1.3.13,0,down,k,left,down,52420,31263,40396,52420,2,legacy,1040,1920,24,1080,24,-1920,-249,1920,1645900372050,1024,2,48000,-16,experiment,p5sarr3.png,1,odd,Win32,129,143214,140199,128,129,672399,673906,667397,144731,667397,128,887521,889029,884521,673909,884521,visual_patterns,0,0,0,yes,1366
undefined,undefined,undefined,undefined,white,no,Mozilla,Netscape,"5.0 (Windows NT 10.0; Win64; x64) AppleWebKit/537.36 (KHTML, like Gecko) Chrome/98.0.4758.102 Safari/537.36",xpyriment,legacy,legacy,0,uniform,0,0,0,0,24,24,24,0,0,74,74,74,74,74,0,74,0,36,36,36,36,36,0,36,26-01-22,26-01-22,19:32:05,Sat Feb 26 2022 19:32:05 GMT+0100 (közép-európai téli idő),The main experiment item,yes,0,0,C:/Users/rrics/Documents/!!ResearchBMECOGSCI/gnet,0,0,0,prototype1.png,no,mono,no,18,no,black,no,no,768,1147,3.5.6,legacy,xpyriment,osweb,1.3.13,0,down,k,left,down,52420,31263,40396,52420,2,legacy,1040,1920,24,1080,24,-1920,-249,1920,1645900372050,1024,2,48000,-16,experiment,p7sarr1.png,1,odd,Win32,129,143214,140199,128,129,672399,673906,667397,144731,667397,128,892040,893545,889036,673909,889036,visual_patterns,0,0,0,yes,1366
undefined,undefined,undefined,undefined,white,no,Mozilla,Netscape,"5.0 (Windows NT 10.0; Win64; x64) AppleWebKit/537.36 (KHTML, like Gecko) Chrome/98.0.4758.102 Safari/537.36",xpyriment,legacy,legacy,0,uniform,0,0,0,0,24,24,24,0,0,74,74,74,74,74,0,74,0,37,37,37,37,37,0,37,26-01-22,26-01-22,19:32:05,Sat Feb 26 2022 19:32:05 GMT+0100 (közép-európai téli idő),The main experiment item,yes,0,0,C:/Users/rrics/Documents/!!ResearchBMECOGSCI/gnet,0,0,0,prototype1.png,no,mono,no,18,no,black,no,no,768,1147,3.5.6,legacy,xpyriment,osweb,1.3.13,0,down,k,left,down,52420,31263,40396,52420,2,legacy,1040,1920,24,1080,24,-1920,-249,1920,1645900372050,1024,2,48000,-16,experiment,p1sarrcol4.png,1,odd,Win32,129,143214,140199,128,129,672399,673906,667397,144731,667397,128,896557,898060,893555,673909,893554,visual_patterns,0,0,0,yes,1366
undefined,undefined,undefined,undefined,white,no,Mozilla,Netscape,"5.0 (Windows NT 10.0; Win64; x64) AppleWebKit/537.36 (KHTML, like Gecko) Chrome/98.0.4758.102 Safari/537.36",xpyriment,legacy,legacy,0,uniform,0,0,0,0,24,24,24,0,0,74,74,74,74,74,0,74,0,38,38,38,38,38,0,38,26-01-22,26-01-22,19:32:05,Sat Feb 26 2022 19:32:05 GMT+0100 (közép-európai téli idő),The main experiment item,yes,0,0,C:/Users/rrics/Documents/!!ResearchBMECOGSCI/gnet,0,0,0,prototype1.png,no,mono,no,18,no,black,no,no,768,1147,3.5.6,legacy,xpyriment,osweb,1.3.13,0,down,k,left,down,52420,31263,40396,52420,2,legacy,1040,1920,24,1080,24,-1920,-249,1920,1645900372050,1024,2,48000,-16,experiment,p3sarrsha4.png,1,odd,Win32,129,143214,140199,128,129,672399,673906,667397,144731,667397,128,901068,902576,898070,673909,898070,visual_patterns,0,0,0,yes,1366
undefined,undefined,undefined,undefined,white,no,Mozilla,Netscape,"5.0 (Windows NT 10.0; Win64; x64) AppleWebKit/537.36 (KHTML, like Gecko) Chrome/98.0.4758.102 Safari/537.36",xpyriment,legacy,legacy,0,uniform,0,0,0,0,24,24,24,0,0,74,74,74,74,74,0,74,0,39,39,39,39,39,0,39,26-01-22,26-01-22,19:32:05,Sat Feb 26 2022 19:32:05 GMT+0100 (közép-európai téli idő),The main experiment item,yes,0,0,C:/Users/rrics/Documents/!!ResearchBMECOGSCI/gnet,0,0,0,prototype1.png,no,mono,no,18,no,black,no,no,768,1147,3.5.6,legacy,xpyriment,osweb,1.3.13,0,down,k,left,down,52420,31263,40396,52420,2,legacy,1040,1920,24,1080,24,-1920,-249,1920,1645900372050,1024,2,48000,-16,experiment,p3sarr1.png,1,odd,Win32,129,143214,140199,128,129,672399,673906,667397,144731,667397,128,905585,907092,902583,673909,902583,visual_patterns,0,0,0,yes,1366
undefined,undefined,undefined,undefined,white,no,Mozilla,Netscape,"5.0 (Windows NT 10.0; Win64; x64) AppleWebKit/537.36 (KHTML, like Gecko) Chrome/98.0.4758.102 Safari/537.36",xpyriment,legacy,legacy,0,uniform,0,0,0,0,24,24,24,0,0,74,74,74,74,74,0,74,0,40,40,40,40,40,0,40,26-01-22,26-01-22,19:32:05,Sat Feb 26 2022 19:32:05 GMT+0100 (közép-európai téli idő),The main experiment item,yes,0,0,C:/Users/rrics/Documents/!!ResearchBMECOGSCI/gnet,0,0,0,prototype1.png,no,mono,no,18,no,black,no,no,768,1147,3.5.6,legacy,xpyriment,osweb,1.3.13,0,down,k,left,down,52420,31263,40396,52420,2,legacy,1040,1920,24,1080,24,-1920,-249,1920,1645900372050,1024,2,48000,-16,experiment,p2sarrsha3.png,1,odd,Win32,129,143214,140199,128,129,672399,673906,667397,144731,667397,128,910101,911608,907102,673909,907102,visual_patterns,0,0,0,yes,1366
undefined,undefined,undefined,undefined,white,no,Mozilla,Netscape,"5.0 (Windows NT 10.0; Win64; x64) AppleWebKit/537.36 (KHTML, like Gecko) Chrome/98.0.4758.102 Safari/537.36",xpyriment,legacy,legacy,0,uniform,0,0,0,0,24,24,24,0,0,74,74,74,74,74,0,74,0,41,41,41,41,41,0,41,26-01-22,26-01-22,19:32:05,Sat Feb 26 2022 19:32:05 GMT+0100 (közép-európai téli idő),The main experiment item,yes,0,0,C:/Users/rrics/Documents/!!ResearchBMECOGSCI/gnet,0,0,0,prototype1.png,no,mono,no,18,no,black,no,no,768,1147,3.5.6,legacy,xpyriment,osweb,1.3.13,0,down,k,left,down,52420,31263,40396,52420,2,legacy,1040,1920,24,1080,24,-1920,-249,1920,1645900372050,1024,2,48000,-16,experiment,p9sarr3.png,1,odd,Win32,129,143214,140199,128,129,672399,673906,667397,144731,667397,128,914616,916123,911616,673909,911616,visual_patterns,0,0,0,yes,1366
undefined,undefined,undefined,undefined,white,no,Mozilla,Netscape,"5.0 (Windows NT 10.0; Win64; x64) AppleWebKit/537.36 (KHTML, like Gecko) Chrome/98.0.4758.102 Safari/537.36",xpyriment,legacy,legacy,0,uniform,0,0,0,0,24,24,24,0,0,74,74,74,74,74,0,74,0,42,42,42,42,42,0,42,26-01-22,26-01-22,19:32:05,Sat Feb 26 2022 19:32:05 GMT+0100 (közép-európai téli idő),The main experiment item,yes,0,0,C:/Users/rrics/Documents/!!ResearchBMECOGSCI/gnet,0,0,0,prototype1.png,no,mono,no,18,no,black,no,no,768,1147,3.5.6,legacy,xpyriment,osweb,1.3.13,0,down,k,left,down,52420,31263,40396,52420,2,legacy,1040,1920,24,1080,24,-1920,-249,1920,1645900372050,1024,2,48000,-16,experiment,p10sarr4.png,1,odd,Win32,129,143214,140199,128,129,672399,673906,667397,144731,667397,128,919131,920639,916132,673909,916132,visual_patterns,0,0,0,yes,1366
undefined,undefined,undefined,undefined,white,no,Mozilla,Netscape,"5.0 (Windows NT 10.0; Win64; x64) AppleWebKit/537.36 (KHTML, like Gecko) Chrome/98.0.4758.102 Safari/537.36",xpyriment,legacy,legacy,0,uniform,0,0,0,0,24,24,24,0,0,74,74,74,74,74,0,74,0,43,43,43,43,43,0,43,26-01-22,26-01-22,19:32:05,Sat Feb 26 2022 19:32:05 GMT+0100 (közép-európai téli idő),The main experiment item,yes,0,0,C:/Users/rrics/Documents/!!ResearchBMECOGSCI/gnet,0,0,0,prototype1.png,no,mono,no,18,no,black,no,no,768,1147,3.5.6,legacy,xpyriment,osweb,1.3.13,0,down,k,left,down,52420,31263,40396,52420,2,legacy,1040,1920,24,1080,24,-1920,-249,1920,1645900372050,1024,2,48000,-16,experiment,p4sarrcol1.png,1,odd,Win32,129,143214,140199,128,129,672399,673906,667397,144731,667397,128,923666,925172,920665,673909,920665,visual_patterns,0,0,0,yes,1366
undefined,undefined,undefined,undefined,white,no,Mozilla,Netscape,"5.0 (Windows NT 10.0; Win64; x64) AppleWebKit/537.36 (KHTML, like Gecko) Chrome/98.0.4758.102 Safari/537.36",xpyriment,legacy,legacy,0,uniform,0,0,0,0,24,24,24,0,0,74,74,74,74,74,0,74,0,44,44,44,44,44,0,44,26-01-22,26-01-22,19:32:05,Sat Feb 26 2022 19:32:05 GMT+0100 (közép-európai téli idő),The main experiment item,yes,0,0,C:/Users/rrics/Documents/!!ResearchBMECOGSCI/gnet,0,0,0,prototype1.png,no,mono,no,18,no,black,no,no,768,1147,3.5.6,legacy,xpyriment,osweb,1.3.13,0,down,k,left,down,52420,31263,40396,52420,2,legacy,1040,1920,24,1080,24,-1920,-249,1920,1645900372050,1024,2,48000,-16,experiment,p5sarrshacol4.png,1,odd,Win32,129,143214,140199,128,129,672399,673906,667397,144731,667397,128,928180,929687,925180,673909,925180,visual_patterns,0,0,0,yes,1366
undefined,undefined,undefined,undefined,white,no,Mozilla,Netscape,"5.0 (Windows NT 10.0; Win64; x64) AppleWebKit/537.36 (KHTML, like Gecko) Chrome/98.0.4758.102 Safari/537.36",xpyriment,legacy,legacy,0,uniform,0,0,0,0,24,24,24,0,0,74,74,74,74,74,0,74,0,45,45,45,45,45,0,45,26-01-22,26-01-22,19:32:05,Sat Feb 26 2022 19:32:05 GMT+0100 (közép-európai téli idő),The main experiment item,yes,0,0,C:/Users/rrics/Documents/!!ResearchBMECOGSCI/gnet,0,0,0,prototype1.png,no,mono,no,18,no,black,no,no,768,1147,3.5.6,legacy,xpyriment,osweb,1.3.13,0,down,k,left,down,52420,31263,40396,52420,2,legacy,1040,1920,24,1080,24,-1920,-249,1920,1645900372050,1024,2,48000,-16,experiment,p3sarr3.png,1,odd,Win32,129,143214,140199,128,129,672399,673906,667397,144731,667397,128,932697,934203,929697,673909,929697,visual_patterns,0,0,0,yes,1366
undefined,undefined,undefined,undefined,white,no,Mozilla,Netscape,"5.0 (Windows NT 10.0; Win64; x64) AppleWebKit/537.36 (KHTML, like Gecko) Chrome/98.0.4758.102 Safari/537.36",xpyriment,legacy,legacy,0,uniform,0,0,0,0,24,24,24,0,0,74,74,74,74,74,0,74,0,46,46,46,46,46,0,46,26-01-22,26-01-22,19:32:05,Sat Feb 26 2022 19:32:05 GMT+0100 (közép-európai téli idő),The main experiment item,yes,0,0,C:/Users/rrics/Documents/!!ResearchBMECOGSCI/gnet,0,0,0,prototype1.png,no,mono,no,18,no,black,no,no,768,1147,3.5.6,legacy,xpyriment,osweb,1.3.13,0,down,k,left,down,52420,31263,40396,52420,2,legacy,1040,1920,24,1080,24,-1920,-249,1920,1645900372050,1024,2,48000,-16,experiment,p2sarr3.png,1,odd,Win32,129,143214,140199,128,129,672399,673906,667397,144731,667397,128,937214,938719,934212,673909,934212,visual_patterns,0,0,0,yes,1366
undefined,undefined,undefined,undefined,white,no,Mozilla,Netscape,"5.0 (Windows NT 10.0; Win64; x64) AppleWebKit/537.36 (KHTML, like Gecko) Chrome/98.0.4758.102 Safari/537.36",xpyriment,legacy,legacy,0,uniform,0,0,0,0,24,24,24,0,0,74,74,74,74,74,0,74,0,47,47,47,47,47,0,47,26-01-22,26-01-22,19:32:05,Sat Feb 26 2022 19:32:05 GMT+0100 (közép-európai téli idő),The main experiment item,yes,0,0,C:/Users/rrics/Documents/!!ResearchBMECOGSCI/gnet,0,0,0,prototype1.png,no,mono,no,18,no,black,no,no,768,1147,3.5.6,legacy,xpyriment,osweb,1.3.13,0,down,k,left,down,52420,31263,40396,52420,2,legacy,1040,1920,24,1080,24,-1920,-249,1920,1645900372050,1024,2,48000,-16,experiment,p4sarr2.png,1,odd,Win32,129,143214,140199,128,129,672399,673906,667397,144731,667397,128,941726,943235,938726,673909,938726,visual_patterns,0,0,0,yes,1366
