acc,accuracy,average_response_time,avg_rt,background,bidi,browser_codename,browser_name,browser_version,canvas_backend,clock_backend,color_backend,compensation,coordinates,count_end,count_experiment,count_osweb,count_prestudy,count_prestudy_isi,count_prestudy_sequence,count_prestudy_stimpres,count_start,count_study,count_study_coroutines,count_study_isi,count_study_logger,count_study_response,count_study_sequence,count_study_start,count_study_stimpres,count_test,count_test_coroutines,count_test_isi,count_test_logger,count_test_response,count_test_sequence,count_test_start,count_test_stimpres,date_startdate,date_startdateUTC,date_starttime,datetime,description,disable_garbage_collection,experiment_debug,experiment_parameters,experiment_path,experiment_pilot,experiment_taskname,experiment_taskversion,fampict,font_bold,font_family,font_italic,font_size,font_underline,foreground,form_clicks,fullscreen,height,jatosStudyResultId,jatosVersion,keyboard_backend,mouse_backend,opensesame_codename,opensesame_version,repeat_cycle,response,response_start,response_study_start,response_test_start,response_time,response_time_start,response_time_study_start,response_time_test_start,round_decimals,sampler_backend,screen_availableHeight,screen_availableWidth,screen_colorDepth,screen_height,screen_pixelDepth,screen_screenX,screen_screenY,screen_width,sessionid,sound_buf_size,sound_channels,sound_freq,sound_sample_size,start,stim,subject_nr,subject_parity,system_os,time_prestudy,time_prestudy_isi,time_prestudy_stimpres,time_start,time_study,time_study_isi,time_study_logger,time_study_response,time_study_start,time_study_stimpres,time_test,time_test_isi,time_test_logger,time_test_response,time_test_start,time_test_stimpres,title,total_correct,total_response_time,total_responses,uniform_coordinates,width
undefined,undefined,undefined,undefined,white,no,Mozilla,Netscape,"5.0 (Windows NT 10.0; Win64; x64) AppleWebKit/537.36 (KHTML, like Gecko) Chrome/98.0.4758.102 Safari/537.36",xpyriment,legacy,legacy,0,uniform,0,0,0,0,24,24,24,0,0,0,0,0,0,0,0,0,0,,,,,,0,,27-01-22,27-01-22,10:57:56,Sun Feb 27 2022 10:57:56 GMT+0100 (közép-európai téli idő),The main experiment item,yes,0,0,C:/Users/rrics/Documents/!!ResearchBMECOGSCI/gnet,0,0,0,prototype4.png,no,mono,no,18,no,black,no,no,768,1148,3.5.6,legacy,xpyriment,osweb,1.3.13,0,j,right,j,,30290,21140,30290,,2,legacy,824,1536,24,864,24,0,0,1536,1645955954891,1024,2,48000,-16,experiment,p6sarr1.png,0,even,Win32,56,133005,129992,56,56,169838,171352,164842,134522,164842,56,,,,,,visual_patterns,0,0,0,yes,1366
undefined,undefined,undefined,undefined,white,no,Mozilla,Netscape,"5.0 (Windows NT 10.0; Win64; x64) AppleWebKit/537.36 (KHTML, like Gecko) Chrome/98.0.4758.102 Safari/537.36",xpyriment,legacy,legacy,0,uniform,0,0,0,0,24,24,24,0,0,1,1,1,1,1,0,1,0,,,,,,0,,27-01-22,27-01-22,10:57:56,Sun Feb 27 2022 10:57:56 GMT+0100 (közép-európai téli idő),The main experiment item,yes,0,0,C:/Users/rrics/Documents/!!ResearchBMECOGSCI/gnet,0,0,0,prototype4.png,no,mono,no,18,no,black,no,no,768,1148,3.5.6,legacy,xpyriment,osweb,1.3.13,0,j,right,j,,30290,21140,30290,,2,legacy,824,1536,24,864,24,0,0,1536,1645955954891,1024,2,48000,-16,experiment,prototype3.png,0,even,Win32,56,133005,129992,56,56,176361,177869,171361,134522,171360,56,,,,,,visual_patterns,0,0,0,yes,1366
undefined,undefined,undefined,undefined,white,no,Mozilla,Netscape,"5.0 (Windows NT 10.0; Win64; x64) AppleWebKit/537.36 (KHTML, like Gecko) Chrome/98.0.4758.102 Safari/537.36",xpyriment,legacy,legacy,0,uniform,0,0,0,0,24,24,24,0,0,2,2,2,2,2,0,2,0,,,,,,0,,27-01-22,27-01-22,10:57:56,Sun Feb 27 2022 10:57:56 GMT+0100 (közép-európai téli idő),The main experiment item,yes,0,0,C:/Users/rrics/Documents/!!ResearchBMECOGSCI/gnet,0,0,0,prototype4.png,no,mono,no,18,no,black,no,no,768,1148,3.5.6,legacy,xpyriment,osweb,1.3.13,0,j,right,j,,30290,21140,30290,,2,legacy,824,1536,24,864,24,0,0,1536,1645955954891,1024,2,48000,-16,experiment,p3sarr1.png,0,even,Win32,56,133005,129992,56,56,182877,184384,177878,134522,177878,56,,,,,,visual_patterns,0,0,0,yes,1366
undefined,undefined,undefined,undefined,white,no,Mozilla,Netscape,"5.0 (Windows NT 10.0; Win64; x64) AppleWebKit/537.36 (KHTML, like Gecko) Chrome/98.0.4758.102 Safari/537.36",xpyriment,legacy,legacy,0,uniform,0,0,0,0,24,24,24,0,0,3,3,3,3,3,0,3,0,,,,,,0,,27-01-22,27-01-22,10:57:56,Sun Feb 27 2022 10:57:56 GMT+0100 (közép-európai téli idő),The main experiment item,yes,0,0,C:/Users/rrics/Documents/!!ResearchBMECOGSCI/gnet,0,0,0,prototype4.png,no,mono,no,18,no,black,no,no,768,1148,3.5.6,legacy,xpyriment,osweb,1.3.13,0,j,right,j,,30290,21140,30290,,2,legacy,824,1536,24,864,24,0,0,1536,1645955954891,1024,2,48000,-16,experiment,p9sarr2.png,0,even,Win32,56,133005,129992,56,56,189392,190901,184393,134522,184393,56,,,,,,visual_patterns,0,0,0,yes,1366
undefined,undefined,undefined,undefined,white,no,Mozilla,Netscape,"5.0 (Windows NT 10.0; Win64; x64) AppleWebKit/537.36 (KHTML, like Gecko) Chrome/98.0.4758.102 Safari/537.36",xpyriment,legacy,legacy,0,uniform,0,0,0,0,24,24,24,0,0,4,4,4,4,4,0,4,0,,,,,,0,,27-01-22,27-01-22,10:57:56,Sun Feb 27 2022 10:57:56 GMT+0100 (közép-európai téli idő),The main experiment item,yes,0,0,C:/Users/rrics/Documents/!!ResearchBMECOGSCI/gnet,0,0,0,prototype4.png,no,mono,no,18,no,black,no,no,768,1148,3.5.6,legacy,xpyriment,osweb,1.3.13,0,j,right,j,,30290,21140,30290,,2,legacy,824,1536,24,864,24,0,0,1536,1645955954891,1024,2,48000,-16,experiment,p4sarr2.png,0,even,Win32,56,133005,129992,56,56,195909,197417,190910,134522,190910,56,,,,,,visual_patterns,0,0,0,yes,1366
undefined,undefined,undefined,undefined,white,no,Mozilla,Netscape,"5.0 (Windows NT 10.0; Win64; x64) AppleWebKit/537.36 (KHTML, like Gecko) Chrome/98.0.4758.102 Safari/537.36",xpyriment,legacy,legacy,0,uniform,0,0,0,0,24,24,24,0,0,5,5,5,5,5,0,5,0,,,,,,0,,27-01-22,27-01-22,10:57:56,Sun Feb 27 2022 10:57:56 GMT+0100 (közép-európai téli idő),The main experiment item,yes,0,0,C:/Users/rrics/Documents/!!ResearchBMECOGSCI/gnet,0,0,0,prototype4.png,no,mono,no,18,no,black,no,no,768,1148,3.5.6,legacy,xpyriment,osweb,1.3.13,0,j,right,j,,30290,21140,30290,,2,legacy,824,1536,24,864,24,0,0,1536,1645955954891,1024,2,48000,-16,experiment,p4sarrshacol2.png,0,even,Win32,56,133005,129992,56,56,202425,203934,197425,134522,197425,56,,,,,,visual_patterns,0,0,0,yes,1366
undefined,undefined,undefined,undefined,white,no,Mozilla,Netscape,"5.0 (Windows NT 10.0; Win64; x64) AppleWebKit/537.36 (KHTML, like Gecko) Chrome/98.0.4758.102 Safari/537.36",xpyriment,legacy,legacy,0,uniform,0,0,0,0,24,24,24,0,0,6,6,6,6,6,0,6,0,,,,,,0,,27-01-22,27-01-22,10:57:56,Sun Feb 27 2022 10:57:56 GMT+0100 (közép-európai téli idő),The main experiment item,yes,0,0,C:/Users/rrics/Documents/!!ResearchBMECOGSCI/gnet,0,0,0,prototype4.png,no,mono,no,18,no,black,no,no,768,1148,3.5.6,legacy,xpyriment,osweb,1.3.13,0,j,right,j,,30290,21140,30290,,2,legacy,824,1536,24,864,24,0,0,1536,1645955954891,1024,2,48000,-16,experiment,p5sarrsha2.png,0,even,Win32,56,133005,129992,56,56,208939,210451,203942,134522,203942,56,,,,,,visual_patterns,0,0,0,yes,1366
undefined,undefined,undefined,undefined,white,no,Mozilla,Netscape,"5.0 (Windows NT 10.0; Win64; x64) AppleWebKit/537.36 (KHTML, like Gecko) Chrome/98.0.4758.102 Safari/537.36",xpyriment,legacy,legacy,0,uniform,0,0,0,0,24,24,24,0,0,7,7,7,7,7,0,7,0,,,,,,0,,27-01-22,27-01-22,10:57:56,Sun Feb 27 2022 10:57:56 GMT+0100 (közép-európai téli idő),The main experiment item,yes,0,0,C:/Users/rrics/Documents/!!ResearchBMECOGSCI/gnet,0,0,0,prototype4.png,no,mono,no,18,no,black,no,no,768,1148,3.5.6,legacy,xpyriment,osweb,1.3.13,0,j,right,j,,30290,21140,30290,,2,legacy,824,1536,24,864,24,0,0,1536,1645955954891,1024,2,48000,-16,experiment,p2sarr1.png,0,even,Win32,56,133005,129992,56,56,215456,216965,210459,134522,210459,56,,,,,,visual_patterns,0,0,0,yes,1366
undefined,undefined,undefined,undefined,white,no,Mozilla,Netscape,"5.0 (Windows NT 10.0; Win64; x64) AppleWebKit/537.36 (KHTML, like Gecko) Chrome/98.0.4758.102 Safari/537.36",xpyriment,legacy,legacy,0,uniform,0,0,0,0,24,24,24,0,0,8,8,8,8,8,0,8,0,,,,,,0,,27-01-22,27-01-22,10:57:56,Sun Feb 27 2022 10:57:56 GMT+0100 (közép-európai téli idő),The main experiment item,yes,0,0,C:/Users/rrics/Documents/!!ResearchBMECOGSCI/gnet,0,0,0,prototype4.png,no,mono,no,18,no,black,no,no,768,1148,3.5.6,legacy,xpyriment,osweb,1.3.13,0,j,right,j,,30290,21140,30290,,2,legacy,824,1536,24,864,24,0,0,1536,1645955954891,1024,2,48000,-16,experiment,prototype4.png,0,even,Win32,56,133005,129992,56,56,221972,223482,216972,134522,216972,56,,,,,,visual_patterns,0,0,0,yes,1366
undefined,undefined,undefined,undefined,white,no,Mozilla,Netscape,"5.0 (Windows NT 10.0; Win64; x64) AppleWebKit/537.36 (KHTML, like Gecko) Chrome/98.0.4758.102 Safari/537.36",xpyriment,legacy,legacy,0,uniform,0,0,0,0,24,24,24,0,0,9,9,9,9,9,0,9,0,,,,,,0,,27-01-22,27-01-22,10:57:56,Sun Feb 27 2022 10:57:56 GMT+0100 (közép-európai téli idő),The main experiment item,yes,0,0,C:/Users/rrics/Documents/!!ResearchBMECOGSCI/gnet,0,0,0,prototype4.png,no,mono,no,18,no,black,no,no,768,1148,3.5.6,legacy,xpyriment,osweb,1.3.13,0,j,right,j,,30290,21140,30290,,2,legacy,824,1536,24,864,24,0,0,1536,1645955954891,1024,2,48000,-16,experiment,p5sarrsha1.png,0,even,Win32,56,133005,129992,56,56,228491,229998,223493,134522,223493,56,,,,,,visual_patterns,0,0,0,yes,1366
undefined,undefined,undefined,undefined,white,no,Mozilla,Netscape,"5.0 (Windows NT 10.0; Win64; x64) AppleWebKit/537.36 (KHTML, like Gecko) Chrome/98.0.4758.102 Safari/537.36",xpyriment,legacy,legacy,0,uniform,0,0,0,0,24,24,24,0,0,10,10,10,10,10,0,10,0,,,,,,0,,27-01-22,27-01-22,10:57:56,Sun Feb 27 2022 10:57:56 GMT+0100 (közép-európai téli idő),The main experiment item,yes,0,0,C:/Users/rrics/Documents/!!ResearchBMECOGSCI/gnet,0,0,0,prototype4.png,no,mono,no,18,no,black,no,no,768,1148,3.5.6,legacy,xpyriment,osweb,1.3.13,0,j,right,j,,30290,21140,30290,,2,legacy,824,1536,24,864,24,0,0,1536,1645955954891,1024,2,48000,-16,experiment,p5sarrcol1.png,0,even,Win32,56,133005,129992,56,56,235007,236515,230006,134522,230006,56,,,,,,visual_patterns,0,0,0,yes,1366
undefined,undefined,undefined,undefined,white,no,Mozilla,Netscape,"5.0 (Windows NT 10.0; Win64; x64) AppleWebKit/537.36 (KHTML, like Gecko) Chrome/98.0.4758.102 Safari/537.36",xpyriment,legacy,legacy,0,uniform,0,0,0,0,24,24,24,0,0,11,11,11,11,11,0,11,0,,,,,,0,,27-01-22,27-01-22,10:57:56,Sun Feb 27 2022 10:57:56 GMT+0100 (közép-európai téli idő),The main experiment item,yes,0,0,C:/Users/rrics/Documents/!!ResearchBMECOGSCI/gnet,0,0,0,prototype4.png,no,mono,no,18,no,black,no,no,768,1148,3.5.6,legacy,xpyriment,osweb,1.3.13,0,j,right,j,,30290,21140,30290,,2,legacy,824,1536,24,864,24,0,0,1536,1645955954891,1024,2,48000,-16,experiment,p8sarr2.png,0,even,Win32,56,133005,129992,56,56,241519,243031,236523,134522,236523,56,,,,,,visual_patterns,0,0,0,yes,1366
undefined,undefined,undefined,undefined,white,no,Mozilla,Netscape,"5.0 (Windows NT 10.0; Win64; x64) AppleWebKit/537.36 (KHTML, like Gecko) Chrome/98.0.4758.102 Safari/537.36",xpyriment,legacy,legacy,0,uniform,0,0,0,0,24,24,24,0,0,12,12,12,12,12,0,12,0,,,,,,0,,27-01-22,27-01-22,10:57:56,Sun Feb 27 2022 10:57:56 GMT+0100 (közép-európai téli idő),The main experiment item,yes,0,0,C:/Users/rrics/Documents/!!ResearchBMECOGSCI/gnet,0,0,0,prototype4.png,no,mono,no,18,no,black,no,no,768,1148,3.5.6,legacy,xpyriment,osweb,1.3.13,0,j,right,j,,30290,21140,30290,,2,legacy,824,1536,24,864,24,0,0,1536,1645955954891,1024,2,48000,-16,experiment,p5sarrshacol2.png,0,even,Win32,56,133005,129992,56,56,248036,249547,243039,134522,243039,56,,,,,,visual_patterns,0,0,0,yes,1366
undefined,undefined,undefined,undefined,white,no,Mozilla,Netscape,"5.0 (Windows NT 10.0; Win64; x64) AppleWebKit/537.36 (KHTML, like Gecko) Chrome/98.0.4758.102 Safari/537.36",xpyriment,legacy,legacy,0,uniform,0,0,0,0,24,24,24,0,0,13,13,13,13,13,0,13,0,,,,,,0,,27-01-22,27-01-22,10:57:56,Sun Feb 27 2022 10:57:56 GMT+0100 (közép-európai téli idő),The main experiment item,yes,0,0,C:/Users/rrics/Documents/!!ResearchBMECOGSCI/gnet,0,0,0,prototype4.png,no,mono,no,18,no,black,no,no,768,1148,3.5.6,legacy,xpyriment,osweb,1.3.13,0,j,right,j,,30290,21140,30290,,2,legacy,824,1536,24,864,24,0,0,1536,1645955954891,1024,2,48000,-16,experiment,p8sarr1.png,0,even,Win32,56,133005,129992,56,56,254552,256064,249556,134522,249556,56,,,,,,visual_patterns,0,0,0,yes,1366
undefined,undefined,undefined,undefined,white,no,Mozilla,Netscape,"5.0 (Windows NT 10.0; Win64; x64) AppleWebKit/537.36 (KHTML, like Gecko) Chrome/98.0.4758.102 Safari/537.36",xpyriment,legacy,legacy,0,uniform,0,0,0,0,24,24,24,0,0,14,14,14,14,14,0,14,0,,,,,,0,,27-01-22,27-01-22,10:57:56,Sun Feb 27 2022 10:57:56 GMT+0100 (közép-európai téli idő),The main experiment item,yes,0,0,C:/Users/rrics/Documents/!!ResearchBMECOGSCI/gnet,0,0,0,prototype4.png,no,mono,no,18,no,black,no,no,768,1148,3.5.6,legacy,xpyriment,osweb,1.3.13,0,j,right,j,,30290,21140,30290,,2,legacy,824,1536,24,864,24,0,0,1536,1645955954891,1024,2,48000,-16,experiment,p3sarrcol1.png,0,even,Win32,56,133005,129992,56,56,261072,262580,256073,134522,256073,56,,,,,,visual_patterns,0,0,0,yes,1366
undefined,undefined,undefined,undefined,white,no,Mozilla,Netscape,"5.0 (Windows NT 10.0; Win64; x64) AppleWebKit/537.36 (KHTML, like Gecko) Chrome/98.0.4758.102 Safari/537.36",xpyriment,legacy,legacy,0,uniform,0,0,0,0,24,24,24,0,0,15,15,15,15,15,0,15,0,,,,,,0,,27-01-22,27-01-22,10:57:56,Sun Feb 27 2022 10:57:56 GMT+0100 (közép-európai téli idő),The main experiment item,yes,0,0,C:/Users/rrics/Documents/!!ResearchBMECOGSCI/gnet,0,0,0,prototype4.png,no,mono,no,18,no,black,no,no,768,1148,3.5.6,legacy,xpyriment,osweb,1.3.13,0,j,right,j,,30290,21140,30290,,2,legacy,824,1536,24,864,24,0,0,1536,1645955954891,1024,2,48000,-16,experiment,prototype1.png,0,even,Win32,56,133005,129992,56,56,267587,269096,262587,134522,262587,56,,,,,,visual_patterns,0,0,0,yes,1366
undefined,undefined,undefined,undefined,white,no,Mozilla,Netscape,"5.0 (Windows NT 10.0; Win64; x64) AppleWebKit/537.36 (KHTML, like Gecko) Chrome/98.0.4758.102 Safari/537.36",xpyriment,legacy,legacy,0,uniform,0,0,0,0,24,24,24,0,0,16,16,16,16,16,0,16,0,,,,,,0,,27-01-22,27-01-22,10:57:56,Sun Feb 27 2022 10:57:56 GMT+0100 (közép-európai téli idő),The main experiment item,yes,0,0,C:/Users/rrics/Documents/!!ResearchBMECOGSCI/gnet,0,0,0,prototype4.png,no,mono,no,18,no,black,no,no,768,1148,3.5.6,legacy,xpyriment,osweb,1.3.13,0,j,right,j,,30290,21140,30290,,2,legacy,824,1536,24,864,24,0,0,1536,1645955954891,1024,2,48000,-16,experiment,p2sarr2.png,0,even,Win32,56,133005,129992,56,56,274101,275613,269104,134522,269104,56,,,,,,visual_patterns,0,0,0,yes,1366
undefined,undefined,undefined,undefined,white,no,Mozilla,Netscape,"5.0 (Windows NT 10.0; Win64; x64) AppleWebKit/537.36 (KHTML, like Gecko) Chrome/98.0.4758.102 Safari/537.36",xpyriment,legacy,legacy,0,uniform,0,0,0,0,24,24,24,0,0,17,17,17,17,17,0,17,0,,,,,,0,,27-01-22,27-01-22,10:57:56,Sun Feb 27 2022 10:57:56 GMT+0100 (közép-európai téli idő),The main experiment item,yes,0,0,C:/Users/rrics/Documents/!!ResearchBMECOGSCI/gnet,0,0,0,prototype4.png,no,mono,no,18,no,black,no,no,768,1148,3.5.6,legacy,xpyriment,osweb,1.3.13,0,j,right,j,,30290,21140,30290,,2,legacy,824,1536,24,864,24,0,0,1536,1645955954891,1024,2,48000,-16,experiment,p3sarrsha2.png,0,even,Win32,56,133005,129992,56,56,280621,282129,275622,134522,275622,56,,,,,,visual_patterns,0,0,0,yes,1366
undefined,undefined,undefined,undefined,white,no,Mozilla,Netscape,"5.0 (Windows NT 10.0; Win64; x64) AppleWebKit/537.36 (KHTML, like Gecko) Chrome/98.0.4758.102 Safari/537.36",xpyriment,legacy,legacy,0,uniform,0,0,0,0,24,24,24,0,0,18,18,18,18,18,0,18,0,,,,,,0,,27-01-22,27-01-22,10:57:56,Sun Feb 27 2022 10:57:56 GMT+0100 (közép-európai téli idő),The main experiment item,yes,0,0,C:/Users/rrics/Documents/!!ResearchBMECOGSCI/gnet,0,0,0,prototype4.png,no,mono,no,18,no,black,no,no,768,1148,3.5.6,legacy,xpyriment,osweb,1.3.13,0,j,right,j,,30290,21140,30290,,2,legacy,824,1536,24,864,24,0,0,1536,1645955954891,1024,2,48000,-16,experiment,prototype4.png,0,even,Win32,56,133005,129992,56,56,287137,288644,282137,134522,282137,56,,,,,,visual_patterns,0,0,0,yes,1366
undefined,undefined,undefined,undefined,white,no,Mozilla,Netscape,"5.0 (Windows NT 10.0; Win64; x64) AppleWebKit/537.36 (KHTML, like Gecko) Chrome/98.0.4758.102 Safari/537.36",xpyriment,legacy,legacy,0,uniform,0,0,0,0,24,24,24,0,0,19,19,19,19,19,0,19,0,,,,,,0,,27-01-22,27-01-22,10:57:56,Sun Feb 27 2022 10:57:56 GMT+0100 (közép-európai téli idő),The main experiment item,yes,0,0,C:/Users/rrics/Documents/!!ResearchBMECOGSCI/gnet,0,0,0,prototype4.png,no,mono,no,18,no,black,no,no,768,1148,3.5.6,legacy,xpyriment,osweb,1.3.13,0,j,right,j,,30290,21140,30290,,2,legacy,824,1536,24,864,24,0,0,1536,1645955954891,1024,2,48000,-16,experiment,p3sarrsha1.png,0,even,Win32,56,133005,129992,56,56,293649,295161,288652,134522,288652,56,,,,,,visual_patterns,0,0,0,yes,1366
undefined,undefined,undefined,undefined,white,no,Mozilla,Netscape,"5.0 (Windows NT 10.0; Win64; x64) AppleWebKit/537.36 (KHTML, like Gecko) Chrome/98.0.4758.102 Safari/537.36",xpyriment,legacy,legacy,0,uniform,0,0,0,0,24,24,24,0,0,20,20,20,20,20,0,20,0,,,,,,0,,27-01-22,27-01-22,10:57:56,Sun Feb 27 2022 10:57:56 GMT+0100 (közép-európai téli idő),The main experiment item,yes,0,0,C:/Users/rrics/Documents/!!ResearchBMECOGSCI/gnet,0,0,0,prototype4.png,no,mono,no,18,no,black,no,no,768,1148,3.5.6,legacy,xpyriment,osweb,1.3.13,0,j,right,j,,30290,21140,30290,,2,legacy,824,1536,24,864,24,0,0,1536,1645955954891,1024,2,48000,-16,experiment,prototype2.png,0,even,Win32,56,133005,129992,56,56,300166,301677,295168,134522,295168,56,,,,,,visual_patterns,0,0,0,yes,1366
undefined,undefined,undefined,undefined,white,no,Mozilla,Netscape,"5.0 (Windows NT 10.0; Win64; x64) AppleWebKit/537.36 (KHTML, like Gecko) Chrome/98.0.4758.102 Safari/537.36",xpyriment,legacy,legacy,0,uniform,0,0,0,0,24,24,24,0,0,21,21,21,21,21,0,21,0,,,,,,0,,27-01-22,27-01-22,10:57:56,Sun Feb 27 2022 10:57:56 GMT+0100 (közép-európai téli idő),The main experiment item,yes,0,0,C:/Users/rrics/Documents/!!ResearchBMECOGSCI/gnet,0,0,0,prototype4.png,no,mono,no,18,no,black,no,no,768,1148,3.5.6,legacy,xpyriment,osweb,1.3.13,0,j,right,j,,30290,21140,30290,,2,legacy,824,1536,24,864,24,0,0,1536,1645955954891,1024,2,48000,-16,experiment,p4sarrcol2.png,0,even,Win32,56,133005,129992,56,56,306686,308193,301686,134522,301686,56,,,,,,visual_patterns,0,0,0,yes,1366
undefined,undefined,undefined,undefined,white,no,Mozilla,Netscape,"5.0 (Windows NT 10.0; Win64; x64) AppleWebKit/537.36 (KHTML, like Gecko) Chrome/98.0.4758.102 Safari/537.36",xpyriment,legacy,legacy,0,uniform,0,0,0,0,24,24,24,0,0,22,22,22,22,22,0,22,0,,,,,,0,,27-01-22,27-01-22,10:57:56,Sun Feb 27 2022 10:57:56 GMT+0100 (közép-európai téli idő),The main experiment item,yes,0,0,C:/Users/rrics/Documents/!!ResearchBMECOGSCI/gnet,0,0,0,prototype4.png,no,mono,no,18,no,black,no,no,768,1148,3.5.6,legacy,xpyriment,osweb,1.3.13,0,j,right,j,,30290,21140,30290,,2,legacy,824,1536,24,864,24,0,0,1536,1645955954891,1024,2,48000,-16,experiment,p5sarrshacol1.png,0,even,Win32,56,133005,129992,56,56,313201,314710,308202,134522,308202,56,,,,,,visual_patterns,0,0,0,yes,1366
undefined,undefined,undefined,undefined,white,no,Mozilla,Netscape,"5.0 (Windows NT 10.0; Win64; x64) AppleWebKit/537.36 (KHTML, like Gecko) Chrome/98.0.4758.102 Safari/537.36",xpyriment,legacy,legacy,0,uniform,0,0,0,0,24,24,24,0,0,23,23,23,23,23,0,23,0,,,,,,0,,27-01-22,27-01-22,10:57:56,Sun Feb 27 2022 10:57:56 GMT+0100 (közép-európai téli idő),The main experiment item,yes,0,0,C:/Users/rrics/Documents/!!ResearchBMECOGSCI/gnet,0,0,0,prototype4.png,no,mono,no,18,no,black,no,no,768,1148,3.5.6,legacy,xpyriment,osweb,1.3.13,0,j,right,j,,30290,21140,30290,,2,legacy,824,1536,24,864,24,0,0,1536,1645955954891,1024,2,48000,-16,experiment,prototype2.png,0,even,Win32,56,133005,129992,56,56,319715,321226,314717,134522,314717,56,,,,,,visual_patterns,0,0,0,yes,1366
undefined,undefined,undefined,undefined,white,no,Mozilla,Netscape,"5.0 (Windows NT 10.0; Win64; x64) AppleWebKit/537.36 (KHTML, like Gecko) Chrome/98.0.4758.102 Safari/537.36",xpyriment,legacy,legacy,0,uniform,0,0,0,0,24,24,24,0,0,24,24,24,24,24,0,24,0,,,,,,0,,27-01-22,27-01-22,10:57:56,Sun Feb 27 2022 10:57:56 GMT+0100 (közép-európai téli idő),The main experiment item,yes,0,0,C:/Users/rrics/Documents/!!ResearchBMECOGSCI/gnet,0,0,0,prototype4.png,no,mono,no,18,no,black,no,no,768,1148,3.5.6,legacy,xpyriment,osweb,1.3.13,0,j,right,j,,30290,21140,30290,,2,legacy,824,1536,24,864,24,0,0,1536,1645955954891,1024,2,48000,-16,experiment,p4sarrsha2.png,0,even,Win32,56,133005,129992,56,56,326232,327743,321234,134522,321234,56,,,,,,visual_patterns,0,0,0,yes,1366
undefined,undefined,undefined,undefined,white,no,Mozilla,Netscape,"5.0 (Windows NT 10.0; Win64; x64) AppleWebKit/537.36 (KHTML, like Gecko) Chrome/98.0.4758.102 Safari/537.36",xpyriment,legacy,legacy,0,uniform,0,0,0,0,24,24,24,0,0,25,25,25,25,25,0,25,0,,,,,,0,,27-01-22,27-01-22,10:57:56,Sun Feb 27 2022 10:57:56 GMT+0100 (közép-európai téli idő),The main experiment item,yes,0,0,C:/Users/rrics/Documents/!!ResearchBMECOGSCI/gnet,0,0,0,prototype4.png,no,mono,no,18,no,black,no,no,768,1148,3.5.6,legacy,xpyriment,osweb,1.3.13,0,j,right,j,,30290,21140,30290,,2,legacy,824,1536,24,864,24,0,0,1536,1645955954891,1024,2,48000,-16,experiment,p9sarr1.png,0,even,Win32,56,133005,129992,56,56,332750,334258,327751,134522,327751,56,,,,,,visual_patterns,0,0,0,yes,1366
undefined,undefined,undefined,undefined,white,no,Mozilla,Netscape,"5.0 (Windows NT 10.0; Win64; x64) AppleWebKit/537.36 (KHTML, like Gecko) Chrome/98.0.4758.102 Safari/537.36",xpyriment,legacy,legacy,0,uniform,0,0,0,0,24,24,24,0,0,26,26,26,26,26,0,26,0,,,,,,0,,27-01-22,27-01-22,10:57:56,Sun Feb 27 2022 10:57:56 GMT+0100 (közép-európai téli idő),The main experiment item,yes,0,0,C:/Users/rrics/Documents/!!ResearchBMECOGSCI/gnet,0,0,0,prototype4.png,no,mono,no,18,no,black,no,no,768,1148,3.5.6,legacy,xpyriment,osweb,1.3.13,0,j,right,j,,30290,21140,30290,,2,legacy,824,1536,24,864,24,0,0,1536,1645955954891,1024,2,48000,-16,experiment,prototype1.png,0,even,Win32,56,133005,129992,56,56,339263,340775,334265,134522,334265,56,,,,,,visual_patterns,0,0,0,yes,1366
undefined,undefined,undefined,undefined,white,no,Mozilla,Netscape,"5.0 (Windows NT 10.0; Win64; x64) AppleWebKit/537.36 (KHTML, like Gecko) Chrome/98.0.4758.102 Safari/537.36",xpyriment,legacy,legacy,0,uniform,0,0,0,0,24,24,24,0,0,27,27,27,27,27,0,27,0,,,,,,0,,27-01-22,27-01-22,10:57:56,Sun Feb 27 2022 10:57:56 GMT+0100 (közép-európai téli idő),The main experiment item,yes,0,0,C:/Users/rrics/Documents/!!ResearchBMECOGSCI/gnet,0,0,0,prototype4.png,no,mono,no,18,no,black,no,no,768,1148,3.5.6,legacy,xpyriment,osweb,1.3.13,0,j,right,j,,30290,21140,30290,,2,legacy,824,1536,24,864,24,0,0,1536,1645955954891,1024,2,48000,-16,experiment,p4sarrcol1.png,0,even,Win32,56,133005,129992,56,56,345782,347291,340783,134522,340783,56,,,,,,visual_patterns,0,0,0,yes,1366
undefined,undefined,undefined,undefined,white,no,Mozilla,Netscape,"5.0 (Windows NT 10.0; Win64; x64) AppleWebKit/537.36 (KHTML, like Gecko) Chrome/98.0.4758.102 Safari/537.36",xpyriment,legacy,legacy,0,uniform,0,0,0,0,24,24,24,0,0,28,28,28,28,28,0,28,0,,,,,,0,,27-01-22,27-01-22,10:57:56,Sun Feb 27 2022 10:57:56 GMT+0100 (közép-európai téli idő),The main experiment item,yes,0,0,C:/Users/rrics/Documents/!!ResearchBMECOGSCI/gnet,0,0,0,prototype4.png,no,mono,no,18,no,black,no,no,768,1148,3.5.6,legacy,xpyriment,osweb,1.3.13,0,j,right,j,,30290,21140,30290,,2,legacy,824,1536,24,864,24,0,0,1536,1645955954891,1024,2,48000,-16,experiment,prototype4.png,0,even,Win32,56,133005,129992,56,56,352298,353808,347298,134522,347298,56,,,,,,visual_patterns,0,0,0,yes,1366
undefined,undefined,undefined,undefined,white,no,Mozilla,Netscape,"5.0 (Windows NT 10.0; Win64; x64) AppleWebKit/537.36 (KHTML, like Gecko) Chrome/98.0.4758.102 Safari/537.36",xpyriment,legacy,legacy,0,uniform,0,0,0,0,24,24,24,0,0,29,29,29,29,29,0,29,0,,,,,,0,,27-01-22,27-01-22,10:57:56,Sun Feb 27 2022 10:57:56 GMT+0100 (közép-európai téli idő),The main experiment item,yes,0,0,C:/Users/rrics/Documents/!!ResearchBMECOGSCI/gnet,0,0,0,prototype4.png,no,mono,no,18,no,black,no,no,768,1148,3.5.6,legacy,xpyriment,osweb,1.3.13,0,j,right,j,,30290,21140,30290,,2,legacy,824,1536,24,864,24,0,0,1536,1645955954891,1024,2,48000,-16,experiment,prototype5.png,0,even,Win32,56,133005,129992,56,56,358812,360324,353815,134522,353815,56,,,,,,visual_patterns,0,0,0,yes,1366
undefined,undefined,undefined,undefined,white,no,Mozilla,Netscape,"5.0 (Windows NT 10.0; Win64; x64) AppleWebKit/537.36 (KHTML, like Gecko) Chrome/98.0.4758.102 Safari/537.36",xpyriment,legacy,legacy,0,uniform,0,0,0,0,24,24,24,0,0,30,30,30,30,30,0,30,0,,,,,,0,,27-01-22,27-01-22,10:57:56,Sun Feb 27 2022 10:57:56 GMT+0100 (közép-európai téli idő),The main experiment item,yes,0,0,C:/Users/rrics/Documents/!!ResearchBMECOGSCI/gnet,0,0,0,prototype4.png,no,mono,no,18,no,black,no,no,768,1148,3.5.6,legacy,xpyriment,osweb,1.3.13,0,j,right,j,,30290,21140,30290,,2,legacy,824,1536,24,864,24,0,0,1536,1645955954891,1024,2,48000,-16,experiment,p5sarrcol2.png,0,even,Win32,56,133005,129992,56,56,365331,366839,360332,134522,360332,56,,,,,,visual_patterns,0,0,0,yes,1366
undefined,undefined,undefined,undefined,white,no,Mozilla,Netscape,"5.0 (Windows NT 10.0; Win64; x64) AppleWebKit/537.36 (KHTML, like Gecko) Chrome/98.0.4758.102 Safari/537.36",xpyriment,legacy,legacy,0,uniform,0,0,0,0,24,24,24,0,0,31,31,31,31,31,0,31,0,,,,,,0,,27-01-22,27-01-22,10:57:56,Sun Feb 27 2022 10:57:56 GMT+0100 (közép-európai téli idő),The main experiment item,yes,0,0,C:/Users/rrics/Documents/!!ResearchBMECOGSCI/gnet,0,0,0,prototype4.png,no,mono,no,18,no,black,no,no,768,1148,3.5.6,legacy,xpyriment,osweb,1.3.13,0,j,right,j,,30290,21140,30290,,2,legacy,824,1536,24,864,24,0,0,1536,1645955954891,1024,2,48000,-16,experiment,p2sarrsha2.png,0,even,Win32,56,133005,129992,56,56,371848,373356,366847,134522,366847,56,,,,,,visual_patterns,0,0,0,yes,1366
undefined,undefined,undefined,undefined,white,no,Mozilla,Netscape,"5.0 (Windows NT 10.0; Win64; x64) AppleWebKit/537.36 (KHTML, like Gecko) Chrome/98.0.4758.102 Safari/537.36",xpyriment,legacy,legacy,0,uniform,0,0,0,0,24,24,24,0,0,32,32,32,32,32,0,32,0,,,,,,0,,27-01-22,27-01-22,10:57:56,Sun Feb 27 2022 10:57:56 GMT+0100 (közép-európai téli idő),The main experiment item,yes,0,0,C:/Users/rrics/Documents/!!ResearchBMECOGSCI/gnet,0,0,0,prototype4.png,no,mono,no,18,no,black,no,no,768,1148,3.5.6,legacy,xpyriment,osweb,1.3.13,0,j,right,j,,30290,21140,30290,,2,legacy,824,1536,24,864,24,0,0,1536,1645955954891,1024,2,48000,-16,experiment,p5sarr1.png,0,even,Win32,56,133005,129992,56,56,378364,379873,373364,134522,373364,56,,,,,,visual_patterns,0,0,0,yes,1366
undefined,undefined,undefined,undefined,white,no,Mozilla,Netscape,"5.0 (Windows NT 10.0; Win64; x64) AppleWebKit/537.36 (KHTML, like Gecko) Chrome/98.0.4758.102 Safari/537.36",xpyriment,legacy,legacy,0,uniform,0,0,0,0,24,24,24,0,0,33,33,33,33,33,0,33,0,,,,,,0,,27-01-22,27-01-22,10:57:56,Sun Feb 27 2022 10:57:56 GMT+0100 (közép-európai téli idő),The main experiment item,yes,0,0,C:/Users/rrics/Documents/!!ResearchBMECOGSCI/gnet,0,0,0,prototype4.png,no,mono,no,18,no,black,no,no,768,1148,3.5.6,legacy,xpyriment,osweb,1.3.13,0,j,right,j,,30290,21140,30290,,2,legacy,824,1536,24,864,24,0,0,1536,1645955954891,1024,2,48000,-16,experiment,p3sarrshacol1.png,0,even,Win32,56,133005,129992,56,56,384878,386389,379881,134522,379881,56,,,,,,visual_patterns,0,0,0,yes,1366
undefined,undefined,undefined,undefined,white,no,Mozilla,Netscape,"5.0 (Windows NT 10.0; Win64; x64) AppleWebKit/537.36 (KHTML, like Gecko) Chrome/98.0.4758.102 Safari/537.36",xpyriment,legacy,legacy,0,uniform,0,0,0,0,24,24,24,0,0,34,34,34,34,34,0,34,0,,,,,,0,,27-01-22,27-01-22,10:57:56,Sun Feb 27 2022 10:57:56 GMT+0100 (közép-európai téli idő),The main experiment item,yes,0,0,C:/Users/rrics/Documents/!!ResearchBMECOGSCI/gnet,0,0,0,prototype4.png,no,mono,no,18,no,black,no,no,768,1148,3.5.6,legacy,xpyriment,osweb,1.3.13,0,j,right,j,,30290,21140,30290,,2,legacy,824,1536,24,864,24,0,0,1536,1645955954891,1024,2,48000,-16,experiment,prototype1.png,0,even,Win32,56,133005,129992,56,56,391395,392905,386396,134522,386396,56,,,,,,visual_patterns,0,0,0,yes,1366
undefined,undefined,undefined,undefined,white,no,Mozilla,Netscape,"5.0 (Windows NT 10.0; Win64; x64) AppleWebKit/537.36 (KHTML, like Gecko) Chrome/98.0.4758.102 Safari/537.36",xpyriment,legacy,legacy,0,uniform,0,0,0,0,24,24,24,0,0,35,35,35,35,35,0,35,0,,,,,,0,,27-01-22,27-01-22,10:57:56,Sun Feb 27 2022 10:57:56 GMT+0100 (közép-európai téli idő),The main experiment item,yes,0,0,C:/Users/rrics/Documents/!!ResearchBMECOGSCI/gnet,0,0,0,prototype4.png,no,mono,no,18,no,black,no,no,768,1148,3.5.6,legacy,xpyriment,osweb,1.3.13,0,j,right,j,,30290,21140,30290,,2,legacy,824,1536,24,864,24,0,0,1536,1645955954891,1024,2,48000,-16,experiment,p4sarrshacol1.png,0,even,Win32,56,133005,129992,56,56,397910,399421,392914,134522,392914,56,,,,,,visual_patterns,0,0,0,yes,1366
undefined,undefined,undefined,undefined,white,no,Mozilla,Netscape,"5.0 (Windows NT 10.0; Win64; x64) AppleWebKit/537.36 (KHTML, like Gecko) Chrome/98.0.4758.102 Safari/537.36",xpyriment,legacy,legacy,0,uniform,0,0,0,0,24,24,24,0,0,36,36,36,36,36,0,36,0,,,,,,0,,27-01-22,27-01-22,10:57:56,Sun Feb 27 2022 10:57:56 GMT+0100 (közép-európai téli idő),The main experiment item,yes,0,0,C:/Users/rrics/Documents/!!ResearchBMECOGSCI/gnet,0,0,0,prototype4.png,no,mono,no,18,no,black,no,no,768,1148,3.5.6,legacy,xpyriment,osweb,1.3.13,0,j,right,j,,30290,21140,30290,,2,legacy,824,1536,24,864,24,0,0,1536,1645955954891,1024,2,48000,-16,experiment,prototype3.png,0,even,Win32,56,133005,129992,56,56,404426,405938,399428,134522,399428,56,,,,,,visual_patterns,0,0,0,yes,1366
undefined,undefined,undefined,undefined,white,no,Mozilla,Netscape,"5.0 (Windows NT 10.0; Win64; x64) AppleWebKit/537.36 (KHTML, like Gecko) Chrome/98.0.4758.102 Safari/537.36",xpyriment,legacy,legacy,0,uniform,0,0,0,0,24,24,24,0,0,37,37,37,37,37,0,37,0,,,,,,0,,27-01-22,27-01-22,10:57:56,Sun Feb 27 2022 10:57:56 GMT+0100 (közép-európai téli idő),The main experiment item,yes,0,0,C:/Users/rrics/Documents/!!ResearchBMECOGSCI/gnet,0,0,0,prototype4.png,no,mono,no,18,no,black,no,no,768,1148,3.5.6,legacy,xpyriment,osweb,1.3.13,0,j,right,j,,30290,21140,30290,,2,legacy,824,1536,24,864,24,0,0,1536,1645955954891,1024,2,48000,-16,experiment,prototype3.png,0,even,Win32,56,133005,129992,56,56,410944,412453,405945,134522,405945,56,,,,,,visual_patterns,0,0,0,yes,1366
undefined,undefined,undefined,undefined,white,no,Mozilla,Netscape,"5.0 (Windows NT 10.0; Win64; x64) AppleWebKit/537.36 (KHTML, like Gecko) Chrome/98.0.4758.102 Safari/537.36",xpyriment,legacy,legacy,0,uniform,0,0,0,0,24,24,24,0,0,38,38,38,38,38,0,38,0,,,,,,0,,27-01-22,27-01-22,10:57:56,Sun Feb 27 2022 10:57:56 GMT+0100 (közép-európai téli idő),The main experiment item,yes,0,0,C:/Users/rrics/Documents/!!ResearchBMECOGSCI/gnet,0,0,0,prototype4.png,no,mono,no,18,no,black,no,no,768,1148,3.5.6,legacy,xpyriment,osweb,1.3.13,0,j,right,j,,30290,21140,30290,,2,legacy,824,1536,24,864,24,0,0,1536,1645955954891,1024,2,48000,-16,experiment,p7sarr1.png,0,even,Win32,56,133005,129992,56,56,417459,418971,412462,134522,412461,56,,,,,,visual_patterns,0,0,0,yes,1366
undefined,undefined,undefined,undefined,white,no,Mozilla,Netscape,"5.0 (Windows NT 10.0; Win64; x64) AppleWebKit/537.36 (KHTML, like Gecko) Chrome/98.0.4758.102 Safari/537.36",xpyriment,legacy,legacy,0,uniform,0,0,0,0,24,24,24,0,0,39,39,39,39,39,0,39,0,,,,,,0,,27-01-22,27-01-22,10:57:56,Sun Feb 27 2022 10:57:56 GMT+0100 (közép-európai téli idő),The main experiment item,yes,0,0,C:/Users/rrics/Documents/!!ResearchBMECOGSCI/gnet,0,0,0,prototype4.png,no,mono,no,18,no,black,no,no,768,1148,3.5.6,legacy,xpyriment,osweb,1.3.13,0,j,right,j,,30290,21140,30290,,2,legacy,824,1536,24,864,24,0,0,1536,1645955954891,1024,2,48000,-16,experiment,p1sarrsha1.png,0,even,Win32,56,133005,129992,56,56,423977,425486,418979,134522,418979,56,,,,,,visual_patterns,0,0,0,yes,1366
undefined,undefined,undefined,undefined,white,no,Mozilla,Netscape,"5.0 (Windows NT 10.0; Win64; x64) AppleWebKit/537.36 (KHTML, like Gecko) Chrome/98.0.4758.102 Safari/537.36",xpyriment,legacy,legacy,0,uniform,0,0,0,0,24,24,24,0,0,40,40,40,40,40,0,40,0,,,,,,0,,27-01-22,27-01-22,10:57:56,Sun Feb 27 2022 10:57:56 GMT+0100 (közép-európai téli idő),The main experiment item,yes,0,0,C:/Users/rrics/Documents/!!ResearchBMECOGSCI/gnet,0,0,0,prototype4.png,no,mono,no,18,no,black,no,no,768,1148,3.5.6,legacy,xpyriment,osweb,1.3.13,0,j,right,j,,30290,21140,30290,,2,legacy,824,1536,24,864,24,0,0,1536,1645955954891,1024,2,48000,-16,experiment,prototype5.png,0,even,Win32,56,133005,129992,56,56,430494,432002,425494,134522,425494,56,,,,,,visual_patterns,0,0,0,yes,1366
undefined,undefined,undefined,undefined,white,no,Mozilla,Netscape,"5.0 (Windows NT 10.0; Win64; x64) AppleWebKit/537.36 (KHTML, like Gecko) Chrome/98.0.4758.102 Safari/537.36",xpyriment,legacy,legacy,0,uniform,0,0,0,0,24,24,24,0,0,41,41,41,41,41,0,41,0,,,,,,0,,27-01-22,27-01-22,10:57:56,Sun Feb 27 2022 10:57:56 GMT+0100 (közép-európai téli idő),The main experiment item,yes,0,0,C:/Users/rrics/Documents/!!ResearchBMECOGSCI/gnet,0,0,0,prototype4.png,no,mono,no,18,no,black,no,no,768,1148,3.5.6,legacy,xpyriment,osweb,1.3.13,0,j,right,j,,30290,21140,30290,,2,legacy,824,1536,24,864,24,0,0,1536,1645955954891,1024,2,48000,-16,experiment,p3sarrshacol2.png,0,even,Win32,56,133005,129992,56,56,437008,438519,432011,134522,432011,56,,,,,,visual_patterns,0,0,0,yes,1366
undefined,undefined,undefined,undefined,white,no,Mozilla,Netscape,"5.0 (Windows NT 10.0; Win64; x64) AppleWebKit/537.36 (KHTML, like Gecko) Chrome/98.0.4758.102 Safari/537.36",xpyriment,legacy,legacy,0,uniform,0,0,0,0,24,24,24,0,0,42,42,42,42,42,0,42,0,,,,,,0,,27-01-22,27-01-22,10:57:56,Sun Feb 27 2022 10:57:56 GMT+0100 (közép-európai téli idő),The main experiment item,yes,0,0,C:/Users/rrics/Documents/!!ResearchBMECOGSCI/gnet,0,0,0,prototype4.png,no,mono,no,18,no,black,no,no,768,1148,3.5.6,legacy,xpyriment,osweb,1.3.13,0,j,right,j,,30290,21140,30290,,2,legacy,824,1536,24,864,24,0,0,1536,1645955954891,1024,2,48000,-16,experiment,p3sarrcol2.png,0,even,Win32,56,133005,129992,56,56,443523,445035,438528,134522,438528,56,,,,,,visual_patterns,0,0,0,yes,1366
undefined,undefined,undefined,undefined,white,no,Mozilla,Netscape,"5.0 (Windows NT 10.0; Win64; x64) AppleWebKit/537.36 (KHTML, like Gecko) Chrome/98.0.4758.102 Safari/537.36",xpyriment,legacy,legacy,0,uniform,0,0,0,0,24,24,24,0,0,43,43,43,43,43,0,43,0,,,,,,0,,27-01-22,27-01-22,10:57:56,Sun Feb 27 2022 10:57:56 GMT+0100 (közép-európai téli idő),The main experiment item,yes,0,0,C:/Users/rrics/Documents/!!ResearchBMECOGSCI/gnet,0,0,0,prototype4.png,no,mono,no,18,no,black,no,no,768,1148,3.5.6,legacy,xpyriment,osweb,1.3.13,0,j,right,j,,30290,21140,30290,,2,legacy,824,1536,24,864,24,0,0,1536,1645955954891,1024,2,48000,-16,experiment,p3sarr2.png,0,even,Win32,56,133005,129992,56,56,450040,451551,445044,134522,445044,56,,,,,,visual_patterns,0,0,0,yes,1366
undefined,undefined,undefined,undefined,white,no,Mozilla,Netscape,"5.0 (Windows NT 10.0; Win64; x64) AppleWebKit/537.36 (KHTML, like Gecko) Chrome/98.0.4758.102 Safari/537.36",xpyriment,legacy,legacy,0,uniform,0,0,0,0,24,24,24,0,0,44,44,44,44,44,0,44,0,,,,,,0,,27-01-22,27-01-22,10:57:56,Sun Feb 27 2022 10:57:56 GMT+0100 (közép-európai téli idő),The main experiment item,yes,0,0,C:/Users/rrics/Documents/!!ResearchBMECOGSCI/gnet,0,0,0,prototype4.png,no,mono,no,18,no,black,no,no,768,1148,3.5.6,legacy,xpyriment,osweb,1.3.13,0,j,right,j,,30290,21140,30290,,2,legacy,824,1536,24,864,24,0,0,1536,1645955954891,1024,2,48000,-16,experiment,p2sarrsha1.png,0,even,Win32,56,133005,129992,56,56,456556,458068,451559,134522,451559,56,,,,,,visual_patterns,0,0,0,yes,1366
undefined,undefined,undefined,undefined,white,no,Mozilla,Netscape,"5.0 (Windows NT 10.0; Win64; x64) AppleWebKit/537.36 (KHTML, like Gecko) Chrome/98.0.4758.102 Safari/537.36",xpyriment,legacy,legacy,0,uniform,0,0,0,0,24,24,24,0,0,45,45,45,45,45,0,45,0,,,,,,0,,27-01-22,27-01-22,10:57:56,Sun Feb 27 2022 10:57:56 GMT+0100 (közép-európai téli idő),The main experiment item,yes,0,0,C:/Users/rrics/Documents/!!ResearchBMECOGSCI/gnet,0,0,0,prototype4.png,no,mono,no,18,no,black,no,no,768,1148,3.5.6,legacy,xpyriment,osweb,1.3.13,0,j,right,j,,30290,21140,30290,,2,legacy,824,1536,24,864,24,0,0,1536,1645955954891,1024,2,48000,-16,experiment,p4sarrsha1.png,0,even,Win32,56,133005,129992,56,56,463076,464585,458076,134522,458076,56,,,,,,visual_patterns,0,0,0,yes,1366
undefined,undefined,undefined,undefined,white,no,Mozilla,Netscape,"5.0 (Windows NT 10.0; Win64; x64) AppleWebKit/537.36 (KHTML, like Gecko) Chrome/98.0.4758.102 Safari/537.36",xpyriment,legacy,legacy,0,uniform,0,0,0,0,24,24,24,0,0,46,46,46,46,46,0,46,0,,,,,,0,,27-01-22,27-01-22,10:57:56,Sun Feb 27 2022 10:57:56 GMT+0100 (közép-európai téli idő),The main experiment item,yes,0,0,C:/Users/rrics/Documents/!!ResearchBMECOGSCI/gnet,0,0,0,prototype4.png,no,mono,no,18,no,black,no,no,768,1148,3.5.6,legacy,xpyriment,osweb,1.3.13,0,j,right,j,,30290,21140,30290,,2,legacy,824,1536,24,864,24,0,0,1536,1645955954891,1024,2,48000,-16,experiment,p1sarrcol1.png,0,even,Win32,56,133005,129992,56,56,469591,471100,464593,134522,464593,56,,,,,,visual_patterns,0,0,0,yes,1366
undefined,undefined,undefined,undefined,white,no,Mozilla,Netscape,"5.0 (Windows NT 10.0; Win64; x64) AppleWebKit/537.36 (KHTML, like Gecko) Chrome/98.0.4758.102 Safari/537.36",xpyriment,legacy,legacy,0,uniform,0,0,0,0,24,24,24,0,0,47,47,47,47,47,0,47,0,,,,,,0,,27-01-22,27-01-22,10:57:56,Sun Feb 27 2022 10:57:56 GMT+0100 (közép-európai téli idő),The main experiment item,yes,0,0,C:/Users/rrics/Documents/!!ResearchBMECOGSCI/gnet,0,0,0,prototype4.png,no,mono,no,18,no,black,no,no,768,1148,3.5.6,legacy,xpyriment,osweb,1.3.13,0,j,right,j,,30290,21140,30290,,2,legacy,824,1536,24,864,24,0,0,1536,1645955954891,1024,2,48000,-16,experiment,p1sarrsha2.png,0,even,Win32,56,133005,129992,56,56,476109,477616,471109,134522,471109,56,,,,,,visual_patterns,0,0,0,yes,1366
undefined,undefined,undefined,undefined,white,no,Mozilla,Netscape,"5.0 (Windows NT 10.0; Win64; x64) AppleWebKit/537.36 (KHTML, like Gecko) Chrome/98.0.4758.102 Safari/537.36",xpyriment,legacy,legacy,0,uniform,0,0,0,0,24,24,24,0,0,48,48,48,48,48,0,48,0,,,,,,0,,27-01-22,27-01-22,10:57:56,Sun Feb 27 2022 10:57:56 GMT+0100 (közép-európai téli idő),The main experiment item,yes,0,0,C:/Users/rrics/Documents/!!ResearchBMECOGSCI/gnet,0,0,0,prototype4.png,no,mono,no,18,no,black,no,no,768,1148,3.5.6,legacy,xpyriment,osweb,1.3.13,0,j,right,j,,30290,21140,30290,,2,legacy,824,1536,24,864,24,0,0,1536,1645955954891,1024,2,48000,-16,experiment,p7sarr2.png,0,even,Win32,56,133005,129992,56,56,482621,484133,477625,134522,477625,56,,,,,,visual_patterns,0,0,0,yes,1366
undefined,undefined,undefined,undefined,white,no,Mozilla,Netscape,"5.0 (Windows NT 10.0; Win64; x64) AppleWebKit/537.36 (KHTML, like Gecko) Chrome/98.0.4758.102 Safari/537.36",xpyriment,legacy,legacy,0,uniform,0,0,0,0,24,24,24,0,0,49,49,49,49,49,0,49,0,,,,,,0,,27-01-22,27-01-22,10:57:56,Sun Feb 27 2022 10:57:56 GMT+0100 (közép-európai téli idő),The main experiment item,yes,0,0,C:/Users/rrics/Documents/!!ResearchBMECOGSCI/gnet,0,0,0,prototype4.png,no,mono,no,18,no,black,no,no,768,1148,3.5.6,legacy,xpyriment,osweb,1.3.13,0,j,right,j,,30290,21140,30290,,2,legacy,824,1536,24,864,24,0,0,1536,1645955954891,1024,2,48000,-16,experiment,p4sarr1.png,0,even,Win32,56,133005,129992,56,56,489141,490649,484141,134522,484141,56,,,,,,visual_patterns,0,0,0,yes,1366
undefined,undefined,undefined,undefined,white,no,Mozilla,Netscape,"5.0 (Windows NT 10.0; Win64; x64) AppleWebKit/537.36 (KHTML, like Gecko) Chrome/98.0.4758.102 Safari/537.36",xpyriment,legacy,legacy,0,uniform,0,0,0,0,24,24,24,0,0,50,50,50,50,50,0,50,0,,,,,,0,,27-01-22,27-01-22,10:57:56,Sun Feb 27 2022 10:57:56 GMT+0100 (közép-európai téli idő),The main experiment item,yes,0,0,C:/Users/rrics/Documents/!!ResearchBMECOGSCI/gnet,0,0,0,prototype4.png,no,mono,no,18,no,black,no,no,768,1148,3.5.6,legacy,xpyriment,osweb,1.3.13,0,j,right,j,,30290,21140,30290,,2,legacy,824,1536,24,864,24,0,0,1536,1645955954891,1024,2,48000,-16,experiment,p10sarr1.png,0,even,Win32,56,133005,129992,56,56,495654,497166,490657,134522,490657,56,,,,,,visual_patterns,0,0,0,yes,1366
undefined,undefined,undefined,undefined,white,no,Mozilla,Netscape,"5.0 (Windows NT 10.0; Win64; x64) AppleWebKit/537.36 (KHTML, like Gecko) Chrome/98.0.4758.102 Safari/537.36",xpyriment,legacy,legacy,0,uniform,0,0,0,0,24,24,24,0,0,51,51,51,51,51,0,51,0,,,,,,0,,27-01-22,27-01-22,10:57:56,Sun Feb 27 2022 10:57:56 GMT+0100 (közép-európai téli idő),The main experiment item,yes,0,0,C:/Users/rrics/Documents/!!ResearchBMECOGSCI/gnet,0,0,0,prototype4.png,no,mono,no,18,no,black,no,no,768,1148,3.5.6,legacy,xpyriment,osweb,1.3.13,0,j,right,j,,30290,21140,30290,,2,legacy,824,1536,24,864,24,0,0,1536,1645955954891,1024,2,48000,-16,experiment,prototype3.png,0,even,Win32,56,133005,129992,56,56,502174,503683,497173,134522,497173,56,,,,,,visual_patterns,0,0,0,yes,1366
undefined,undefined,undefined,undefined,white,no,Mozilla,Netscape,"5.0 (Windows NT 10.0; Win64; x64) AppleWebKit/537.36 (KHTML, like Gecko) Chrome/98.0.4758.102 Safari/537.36",xpyriment,legacy,legacy,0,uniform,0,0,0,0,24,24,24,0,0,52,52,52,52,52,0,52,0,,,,,,0,,27-01-22,27-01-22,10:57:56,Sun Feb 27 2022 10:57:56 GMT+0100 (közép-európai téli idő),The main experiment item,yes,0,0,C:/Users/rrics/Documents/!!ResearchBMECOGSCI/gnet,0,0,0,prototype4.png,no,mono,no,18,no,black,no,no,768,1148,3.5.6,legacy,xpyriment,osweb,1.3.13,0,j,right,j,,30290,21140,30290,,2,legacy,824,1536,24,864,24,0,0,1536,1645955954891,1024,2,48000,-16,experiment,p1sarr1.png,0,even,Win32,56,133005,129992,56,56,508687,510198,503692,134522,503692,56,,,,,,visual_patterns,0,0,0,yes,1366
undefined,undefined,undefined,undefined,white,no,Mozilla,Netscape,"5.0 (Windows NT 10.0; Win64; x64) AppleWebKit/537.36 (KHTML, like Gecko) Chrome/98.0.4758.102 Safari/537.36",xpyriment,legacy,legacy,0,uniform,0,0,0,0,24,24,24,0,0,53,53,53,53,53,0,53,0,,,,,,0,,27-01-22,27-01-22,10:57:56,Sun Feb 27 2022 10:57:56 GMT+0100 (közép-európai téli idő),The main experiment item,yes,0,0,C:/Users/rrics/Documents/!!ResearchBMECOGSCI/gnet,0,0,0,prototype4.png,no,mono,no,18,no,black,no,no,768,1148,3.5.6,legacy,xpyriment,osweb,1.3.13,0,j,right,j,,30290,21140,30290,,2,legacy,824,1536,24,864,24,0,0,1536,1645955954891,1024,2,48000,-16,experiment,p1sarrcol2.png,0,even,Win32,56,133005,129992,56,56,515205,516715,510208,134522,510208,56,,,,,,visual_patterns,0,0,0,yes,1366
undefined,undefined,undefined,undefined,white,no,Mozilla,Netscape,"5.0 (Windows NT 10.0; Win64; x64) AppleWebKit/537.36 (KHTML, like Gecko) Chrome/98.0.4758.102 Safari/537.36",xpyriment,legacy,legacy,0,uniform,0,0,0,0,24,24,24,0,0,54,54,54,54,54,0,54,0,,,,,,0,,27-01-22,27-01-22,10:57:56,Sun Feb 27 2022 10:57:56 GMT+0100 (közép-európai téli idő),The main experiment item,yes,0,0,C:/Users/rrics/Documents/!!ResearchBMECOGSCI/gnet,0,0,0,prototype4.png,no,mono,no,18,no,black,no,no,768,1148,3.5.6,legacy,xpyriment,osweb,1.3.13,0,j,right,j,,30290,21140,30290,,2,legacy,824,1536,24,864,24,0,0,1536,1645955954891,1024,2,48000,-16,experiment,p2sarrcol2.png,0,even,Win32,56,133005,129992,56,56,521723,523231,516723,134522,516723,56,,,,,,visual_patterns,0,0,0,yes,1366
undefined,undefined,undefined,undefined,white,no,Mozilla,Netscape,"5.0 (Windows NT 10.0; Win64; x64) AppleWebKit/537.36 (KHTML, like Gecko) Chrome/98.0.4758.102 Safari/537.36",xpyriment,legacy,legacy,0,uniform,0,0,0,0,24,24,24,0,0,55,55,55,55,55,0,55,0,,,,,,0,,27-01-22,27-01-22,10:57:56,Sun Feb 27 2022 10:57:56 GMT+0100 (közép-európai téli idő),The main experiment item,yes,0,0,C:/Users/rrics/Documents/!!ResearchBMECOGSCI/gnet,0,0,0,prototype4.png,no,mono,no,18,no,black,no,no,768,1148,3.5.6,legacy,xpyriment,osweb,1.3.13,0,j,right,j,,30290,21140,30290,,2,legacy,824,1536,24,864,24,0,0,1536,1645955954891,1024,2,48000,-16,experiment,prototype4.png,0,even,Win32,56,133005,129992,56,56,528240,529747,523239,134522,523239,56,,,,,,visual_patterns,0,0,0,yes,1366
undefined,undefined,undefined,undefined,white,no,Mozilla,Netscape,"5.0 (Windows NT 10.0; Win64; x64) AppleWebKit/537.36 (KHTML, like Gecko) Chrome/98.0.4758.102 Safari/537.36",xpyriment,legacy,legacy,0,uniform,0,0,0,0,24,24,24,0,0,56,56,56,56,56,0,56,0,,,,,,0,,27-01-22,27-01-22,10:57:56,Sun Feb 27 2022 10:57:56 GMT+0100 (közép-európai téli idő),The main experiment item,yes,0,0,C:/Users/rrics/Documents/!!ResearchBMECOGSCI/gnet,0,0,0,prototype4.png,no,mono,no,18,no,black,no,no,768,1148,3.5.6,legacy,xpyriment,osweb,1.3.13,0,j,right,j,,30290,21140,30290,,2,legacy,824,1536,24,864,24,0,0,1536,1645955954891,1024,2,48000,-16,experiment,p2sarrshacol1.png,0,even,Win32,56,133005,129992,56,56,534755,536263,529754,134522,529754,56,,,,,,visual_patterns,0,0,0,yes,1366
undefined,undefined,undefined,undefined,white,no,Mozilla,Netscape,"5.0 (Windows NT 10.0; Win64; x64) AppleWebKit/537.36 (KHTML, like Gecko) Chrome/98.0.4758.102 Safari/537.36",xpyriment,legacy,legacy,0,uniform,0,0,0,0,24,24,24,0,0,57,57,57,57,57,0,57,0,,,,,,0,,27-01-22,27-01-22,10:57:56,Sun Feb 27 2022 10:57:56 GMT+0100 (közép-európai téli idő),The main experiment item,yes,0,0,C:/Users/rrics/Documents/!!ResearchBMECOGSCI/gnet,0,0,0,prototype4.png,no,mono,no,18,no,black,no,no,768,1148,3.5.6,legacy,xpyriment,osweb,1.3.13,0,j,right,j,,30290,21140,30290,,2,legacy,824,1536,24,864,24,0,0,1536,1645955954891,1024,2,48000,-16,experiment,prototype5.png,0,even,Win32,56,133005,129992,56,56,541268,542779,536270,134522,536270,56,,,,,,visual_patterns,0,0,0,yes,1366
undefined,undefined,undefined,undefined,white,no,Mozilla,Netscape,"5.0 (Windows NT 10.0; Win64; x64) AppleWebKit/537.36 (KHTML, like Gecko) Chrome/98.0.4758.102 Safari/537.36",xpyriment,legacy,legacy,0,uniform,0,0,0,0,24,24,24,0,0,58,58,58,58,58,0,58,0,,,,,,0,,27-01-22,27-01-22,10:57:56,Sun Feb 27 2022 10:57:56 GMT+0100 (közép-európai téli idő),The main experiment item,yes,0,0,C:/Users/rrics/Documents/!!ResearchBMECOGSCI/gnet,0,0,0,prototype4.png,no,mono,no,18,no,black,no,no,768,1148,3.5.6,legacy,xpyriment,osweb,1.3.13,0,j,right,j,,30290,21140,30290,,2,legacy,824,1536,24,864,24,0,0,1536,1645955954891,1024,2,48000,-16,experiment,prototype2.png,0,even,Win32,56,133005,129992,56,56,547788,549295,542786,134522,542786,56,,,,,,visual_patterns,0,0,0,yes,1366
undefined,undefined,undefined,undefined,white,no,Mozilla,Netscape,"5.0 (Windows NT 10.0; Win64; x64) AppleWebKit/537.36 (KHTML, like Gecko) Chrome/98.0.4758.102 Safari/537.36",xpyriment,legacy,legacy,0,uniform,0,0,0,0,24,24,24,0,0,59,59,59,59,59,0,59,0,,,,,,0,,27-01-22,27-01-22,10:57:56,Sun Feb 27 2022 10:57:56 GMT+0100 (közép-európai téli idő),The main experiment item,yes,0,0,C:/Users/rrics/Documents/!!ResearchBMECOGSCI/gnet,0,0,0,prototype4.png,no,mono,no,18,no,black,no,no,768,1148,3.5.6,legacy,xpyriment,osweb,1.3.13,0,j,right,j,,30290,21140,30290,,2,legacy,824,1536,24,864,24,0,0,1536,1645955954891,1024,2,48000,-16,experiment,prototype5.png,0,even,Win32,56,133005,129992,56,56,554302,555812,549302,134522,549302,56,,,,,,visual_patterns,0,0,0,yes,1366
undefined,undefined,undefined,undefined,white,no,Mozilla,Netscape,"5.0 (Windows NT 10.0; Win64; x64) AppleWebKit/537.36 (KHTML, like Gecko) Chrome/98.0.4758.102 Safari/537.36",xpyriment,legacy,legacy,0,uniform,0,0,0,0,24,24,24,0,0,60,60,60,60,60,0,60,0,,,,,,0,,27-01-22,27-01-22,10:57:56,Sun Feb 27 2022 10:57:56 GMT+0100 (közép-európai téli idő),The main experiment item,yes,0,0,C:/Users/rrics/Documents/!!ResearchBMECOGSCI/gnet,0,0,0,prototype4.png,no,mono,no,18,no,black,no,no,768,1148,3.5.6,legacy,xpyriment,osweb,1.3.13,0,j,right,j,,30290,21140,30290,,2,legacy,824,1536,24,864,24,0,0,1536,1645955954891,1024,2,48000,-16,experiment,p1sarrshacol2.png,0,even,Win32,56,133005,129992,56,56,560820,562328,555820,134522,555820,56,,,,,,visual_patterns,0,0,0,yes,1366
undefined,undefined,undefined,undefined,white,no,Mozilla,Netscape,"5.0 (Windows NT 10.0; Win64; x64) AppleWebKit/537.36 (KHTML, like Gecko) Chrome/98.0.4758.102 Safari/537.36",xpyriment,legacy,legacy,0,uniform,0,0,0,0,24,24,24,0,0,61,61,61,61,61,0,61,0,,,,,,0,,27-01-22,27-01-22,10:57:56,Sun Feb 27 2022 10:57:56 GMT+0100 (közép-európai téli idő),The main experiment item,yes,0,0,C:/Users/rrics/Documents/!!ResearchBMECOGSCI/gnet,0,0,0,prototype4.png,no,mono,no,18,no,black,no,no,768,1148,3.5.6,legacy,xpyriment,osweb,1.3.13,0,j,right,j,,30290,21140,30290,,2,legacy,824,1536,24,864,24,0,0,1536,1645955954891,1024,2,48000,-16,experiment,p2sarrcol1.png,0,even,Win32,56,133005,129992,56,56,567335,568844,562336,134522,562336,56,,,,,,visual_patterns,0,0,0,yes,1366
undefined,undefined,undefined,undefined,white,no,Mozilla,Netscape,"5.0 (Windows NT 10.0; Win64; x64) AppleWebKit/537.36 (KHTML, like Gecko) Chrome/98.0.4758.102 Safari/537.36",xpyriment,legacy,legacy,0,uniform,0,0,0,0,24,24,24,0,0,62,62,62,62,62,0,62,0,,,,,,0,,27-01-22,27-01-22,10:57:56,Sun Feb 27 2022 10:57:56 GMT+0100 (közép-európai téli idő),The main experiment item,yes,0,0,C:/Users/rrics/Documents/!!ResearchBMECOGSCI/gnet,0,0,0,prototype4.png,no,mono,no,18,no,black,no,no,768,1148,3.5.6,legacy,xpyriment,osweb,1.3.13,0,j,right,j,,30290,21140,30290,,2,legacy,824,1536,24,864,24,0,0,1536,1645955954891,1024,2,48000,-16,experiment,p5sarr2.png,0,even,Win32,56,133005,129992,56,56,573848,575360,568852,134522,568852,56,,,,,,visual_patterns,0,0,0,yes,1366
undefined,undefined,undefined,undefined,white,no,Mozilla,Netscape,"5.0 (Windows NT 10.0; Win64; x64) AppleWebKit/537.36 (KHTML, like Gecko) Chrome/98.0.4758.102 Safari/537.36",xpyriment,legacy,legacy,0,uniform,0,0,0,0,24,24,24,0,0,63,63,63,63,63,0,63,0,,,,,,0,,27-01-22,27-01-22,10:57:56,Sun Feb 27 2022 10:57:56 GMT+0100 (közép-európai téli idő),The main experiment item,yes,0,0,C:/Users/rrics/Documents/!!ResearchBMECOGSCI/gnet,0,0,0,prototype4.png,no,mono,no,18,no,black,no,no,768,1148,3.5.6,legacy,xpyriment,osweb,1.3.13,0,j,right,j,,30290,21140,30290,,2,legacy,824,1536,24,864,24,0,0,1536,1645955954891,1024,2,48000,-16,experiment,p10sarr2.png,0,even,Win32,56,133005,129992,56,56,580366,581876,575369,134522,575369,56,,,,,,visual_patterns,0,0,0,yes,1366
undefined,undefined,undefined,undefined,white,no,Mozilla,Netscape,"5.0 (Windows NT 10.0; Win64; x64) AppleWebKit/537.36 (KHTML, like Gecko) Chrome/98.0.4758.102 Safari/537.36",xpyriment,legacy,legacy,0,uniform,0,0,0,0,24,24,24,0,0,64,64,64,64,64,0,64,0,,,,,,0,,27-01-22,27-01-22,10:57:56,Sun Feb 27 2022 10:57:56 GMT+0100 (közép-európai téli idő),The main experiment item,yes,0,0,C:/Users/rrics/Documents/!!ResearchBMECOGSCI/gnet,0,0,0,prototype4.png,no,mono,no,18,no,black,no,no,768,1148,3.5.6,legacy,xpyriment,osweb,1.3.13,0,j,right,j,,30290,21140,30290,,2,legacy,824,1536,24,864,24,0,0,1536,1645955954891,1024,2,48000,-16,experiment,prototype1.png,0,even,Win32,56,133005,129992,56,56,586884,588394,581884,134522,581884,56,,,,,,visual_patterns,0,0,0,yes,1366
undefined,undefined,undefined,undefined,white,no,Mozilla,Netscape,"5.0 (Windows NT 10.0; Win64; x64) AppleWebKit/537.36 (KHTML, like Gecko) Chrome/98.0.4758.102 Safari/537.36",xpyriment,legacy,legacy,0,uniform,0,0,0,0,24,24,24,0,0,65,65,65,65,65,0,65,0,,,,,,0,,27-01-22,27-01-22,10:57:56,Sun Feb 27 2022 10:57:56 GMT+0100 (közép-európai téli idő),The main experiment item,yes,0,0,C:/Users/rrics/Documents/!!ResearchBMECOGSCI/gnet,0,0,0,prototype4.png,no,mono,no,18,no,black,no,no,768,1148,3.5.6,legacy,xpyriment,osweb,1.3.13,0,j,right,j,,30290,21140,30290,,2,legacy,824,1536,24,864,24,0,0,1536,1645955954891,1024,2,48000,-16,experiment,prototype4.png,0,even,Win32,56,133005,129992,56,56,593399,594910,588401,134522,588401,56,,,,,,visual_patterns,0,0,0,yes,1366
undefined,undefined,undefined,undefined,white,no,Mozilla,Netscape,"5.0 (Windows NT 10.0; Win64; x64) AppleWebKit/537.36 (KHTML, like Gecko) Chrome/98.0.4758.102 Safari/537.36",xpyriment,legacy,legacy,0,uniform,0,0,0,0,24,24,24,0,0,66,66,66,66,66,0,66,0,,,,,,0,,27-01-22,27-01-22,10:57:56,Sun Feb 27 2022 10:57:56 GMT+0100 (közép-európai téli idő),The main experiment item,yes,0,0,C:/Users/rrics/Documents/!!ResearchBMECOGSCI/gnet,0,0,0,prototype4.png,no,mono,no,18,no,black,no,no,768,1148,3.5.6,legacy,xpyriment,osweb,1.3.13,0,j,right,j,,30290,21140,30290,,2,legacy,824,1536,24,864,24,0,0,1536,1645955954891,1024,2,48000,-16,experiment,p2sarrshacol2.png,0,even,Win32,56,133005,129992,56,56,599919,601426,594920,134522,594920,56,,,,,,visual_patterns,0,0,0,yes,1366
undefined,undefined,undefined,undefined,white,no,Mozilla,Netscape,"5.0 (Windows NT 10.0; Win64; x64) AppleWebKit/537.36 (KHTML, like Gecko) Chrome/98.0.4758.102 Safari/537.36",xpyriment,legacy,legacy,0,uniform,0,0,0,0,24,24,24,0,0,67,67,67,67,67,0,67,0,,,,,,0,,27-01-22,27-01-22,10:57:56,Sun Feb 27 2022 10:57:56 GMT+0100 (közép-európai téli idő),The main experiment item,yes,0,0,C:/Users/rrics/Documents/!!ResearchBMECOGSCI/gnet,0,0,0,prototype4.png,no,mono,no,18,no,black,no,no,768,1148,3.5.6,legacy,xpyriment,osweb,1.3.13,0,j,right,j,,30290,21140,30290,,2,legacy,824,1536,24,864,24,0,0,1536,1645955954891,1024,2,48000,-16,experiment,p1sarr2.png,0,even,Win32,56,133005,129992,56,56,606431,607941,601434,134522,601434,56,,,,,,visual_patterns,0,0,0,yes,1366
undefined,undefined,undefined,undefined,white,no,Mozilla,Netscape,"5.0 (Windows NT 10.0; Win64; x64) AppleWebKit/537.36 (KHTML, like Gecko) Chrome/98.0.4758.102 Safari/537.36",xpyriment,legacy,legacy,0,uniform,0,0,0,0,24,24,24,0,0,68,68,68,68,68,0,68,0,,,,,,0,,27-01-22,27-01-22,10:57:56,Sun Feb 27 2022 10:57:56 GMT+0100 (közép-európai téli idő),The main experiment item,yes,0,0,C:/Users/rrics/Documents/!!ResearchBMECOGSCI/gnet,0,0,0,prototype4.png,no,mono,no,18,no,black,no,no,768,1148,3.5.6,legacy,xpyriment,osweb,1.3.13,0,j,right,j,,30290,21140,30290,,2,legacy,824,1536,24,864,24,0,0,1536,1645955954891,1024,2,48000,-16,experiment,p6sarr2.png,0,even,Win32,56,133005,129992,56,56,612949,614458,607949,134522,607949,56,,,,,,visual_patterns,0,0,0,yes,1366
undefined,undefined,undefined,undefined,white,no,Mozilla,Netscape,"5.0 (Windows NT 10.0; Win64; x64) AppleWebKit/537.36 (KHTML, like Gecko) Chrome/98.0.4758.102 Safari/537.36",xpyriment,legacy,legacy,0,uniform,0,0,0,0,24,24,24,0,0,69,69,69,69,69,0,69,0,,,,,,0,,27-01-22,27-01-22,10:57:56,Sun Feb 27 2022 10:57:56 GMT+0100 (közép-európai téli idő),The main experiment item,yes,0,0,C:/Users/rrics/Documents/!!ResearchBMECOGSCI/gnet,0,0,0,prototype4.png,no,mono,no,18,no,black,no,no,768,1148,3.5.6,legacy,xpyriment,osweb,1.3.13,0,j,right,j,,30290,21140,30290,,2,legacy,824,1536,24,864,24,0,0,1536,1645955954891,1024,2,48000,-16,experiment,prototype2.png,0,even,Win32,56,133005,129992,56,56,619463,620975,614465,134522,614465,56,,,,,,visual_patterns,0,0,0,yes,1366
undefined,undefined,undefined,undefined,white,no,Mozilla,Netscape,"5.0 (Windows NT 10.0; Win64; x64) AppleWebKit/537.36 (KHTML, like Gecko) Chrome/98.0.4758.102 Safari/537.36",xpyriment,legacy,legacy,0,uniform,0,0,0,0,24,24,24,0,0,70,70,70,70,70,0,70,0,,,,,,0,,27-01-22,27-01-22,10:57:56,Sun Feb 27 2022 10:57:56 GMT+0100 (közép-európai téli idő),The main experiment item,yes,0,0,C:/Users/rrics/Documents/!!ResearchBMECOGSCI/gnet,0,0,0,prototype4.png,no,mono,no,18,no,black,no,no,768,1148,3.5.6,legacy,xpyriment,osweb,1.3.13,0,j,right,j,,30290,21140,30290,,2,legacy,824,1536,24,864,24,0,0,1536,1645955954891,1024,2,48000,-16,experiment,p1sarrshacol1.png,0,even,Win32,56,133005,129992,56,56,625982,627491,620984,134522,620984,56,,,,,,visual_patterns,0,0,0,yes,1366
undefined,undefined,undefined,undefined,white,no,Mozilla,Netscape,"5.0 (Windows NT 10.0; Win64; x64) AppleWebKit/537.36 (KHTML, like Gecko) Chrome/98.0.4758.102 Safari/537.36",xpyriment,legacy,legacy,0,uniform,0,0,0,0,24,24,24,0,0,71,71,71,71,71,0,71,0,,,,,,0,,27-01-22,27-01-22,10:57:56,Sun Feb 27 2022 10:57:56 GMT+0100 (közép-európai téli idő),The main experiment item,yes,0,0,C:/Users/rrics/Documents/!!ResearchBMECOGSCI/gnet,0,0,0,prototype4.png,no,mono,no,18,no,black,no,no,768,1148,3.5.6,legacy,xpyriment,osweb,1.3.13,0,j,right,j,,30290,21140,30290,,2,legacy,824,1536,24,864,24,0,0,1536,1645955954891,1024,2,48000,-16,experiment,prototype1.png,0,even,Win32,56,133005,129992,56,56,632496,634007,627498,134522,627498,56,,,,,,visual_patterns,0,0,0,yes,1366
undefined,undefined,undefined,undefined,white,no,Mozilla,Netscape,"5.0 (Windows NT 10.0; Win64; x64) AppleWebKit/537.36 (KHTML, like Gecko) Chrome/98.0.4758.102 Safari/537.36",xpyriment,legacy,legacy,0,uniform,0,0,0,0,24,24,24,0,0,72,72,72,72,72,0,72,0,,,,,,0,,27-01-22,27-01-22,10:57:56,Sun Feb 27 2022 10:57:56 GMT+0100 (közép-európai téli idő),The main experiment item,yes,0,0,C:/Users/rrics/Documents/!!ResearchBMECOGSCI/gnet,0,0,0,prototype4.png,no,mono,no,18,no,black,no,no,768,1148,3.5.6,legacy,xpyriment,osweb,1.3.13,0,j,right,j,,30290,21140,30290,,2,legacy,824,1536,24,864,24,0,0,1536,1645955954891,1024,2,48000,-16,experiment,prototype5.png,0,even,Win32,56,133005,129992,56,56,639011,640523,634014,134522,634014,56,,,,,,visual_patterns,0,0,0,yes,1366
undefined,undefined,undefined,undefined,white,no,Mozilla,Netscape,"5.0 (Windows NT 10.0; Win64; x64) AppleWebKit/537.36 (KHTML, like Gecko) Chrome/98.0.4758.102 Safari/537.36",xpyriment,legacy,legacy,0,uniform,0,0,0,0,24,24,24,0,0,73,73,73,73,73,0,73,0,,,,,,0,,27-01-22,27-01-22,10:57:56,Sun Feb 27 2022 10:57:56 GMT+0100 (közép-európai téli idő),The main experiment item,yes,0,0,C:/Users/rrics/Documents/!!ResearchBMECOGSCI/gnet,0,0,0,prototype4.png,no,mono,no,18,no,black,no,no,768,1148,3.5.6,legacy,xpyriment,osweb,1.3.13,0,j,right,j,,30290,21140,30290,,2,legacy,824,1536,24,864,24,0,0,1536,1645955954891,1024,2,48000,-16,experiment,prototype3.png,0,even,Win32,56,133005,129992,56,56,645532,647039,640530,134522,640530,56,,,,,,visual_patterns,0,0,0,yes,1366
undefined,undefined,undefined,undefined,white,no,Mozilla,Netscape,"5.0 (Windows NT 10.0; Win64; x64) AppleWebKit/537.36 (KHTML, like Gecko) Chrome/98.0.4758.102 Safari/537.36",xpyriment,legacy,legacy,0,uniform,0,0,0,0,24,24,24,0,0,74,74,74,74,74,0,74,0,,,,,,0,,27-01-22,27-01-22,10:57:56,Sun Feb 27 2022 10:57:56 GMT+0100 (közép-európai téli idő),The main experiment item,yes,0,0,C:/Users/rrics/Documents/!!ResearchBMECOGSCI/gnet,0,0,0,prototype4.png,no,mono,no,18,no,black,no,no,768,1148,3.5.6,legacy,xpyriment,osweb,1.3.13,0,j,right,j,,30290,21140,30290,,2,legacy,824,1536,24,864,24,0,0,1536,1645955954891,1024,2,48000,-16,experiment,prototype2.png,0,even,Win32,56,133005,129992,56,56,652047,653556,647047,134522,647047,56,,,,,,visual_patterns,0,0,0,yes,1366
undefined,undefined,undefined,undefined,white,no,Mozilla,Netscape,"5.0 (Windows NT 10.0; Win64; x64) AppleWebKit/537.36 (KHTML, like Gecko) Chrome/98.0.4758.102 Safari/537.36",xpyriment,legacy,legacy,0,uniform,0,0,0,0,24,24,24,0,0,74,74,74,74,74,0,74,0,0,0,0,0,0,0,0,27-01-22,27-01-22,10:57:56,Sun Feb 27 2022 10:57:56 GMT+0100 (közép-európai téli idő),The main experiment item,yes,0,0,C:/Users/rrics/Documents/!!ResearchBMECOGSCI/gnet,0,0,0,prototype4.png,no,mono,no,18,no,black,no,no,768,1148,3.5.6,legacy,xpyriment,osweb,1.3.13,0,space,right,j,space,27631,21140,30290,27631,2,legacy,824,1536,24,864,24,0,0,1536,1645955954891,1024,2,48000,-16,experiment,p5sarrsha3.png,0,even,Win32,56,133005,129992,56,56,652047,653556,647047,134522,647047,56,684215,685721,681217,653558,681217,visual_patterns,0,0,0,yes,1366
undefined,undefined,undefined,undefined,white,no,Mozilla,Netscape,"5.0 (Windows NT 10.0; Win64; x64) AppleWebKit/537.36 (KHTML, like Gecko) Chrome/98.0.4758.102 Safari/537.36",xpyriment,legacy,legacy,0,uniform,0,0,0,0,24,24,24,0,0,74,74,74,74,74,0,74,0,1,1,1,1,1,0,1,27-01-22,27-01-22,10:57:56,Sun Feb 27 2022 10:57:56 GMT+0100 (közép-európai téli idő),The main experiment item,yes,0,0,C:/Users/rrics/Documents/!!ResearchBMECOGSCI/gnet,0,0,0,prototype4.png,no,mono,no,18,no,black,no,no,768,1148,3.5.6,legacy,xpyriment,osweb,1.3.13,0,space,right,j,space,27631,21140,30290,27631,2,legacy,824,1536,24,864,24,0,0,1536,1645955954891,1024,2,48000,-16,experiment,p2sarrshacol1.png,0,even,Win32,56,133005,129992,56,56,652047,653556,647047,134522,647047,56,688730,690236,685729,653558,685729,visual_patterns,0,0,0,yes,1366
undefined,undefined,undefined,undefined,white,no,Mozilla,Netscape,"5.0 (Windows NT 10.0; Win64; x64) AppleWebKit/537.36 (KHTML, like Gecko) Chrome/98.0.4758.102 Safari/537.36",xpyriment,legacy,legacy,0,uniform,0,0,0,0,24,24,24,0,0,74,74,74,74,74,0,74,0,2,2,2,2,2,0,2,27-01-22,27-01-22,10:57:56,Sun Feb 27 2022 10:57:56 GMT+0100 (közép-európai téli idő),The main experiment item,yes,0,0,C:/Users/rrics/Documents/!!ResearchBMECOGSCI/gnet,0,0,0,prototype4.png,no,mono,no,18,no,black,no,no,768,1148,3.5.6,legacy,xpyriment,osweb,1.3.13,0,space,right,j,space,27631,21140,30290,27631,2,legacy,824,1536,24,864,24,0,0,1536,1645955954891,1024,2,48000,-16,experiment,p4sarr4.png,0,even,Win32,56,133005,129992,56,56,652047,653556,647047,134522,647047,56,693243,694754,690245,653558,690245,visual_patterns,0,0,0,yes,1366
undefined,undefined,undefined,undefined,white,no,Mozilla,Netscape,"5.0 (Windows NT 10.0; Win64; x64) AppleWebKit/537.36 (KHTML, like Gecko) Chrome/98.0.4758.102 Safari/537.36",xpyriment,legacy,legacy,0,uniform,0,0,0,0,24,24,24,0,0,74,74,74,74,74,0,74,0,3,3,3,3,3,0,3,27-01-22,27-01-22,10:57:56,Sun Feb 27 2022 10:57:56 GMT+0100 (közép-európai téli idő),The main experiment item,yes,0,0,C:/Users/rrics/Documents/!!ResearchBMECOGSCI/gnet,0,0,0,prototype4.png,no,mono,no,18,no,black,no,no,768,1148,3.5.6,legacy,xpyriment,osweb,1.3.13,0,space,right,j,space,27631,21140,30290,27631,2,legacy,824,1536,24,864,24,0,0,1536,1645955954891,1024,2,48000,-16,experiment,p5sarrsha2.png,0,even,Win32,56,133005,129992,56,56,652047,653556,647047,134522,647047,56,697761,699270,694762,653558,694762,visual_patterns,0,0,0,yes,1366
undefined,undefined,undefined,undefined,white,no,Mozilla,Netscape,"5.0 (Windows NT 10.0; Win64; x64) AppleWebKit/537.36 (KHTML, like Gecko) Chrome/98.0.4758.102 Safari/537.36",xpyriment,legacy,legacy,0,uniform,0,0,0,0,24,24,24,0,0,74,74,74,74,74,0,74,0,4,4,4,4,4,0,4,27-01-22,27-01-22,10:57:56,Sun Feb 27 2022 10:57:56 GMT+0100 (közép-európai téli idő),The main experiment item,yes,0,0,C:/Users/rrics/Documents/!!ResearchBMECOGSCI/gnet,0,0,0,prototype4.png,no,mono,no,18,no,black,no,no,768,1148,3.5.6,legacy,xpyriment,osweb,1.3.13,0,space,right,j,space,27631,21140,30290,27631,2,legacy,824,1536,24,864,24,0,0,1536,1645955954891,1024,2,48000,-16,experiment,p7sarr2.png,0,even,Win32,56,133005,129992,56,56,652047,653556,647047,134522,647047,56,702277,703786,699278,653558,699278,visual_patterns,0,0,0,yes,1366
undefined,undefined,undefined,undefined,white,no,Mozilla,Netscape,"5.0 (Windows NT 10.0; Win64; x64) AppleWebKit/537.36 (KHTML, like Gecko) Chrome/98.0.4758.102 Safari/537.36",xpyriment,legacy,legacy,0,uniform,0,0,0,0,24,24,24,0,0,74,74,74,74,74,0,74,0,5,5,5,5,5,0,5,27-01-22,27-01-22,10:57:56,Sun Feb 27 2022 10:57:56 GMT+0100 (közép-európai téli idő),The main experiment item,yes,0,0,C:/Users/rrics/Documents/!!ResearchBMECOGSCI/gnet,0,0,0,prototype4.png,no,mono,no,18,no,black,no,no,768,1148,3.5.6,legacy,xpyriment,osweb,1.3.13,0,space,right,j,space,27631,21140,30290,27631,2,legacy,824,1536,24,864,24,0,0,1536,1645955954891,1024,2,48000,-16,experiment,p1sarrsha4.png,0,even,Win32,56,133005,129992,56,56,652047,653556,647047,134522,647047,56,706794,708303,703795,653558,703795,visual_patterns,0,0,0,yes,1366
undefined,undefined,undefined,undefined,white,no,Mozilla,Netscape,"5.0 (Windows NT 10.0; Win64; x64) AppleWebKit/537.36 (KHTML, like Gecko) Chrome/98.0.4758.102 Safari/537.36",xpyriment,legacy,legacy,0,uniform,0,0,0,0,24,24,24,0,0,74,74,74,74,74,0,74,0,6,6,6,6,6,0,6,27-01-22,27-01-22,10:57:56,Sun Feb 27 2022 10:57:56 GMT+0100 (közép-európai téli idő),The main experiment item,yes,0,0,C:/Users/rrics/Documents/!!ResearchBMECOGSCI/gnet,0,0,0,prototype4.png,no,mono,no,18,no,black,no,no,768,1148,3.5.6,legacy,xpyriment,osweb,1.3.13,0,space,right,j,space,27631,21140,30290,27631,2,legacy,824,1536,24,864,24,0,0,1536,1645955954891,1024,2,48000,-16,experiment,p3sarrcol2.png,0,even,Win32,56,133005,129992,56,56,652047,653556,647047,134522,647047,56,711309,712818,708310,653558,708310,visual_patterns,0,0,0,yes,1366
undefined,undefined,undefined,undefined,white,no,Mozilla,Netscape,"5.0 (Windows NT 10.0; Win64; x64) AppleWebKit/537.36 (KHTML, like Gecko) Chrome/98.0.4758.102 Safari/537.36",xpyriment,legacy,legacy,0,uniform,0,0,0,0,24,24,24,0,0,74,74,74,74,74,0,74,0,7,7,7,7,7,0,7,27-01-22,27-01-22,10:57:56,Sun Feb 27 2022 10:57:56 GMT+0100 (közép-európai téli idő),The main experiment item,yes,0,0,C:/Users/rrics/Documents/!!ResearchBMECOGSCI/gnet,0,0,0,prototype4.png,no,mono,no,18,no,black,no,no,768,1148,3.5.6,legacy,xpyriment,osweb,1.3.13,0,space,right,j,space,27631,21140,30290,27631,2,legacy,824,1536,24,864,24,0,0,1536,1645955954891,1024,2,48000,-16,experiment,p3sarrcol3.png,0,even,Win32,56,133005,129992,56,56,652047,653556,647047,134522,647047,56,715825,717336,712827,653558,712827,visual_patterns,0,0,0,yes,1366
undefined,undefined,undefined,undefined,white,no,Mozilla,Netscape,"5.0 (Windows NT 10.0; Win64; x64) AppleWebKit/537.36 (KHTML, like Gecko) Chrome/98.0.4758.102 Safari/537.36",xpyriment,legacy,legacy,0,uniform,0,0,0,0,24,24,24,0,0,74,74,74,74,74,0,74,0,8,8,8,8,8,0,8,27-01-22,27-01-22,10:57:56,Sun Feb 27 2022 10:57:56 GMT+0100 (közép-európai téli idő),The main experiment item,yes,0,0,C:/Users/rrics/Documents/!!ResearchBMECOGSCI/gnet,0,0,0,prototype4.png,no,mono,no,18,no,black,no,no,768,1148,3.5.6,legacy,xpyriment,osweb,1.3.13,0,space,right,j,space,27631,21140,30290,27631,2,legacy,824,1536,24,864,24,0,0,1536,1645955954891,1024,2,48000,-16,experiment,p1sarrsha1.png,0,even,Win32,56,133005,129992,56,56,652047,653556,647047,134522,647047,56,720342,721851,717343,653558,717343,visual_patterns,0,0,0,yes,1366
undefined,undefined,undefined,undefined,white,no,Mozilla,Netscape,"5.0 (Windows NT 10.0; Win64; x64) AppleWebKit/537.36 (KHTML, like Gecko) Chrome/98.0.4758.102 Safari/537.36",xpyriment,legacy,legacy,0,uniform,0,0,0,0,24,24,24,0,0,74,74,74,74,74,0,74,0,9,9,9,9,9,0,9,27-01-22,27-01-22,10:57:56,Sun Feb 27 2022 10:57:56 GMT+0100 (közép-európai téli idő),The main experiment item,yes,0,0,C:/Users/rrics/Documents/!!ResearchBMECOGSCI/gnet,0,0,0,prototype4.png,no,mono,no,18,no,black,no,no,768,1148,3.5.6,legacy,xpyriment,osweb,1.3.13,0,space,right,j,space,27631,21140,30290,27631,2,legacy,824,1536,24,864,24,0,0,1536,1645955954891,1024,2,48000,-16,experiment,p4sarr1.png,0,even,Win32,56,133005,129992,56,56,652047,653556,647047,134522,647047,56,724856,726368,721859,653558,721859,visual_patterns,0,0,0,yes,1366
undefined,undefined,undefined,undefined,white,no,Mozilla,Netscape,"5.0 (Windows NT 10.0; Win64; x64) AppleWebKit/537.36 (KHTML, like Gecko) Chrome/98.0.4758.102 Safari/537.36",xpyriment,legacy,legacy,0,uniform,0,0,0,0,24,24,24,0,0,74,74,74,74,74,0,74,0,10,10,10,10,10,0,10,27-01-22,27-01-22,10:57:56,Sun Feb 27 2022 10:57:56 GMT+0100 (közép-európai téli idő),The main experiment item,yes,0,0,C:/Users/rrics/Documents/!!ResearchBMECOGSCI/gnet,0,0,0,prototype4.png,no,mono,no,18,no,black,no,no,768,1148,3.5.6,legacy,xpyriment,osweb,1.3.13,0,space,right,j,space,27631,21140,30290,27631,2,legacy,824,1536,24,864,24,0,0,1536,1645955954891,1024,2,48000,-16,experiment,p9sarr2.png,0,even,Win32,56,133005,129992,56,56,652047,653556,647047,134522,647047,56,729376,730885,726379,653558,726379,visual_patterns,0,0,0,yes,1366
undefined,undefined,undefined,undefined,white,no,Mozilla,Netscape,"5.0 (Windows NT 10.0; Win64; x64) AppleWebKit/537.36 (KHTML, like Gecko) Chrome/98.0.4758.102 Safari/537.36",xpyriment,legacy,legacy,0,uniform,0,0,0,0,24,24,24,0,0,74,74,74,74,74,0,74,0,11,11,11,11,11,0,11,27-01-22,27-01-22,10:57:56,Sun Feb 27 2022 10:57:56 GMT+0100 (közép-európai téli idő),The main experiment item,yes,0,0,C:/Users/rrics/Documents/!!ResearchBMECOGSCI/gnet,0,0,0,prototype4.png,no,mono,no,18,no,black,no,no,768,1148,3.5.6,legacy,xpyriment,osweb,1.3.13,0,space,right,j,space,27631,21140,30290,27631,2,legacy,824,1536,24,864,24,0,0,1536,1645955954891,1024,2,48000,-16,experiment,p1sarr2.png,0,even,Win32,56,133005,129992,56,56,652047,653556,647047,134522,647047,56,733891,735402,730892,653558,730892,visual_patterns,0,0,0,yes,1366
undefined,undefined,undefined,undefined,white,no,Mozilla,Netscape,"5.0 (Windows NT 10.0; Win64; x64) AppleWebKit/537.36 (KHTML, like Gecko) Chrome/98.0.4758.102 Safari/537.36",xpyriment,legacy,legacy,0,uniform,0,0,0,0,24,24,24,0,0,74,74,74,74,74,0,74,0,12,12,12,12,12,0,12,27-01-22,27-01-22,10:57:56,Sun Feb 27 2022 10:57:56 GMT+0100 (közép-európai téli idő),The main experiment item,yes,0,0,C:/Users/rrics/Documents/!!ResearchBMECOGSCI/gnet,0,0,0,prototype4.png,no,mono,no,18,no,black,no,no,768,1148,3.5.6,legacy,xpyriment,osweb,1.3.13,0,space,right,j,space,27631,21140,30290,27631,2,legacy,824,1536,24,864,24,0,0,1536,1645955954891,1024,2,48000,-16,experiment,p3sarrcol4.png,0,even,Win32,56,133005,129992,56,56,652047,653556,647047,134522,647047,56,738408,739918,735410,653558,735410,visual_patterns,0,0,0,yes,1366
undefined,undefined,undefined,undefined,white,no,Mozilla,Netscape,"5.0 (Windows NT 10.0; Win64; x64) AppleWebKit/537.36 (KHTML, like Gecko) Chrome/98.0.4758.102 Safari/537.36",xpyriment,legacy,legacy,0,uniform,0,0,0,0,24,24,24,0,0,74,74,74,74,74,0,74,0,13,13,13,13,13,0,13,27-01-22,27-01-22,10:57:56,Sun Feb 27 2022 10:57:56 GMT+0100 (közép-európai téli idő),The main experiment item,yes,0,0,C:/Users/rrics/Documents/!!ResearchBMECOGSCI/gnet,0,0,0,prototype4.png,no,mono,no,18,no,black,no,no,768,1148,3.5.6,legacy,xpyriment,osweb,1.3.13,0,space,right,j,space,27631,21140,30290,27631,2,legacy,824,1536,24,864,24,0,0,1536,1645955954891,1024,2,48000,-16,experiment,p2sarrshacol2.png,0,even,Win32,56,133005,129992,56,56,652047,653556,647047,134522,647047,56,742925,744434,739925,653558,739925,visual_patterns,0,0,0,yes,1366
undefined,undefined,undefined,undefined,white,no,Mozilla,Netscape,"5.0 (Windows NT 10.0; Win64; x64) AppleWebKit/537.36 (KHTML, like Gecko) Chrome/98.0.4758.102 Safari/537.36",xpyriment,legacy,legacy,0,uniform,0,0,0,0,24,24,24,0,0,74,74,74,74,74,0,74,0,14,14,14,14,14,0,14,27-01-22,27-01-22,10:57:56,Sun Feb 27 2022 10:57:56 GMT+0100 (közép-európai téli idő),The main experiment item,yes,0,0,C:/Users/rrics/Documents/!!ResearchBMECOGSCI/gnet,0,0,0,prototype4.png,no,mono,no,18,no,black,no,no,768,1148,3.5.6,legacy,xpyriment,osweb,1.3.13,0,space,right,j,space,27631,21140,30290,27631,2,legacy,824,1536,24,864,24,0,0,1536,1645955954891,1024,2,48000,-16,experiment,p6sarr1.png,0,even,Win32,56,133005,129992,56,56,652047,653556,647047,134522,647047,56,747441,748950,744442,653558,744442,visual_patterns,0,0,0,yes,1366
undefined,undefined,undefined,undefined,white,no,Mozilla,Netscape,"5.0 (Windows NT 10.0; Win64; x64) AppleWebKit/537.36 (KHTML, like Gecko) Chrome/98.0.4758.102 Safari/537.36",xpyriment,legacy,legacy,0,uniform,0,0,0,0,24,24,24,0,0,74,74,74,74,74,0,74,0,15,15,15,15,15,0,15,27-01-22,27-01-22,10:57:56,Sun Feb 27 2022 10:57:56 GMT+0100 (közép-európai téli idő),The main experiment item,yes,0,0,C:/Users/rrics/Documents/!!ResearchBMECOGSCI/gnet,0,0,0,prototype4.png,no,mono,no,18,no,black,no,no,768,1148,3.5.6,legacy,xpyriment,osweb,1.3.13,0,space,right,j,space,27631,21140,30290,27631,2,legacy,824,1536,24,864,24,0,0,1536,1645955954891,1024,2,48000,-16,experiment,p4sarrshacol3.png,0,even,Win32,56,133005,129992,56,56,652047,653556,647047,134522,647047,56,751958,753467,748959,653558,748959,visual_patterns,0,0,0,yes,1366
undefined,undefined,undefined,undefined,white,no,Mozilla,Netscape,"5.0 (Windows NT 10.0; Win64; x64) AppleWebKit/537.36 (KHTML, like Gecko) Chrome/98.0.4758.102 Safari/537.36",xpyriment,legacy,legacy,0,uniform,0,0,0,0,24,24,24,0,0,74,74,74,74,74,0,74,0,16,16,16,16,16,0,16,27-01-22,27-01-22,10:57:56,Sun Feb 27 2022 10:57:56 GMT+0100 (közép-európai téli idő),The main experiment item,yes,0,0,C:/Users/rrics/Documents/!!ResearchBMECOGSCI/gnet,0,0,0,prototype4.png,no,mono,no,18,no,black,no,no,768,1148,3.5.6,legacy,xpyriment,osweb,1.3.13,0,space,right,j,space,27631,21140,30290,27631,2,legacy,824,1536,24,864,24,0,0,1536,1645955954891,1024,2,48000,-16,experiment,p4sarrshacol4.png,0,even,Win32,56,133005,129992,56,56,652047,653556,647047,134522,647047,56,756476,757983,753480,653558,753480,visual_patterns,0,0,0,yes,1366
undefined,undefined,undefined,undefined,white,no,Mozilla,Netscape,"5.0 (Windows NT 10.0; Win64; x64) AppleWebKit/537.36 (KHTML, like Gecko) Chrome/98.0.4758.102 Safari/537.36",xpyriment,legacy,legacy,0,uniform,0,0,0,0,24,24,24,0,0,74,74,74,74,74,0,74,0,17,17,17,17,17,0,17,27-01-22,27-01-22,10:57:56,Sun Feb 27 2022 10:57:56 GMT+0100 (közép-európai téli idő),The main experiment item,yes,0,0,C:/Users/rrics/Documents/!!ResearchBMECOGSCI/gnet,0,0,0,prototype4.png,no,mono,no,18,no,black,no,no,768,1148,3.5.6,legacy,xpyriment,osweb,1.3.13,0,space,right,j,space,27631,21140,30290,27631,2,legacy,824,1536,24,864,24,0,0,1536,1645955954891,1024,2,48000,-16,experiment,p2sarrcol1.png,0,even,Win32,56,133005,129992,56,56,652047,653556,647047,134522,647047,56,761002,762516,758001,653558,758001,visual_patterns,0,0,0,yes,1366
undefined,undefined,undefined,undefined,white,no,Mozilla,Netscape,"5.0 (Windows NT 10.0; Win64; x64) AppleWebKit/537.36 (KHTML, like Gecko) Chrome/98.0.4758.102 Safari/537.36",xpyriment,legacy,legacy,0,uniform,0,0,0,0,24,24,24,0,0,74,74,74,74,74,0,74,0,18,18,18,18,18,0,18,27-01-22,27-01-22,10:57:56,Sun Feb 27 2022 10:57:56 GMT+0100 (közép-európai téli idő),The main experiment item,yes,0,0,C:/Users/rrics/Documents/!!ResearchBMECOGSCI/gnet,0,0,0,prototype4.png,no,mono,no,18,no,black,no,no,768,1148,3.5.6,legacy,xpyriment,osweb,1.3.13,0,space,right,j,space,27631,21140,30290,27631,2,legacy,824,1536,24,864,24,0,0,1536,1645955954891,1024,2,48000,-16,experiment,p1sarr4.png,0,even,Win32,56,133005,129992,56,56,652047,653556,647047,134522,647047,56,765522,767032,762525,653558,762525,visual_patterns,0,0,0,yes,1366
undefined,undefined,undefined,undefined,white,no,Mozilla,Netscape,"5.0 (Windows NT 10.0; Win64; x64) AppleWebKit/537.36 (KHTML, like Gecko) Chrome/98.0.4758.102 Safari/537.36",xpyriment,legacy,legacy,0,uniform,0,0,0,0,24,24,24,0,0,74,74,74,74,74,0,74,0,19,19,19,19,19,0,19,27-01-22,27-01-22,10:57:56,Sun Feb 27 2022 10:57:56 GMT+0100 (közép-európai téli idő),The main experiment item,yes,0,0,C:/Users/rrics/Documents/!!ResearchBMECOGSCI/gnet,0,0,0,prototype4.png,no,mono,no,18,no,black,no,no,768,1148,3.5.6,legacy,xpyriment,osweb,1.3.13,0,space,right,j,space,27631,21140,30290,27631,2,legacy,824,1536,24,864,24,0,0,1536,1645955954891,1024,2,48000,-16,experiment,p10sarr1.png,0,even,Win32,56,133005,129992,56,56,652047,653556,647047,134522,647047,56,770037,771548,767040,653558,767039,visual_patterns,0,0,0,yes,1366
undefined,undefined,undefined,undefined,white,no,Mozilla,Netscape,"5.0 (Windows NT 10.0; Win64; x64) AppleWebKit/537.36 (KHTML, like Gecko) Chrome/98.0.4758.102 Safari/537.36",xpyriment,legacy,legacy,0,uniform,0,0,0,0,24,24,24,0,0,74,74,74,74,74,0,74,0,20,20,20,20,20,0,20,27-01-22,27-01-22,10:57:56,Sun Feb 27 2022 10:57:56 GMT+0100 (közép-európai téli idő),The main experiment item,yes,0,0,C:/Users/rrics/Documents/!!ResearchBMECOGSCI/gnet,0,0,0,prototype4.png,no,mono,no,18,no,black,no,no,768,1148,3.5.6,legacy,xpyriment,osweb,1.3.13,0,space,right,j,space,27631,21140,30290,27631,2,legacy,824,1536,24,864,24,0,0,1536,1645955954891,1024,2,48000,-16,experiment,p8sarr3.png,0,even,Win32,56,133005,129992,56,56,652047,653556,647047,134522,647047,56,774555,776065,771556,653558,771556,visual_patterns,0,0,0,yes,1366
undefined,undefined,undefined,undefined,white,no,Mozilla,Netscape,"5.0 (Windows NT 10.0; Win64; x64) AppleWebKit/537.36 (KHTML, like Gecko) Chrome/98.0.4758.102 Safari/537.36",xpyriment,legacy,legacy,0,uniform,0,0,0,0,24,24,24,0,0,74,74,74,74,74,0,74,0,21,21,21,21,21,0,21,27-01-22,27-01-22,10:57:56,Sun Feb 27 2022 10:57:56 GMT+0100 (közép-európai téli idő),The main experiment item,yes,0,0,C:/Users/rrics/Documents/!!ResearchBMECOGSCI/gnet,0,0,0,prototype4.png,no,mono,no,18,no,black,no,no,768,1148,3.5.6,legacy,xpyriment,osweb,1.3.13,0,space,right,j,space,27631,21140,30290,27631,2,legacy,824,1536,24,864,24,0,0,1536,1645955954891,1024,2,48000,-16,experiment,p9sarr4.png,0,even,Win32,56,133005,129992,56,56,652047,653556,647047,134522,647047,56,779070,780581,776074,653558,776074,visual_patterns,0,0,0,yes,1366
undefined,undefined,undefined,undefined,white,no,Mozilla,Netscape,"5.0 (Windows NT 10.0; Win64; x64) AppleWebKit/537.36 (KHTML, like Gecko) Chrome/98.0.4758.102 Safari/537.36",xpyriment,legacy,legacy,0,uniform,0,0,0,0,24,24,24,0,0,74,74,74,74,74,0,74,0,22,22,22,22,22,0,22,27-01-22,27-01-22,10:57:56,Sun Feb 27 2022 10:57:56 GMT+0100 (közép-európai téli idő),The main experiment item,yes,0,0,C:/Users/rrics/Documents/!!ResearchBMECOGSCI/gnet,0,0,0,prototype4.png,no,mono,no,18,no,black,no,no,768,1148,3.5.6,legacy,xpyriment,osweb,1.3.13,0,space,right,j,space,27631,21140,30290,27631,2,legacy,824,1536,24,864,24,0,0,1536,1645955954891,1024,2,48000,-16,experiment,p5sarrcol2.png,0,even,Win32,56,133005,129992,56,56,652047,653556,647047,134522,647047,56,783589,785097,780589,653558,780589,visual_patterns,0,0,0,yes,1366
undefined,undefined,undefined,undefined,white,no,Mozilla,Netscape,"5.0 (Windows NT 10.0; Win64; x64) AppleWebKit/537.36 (KHTML, like Gecko) Chrome/98.0.4758.102 Safari/537.36",xpyriment,legacy,legacy,0,uniform,0,0,0,0,24,24,24,0,0,74,74,74,74,74,0,74,0,23,23,23,23,23,0,23,27-01-22,27-01-22,10:57:56,Sun Feb 27 2022 10:57:56 GMT+0100 (közép-európai téli idő),The main experiment item,yes,0,0,C:/Users/rrics/Documents/!!ResearchBMECOGSCI/gnet,0,0,0,prototype4.png,no,mono,no,18,no,black,no,no,768,1148,3.5.6,legacy,xpyriment,osweb,1.3.13,0,space,right,j,space,27631,21140,30290,27631,2,legacy,824,1536,24,864,24,0,0,1536,1645955954891,1024,2,48000,-16,experiment,p7sarr4.png,0,even,Win32,56,133005,129992,56,56,652047,653556,647047,134522,647047,56,788103,789614,785106,653558,785106,visual_patterns,0,0,0,yes,1366
undefined,undefined,undefined,undefined,white,no,Mozilla,Netscape,"5.0 (Windows NT 10.0; Win64; x64) AppleWebKit/537.36 (KHTML, like Gecko) Chrome/98.0.4758.102 Safari/537.36",xpyriment,legacy,legacy,0,uniform,0,0,0,0,24,24,24,0,0,74,74,74,74,74,0,74,0,24,24,24,24,24,0,24,27-01-22,27-01-22,10:57:56,Sun Feb 27 2022 10:57:56 GMT+0100 (közép-európai téli idő),The main experiment item,yes,0,0,C:/Users/rrics/Documents/!!ResearchBMECOGSCI/gnet,0,0,0,prototype4.png,no,mono,no,18,no,black,no,no,768,1148,3.5.6,legacy,xpyriment,osweb,1.3.13,0,space,right,j,space,27631,21140,30290,27631,2,legacy,824,1536,24,864,24,0,0,1536,1645955954891,1024,2,48000,-16,experiment,p3sarrsha3.png,0,even,Win32,56,133005,129992,56,56,652047,653556,647047,134522,647047,56,792619,794130,789623,653558,789623,visual_patterns,0,0,0,yes,1366
undefined,undefined,undefined,undefined,white,no,Mozilla,Netscape,"5.0 (Windows NT 10.0; Win64; x64) AppleWebKit/537.36 (KHTML, like Gecko) Chrome/98.0.4758.102 Safari/537.36",xpyriment,legacy,legacy,0,uniform,0,0,0,0,24,24,24,0,0,74,74,74,74,74,0,74,0,25,25,25,25,25,0,25,27-01-22,27-01-22,10:57:56,Sun Feb 27 2022 10:57:56 GMT+0100 (közép-európai téli idő),The main experiment item,yes,0,0,C:/Users/rrics/Documents/!!ResearchBMECOGSCI/gnet,0,0,0,prototype4.png,no,mono,no,18,no,black,no,no,768,1148,3.5.6,legacy,xpyriment,osweb,1.3.13,0,space,right,j,space,27631,21140,30290,27631,2,legacy,824,1536,24,864,24,0,0,1536,1645955954891,1024,2,48000,-16,experiment,p8sarr4.png,0,even,Win32,56,133005,129992,56,56,652047,653556,647047,134522,647047,56,797138,798647,794138,653558,794138,visual_patterns,0,0,0,yes,1366
undefined,undefined,undefined,undefined,white,no,Mozilla,Netscape,"5.0 (Windows NT 10.0; Win64; x64) AppleWebKit/537.36 (KHTML, like Gecko) Chrome/98.0.4758.102 Safari/537.36",xpyriment,legacy,legacy,0,uniform,0,0,0,0,24,24,24,0,0,74,74,74,74,74,0,74,0,26,26,26,26,26,0,26,27-01-22,27-01-22,10:57:56,Sun Feb 27 2022 10:57:56 GMT+0100 (közép-európai téli idő),The main experiment item,yes,0,0,C:/Users/rrics/Documents/!!ResearchBMECOGSCI/gnet,0,0,0,prototype4.png,no,mono,no,18,no,black,no,no,768,1148,3.5.6,legacy,xpyriment,osweb,1.3.13,0,space,right,j,space,27631,21140,30290,27631,2,legacy,824,1536,24,864,24,0,0,1536,1645955954891,1024,2,48000,-16,experiment,p2sarrshacol4.png,0,even,Win32,56,133005,129992,56,56,652047,653556,647047,134522,647047,56,801653,803163,798656,653558,798656,visual_patterns,0,0,0,yes,1366
undefined,undefined,undefined,undefined,white,no,Mozilla,Netscape,"5.0 (Windows NT 10.0; Win64; x64) AppleWebKit/537.36 (KHTML, like Gecko) Chrome/98.0.4758.102 Safari/537.36",xpyriment,legacy,legacy,0,uniform,0,0,0,0,24,24,24,0,0,74,74,74,74,74,0,74,0,27,27,27,27,27,0,27,27-01-22,27-01-22,10:57:56,Sun Feb 27 2022 10:57:56 GMT+0100 (közép-európai téli idő),The main experiment item,yes,0,0,C:/Users/rrics/Documents/!!ResearchBMECOGSCI/gnet,0,0,0,prototype4.png,no,mono,no,18,no,black,no,no,768,1148,3.5.6,legacy,xpyriment,osweb,1.3.13,0,space,right,j,space,27631,21140,30290,27631,2,legacy,824,1536,24,864,24,0,0,1536,1645955954891,1024,2,48000,-16,experiment,p4sarrshacol1.png,0,even,Win32,56,133005,129992,56,56,652047,653556,647047,134522,647047,56,806171,807680,803172,653558,803172,visual_patterns,0,0,0,yes,1366
undefined,undefined,undefined,undefined,white,no,Mozilla,Netscape,"5.0 (Windows NT 10.0; Win64; x64) AppleWebKit/537.36 (KHTML, like Gecko) Chrome/98.0.4758.102 Safari/537.36",xpyriment,legacy,legacy,0,uniform,0,0,0,0,24,24,24,0,0,74,74,74,74,74,0,74,0,28,28,28,28,28,0,28,27-01-22,27-01-22,10:57:56,Sun Feb 27 2022 10:57:56 GMT+0100 (közép-európai téli idő),The main experiment item,yes,0,0,C:/Users/rrics/Documents/!!ResearchBMECOGSCI/gnet,0,0,0,prototype4.png,no,mono,no,18,no,black,no,no,768,1148,3.5.6,legacy,xpyriment,osweb,1.3.13,0,space,right,j,space,27631,21140,30290,27631,2,legacy,824,1536,24,864,24,0,0,1536,1645955954891,1024,2,48000,-16,experiment,p1sarrshacol3.png,0,even,Win32,56,133005,129992,56,56,652047,653556,647047,134522,647047,56,810686,812197,807690,653558,807690,visual_patterns,0,0,0,yes,1366
undefined,undefined,undefined,undefined,white,no,Mozilla,Netscape,"5.0 (Windows NT 10.0; Win64; x64) AppleWebKit/537.36 (KHTML, like Gecko) Chrome/98.0.4758.102 Safari/537.36",xpyriment,legacy,legacy,0,uniform,0,0,0,0,24,24,24,0,0,74,74,74,74,74,0,74,0,29,29,29,29,29,0,29,27-01-22,27-01-22,10:57:56,Sun Feb 27 2022 10:57:56 GMT+0100 (közép-európai téli idő),The main experiment item,yes,0,0,C:/Users/rrics/Documents/!!ResearchBMECOGSCI/gnet,0,0,0,prototype4.png,no,mono,no,18,no,black,no,no,768,1148,3.5.6,legacy,xpyriment,osweb,1.3.13,0,space,right,j,space,27631,21140,30290,27631,2,legacy,824,1536,24,864,24,0,0,1536,1645955954891,1024,2,48000,-16,experiment,p2sarrsha1.png,0,even,Win32,56,133005,129992,56,56,652047,653556,647047,134522,647047,56,815204,816713,812206,653558,812206,visual_patterns,0,0,0,yes,1366
undefined,undefined,undefined,undefined,white,no,Mozilla,Netscape,"5.0 (Windows NT 10.0; Win64; x64) AppleWebKit/537.36 (KHTML, like Gecko) Chrome/98.0.4758.102 Safari/537.36",xpyriment,legacy,legacy,0,uniform,0,0,0,0,24,24,24,0,0,74,74,74,74,74,0,74,0,30,30,30,30,30,0,30,27-01-22,27-01-22,10:57:56,Sun Feb 27 2022 10:57:56 GMT+0100 (közép-európai téli idő),The main experiment item,yes,0,0,C:/Users/rrics/Documents/!!ResearchBMECOGSCI/gnet,0,0,0,prototype4.png,no,mono,no,18,no,black,no,no,768,1148,3.5.6,legacy,xpyriment,osweb,1.3.13,0,space,right,j,space,27631,21140,30290,27631,2,legacy,824,1536,24,864,24,0,0,1536,1645955954891,1024,2,48000,-16,experiment,p3sarr2.png,0,even,Win32,56,133005,129992,56,56,652047,653556,647047,134522,647047,56,819720,821228,816723,653558,816723,visual_patterns,0,0,0,yes,1366
undefined,undefined,undefined,undefined,white,no,Mozilla,Netscape,"5.0 (Windows NT 10.0; Win64; x64) AppleWebKit/537.36 (KHTML, like Gecko) Chrome/98.0.4758.102 Safari/537.36",xpyriment,legacy,legacy,0,uniform,0,0,0,0,24,24,24,0,0,74,74,74,74,74,0,74,0,31,31,31,31,31,0,31,27-01-22,27-01-22,10:57:56,Sun Feb 27 2022 10:57:56 GMT+0100 (közép-európai téli idő),The main experiment item,yes,0,0,C:/Users/rrics/Documents/!!ResearchBMECOGSCI/gnet,0,0,0,prototype4.png,no,mono,no,18,no,black,no,no,768,1148,3.5.6,legacy,xpyriment,osweb,1.3.13,0,space,right,j,space,27631,21140,30290,27631,2,legacy,824,1536,24,864,24,0,0,1536,1645955954891,1024,2,48000,-16,experiment,p3sarrshacol3.png,0,even,Win32,56,133005,129992,56,56,652047,653556,647047,134522,647047,56,824234,825745,821237,653558,821237,visual_patterns,0,0,0,yes,1366
undefined,undefined,undefined,undefined,white,no,Mozilla,Netscape,"5.0 (Windows NT 10.0; Win64; x64) AppleWebKit/537.36 (KHTML, like Gecko) Chrome/98.0.4758.102 Safari/537.36",xpyriment,legacy,legacy,0,uniform,0,0,0,0,24,24,24,0,0,74,74,74,74,74,0,74,0,32,32,32,32,32,0,32,27-01-22,27-01-22,10:57:56,Sun Feb 27 2022 10:57:56 GMT+0100 (közép-európai téli idő),The main experiment item,yes,0,0,C:/Users/rrics/Documents/!!ResearchBMECOGSCI/gnet,0,0,0,prototype4.png,no,mono,no,18,no,black,no,no,768,1148,3.5.6,legacy,xpyriment,osweb,1.3.13,0,space,right,j,space,27631,21140,30290,27631,2,legacy,824,1536,24,864,24,0,0,1536,1645955954891,1024,2,48000,-16,experiment,p2sarrcol4.png,0,even,Win32,56,133005,129992,56,56,652047,653556,647047,134522,647047,56,828753,830261,825755,653558,825755,visual_patterns,0,0,0,yes,1366
undefined,undefined,undefined,undefined,white,no,Mozilla,Netscape,"5.0 (Windows NT 10.0; Win64; x64) AppleWebKit/537.36 (KHTML, like Gecko) Chrome/98.0.4758.102 Safari/537.36",xpyriment,legacy,legacy,0,uniform,0,0,0,0,24,24,24,0,0,74,74,74,74,74,0,74,0,33,33,33,33,33,0,33,27-01-22,27-01-22,10:57:56,Sun Feb 27 2022 10:57:56 GMT+0100 (közép-európai téli idő),The main experiment item,yes,0,0,C:/Users/rrics/Documents/!!ResearchBMECOGSCI/gnet,0,0,0,prototype4.png,no,mono,no,18,no,black,no,no,768,1148,3.5.6,legacy,xpyriment,osweb,1.3.13,0,space,right,j,space,27631,21140,30290,27631,2,legacy,824,1536,24,864,24,0,0,1536,1645955954891,1024,2,48000,-16,experiment,p5sarrcol1.png,0,even,Win32,56,133005,129992,56,56,652047,653556,647047,134522,647047,56,833270,834779,830272,653558,830272,visual_patterns,0,0,0,yes,1366
undefined,undefined,undefined,undefined,white,no,Mozilla,Netscape,"5.0 (Windows NT 10.0; Win64; x64) AppleWebKit/537.36 (KHTML, like Gecko) Chrome/98.0.4758.102 Safari/537.36",xpyriment,legacy,legacy,0,uniform,0,0,0,0,24,24,24,0,0,74,74,74,74,74,0,74,0,34,34,34,34,34,0,34,27-01-22,27-01-22,10:57:56,Sun Feb 27 2022 10:57:56 GMT+0100 (közép-európai téli idő),The main experiment item,yes,0,0,C:/Users/rrics/Documents/!!ResearchBMECOGSCI/gnet,0,0,0,prototype4.png,no,mono,no,18,no,black,no,no,768,1148,3.5.6,legacy,xpyriment,osweb,1.3.13,0,space,right,j,space,27631,21140,30290,27631,2,legacy,824,1536,24,864,24,0,0,1536,1645955954891,1024,2,48000,-16,experiment,p8sarr2.png,0,even,Win32,56,133005,129992,56,56,652047,653556,647047,134522,647047,56,837785,839294,834788,653558,834788,visual_patterns,0,0,0,yes,1366
undefined,undefined,undefined,undefined,white,no,Mozilla,Netscape,"5.0 (Windows NT 10.0; Win64; x64) AppleWebKit/537.36 (KHTML, like Gecko) Chrome/98.0.4758.102 Safari/537.36",xpyriment,legacy,legacy,0,uniform,0,0,0,0,24,24,24,0,0,74,74,74,74,74,0,74,0,35,35,35,35,35,0,35,27-01-22,27-01-22,10:57:56,Sun Feb 27 2022 10:57:56 GMT+0100 (közép-európai téli idő),The main experiment item,yes,0,0,C:/Users/rrics/Documents/!!ResearchBMECOGSCI/gnet,0,0,0,prototype4.png,no,mono,no,18,no,black,no,no,768,1148,3.5.6,legacy,xpyriment,osweb,1.3.13,0,space,right,j,space,27631,21140,30290,27631,2,legacy,824,1536,24,864,24,0,0,1536,1645955954891,1024,2,48000,-16,experiment,p5sarr3.png,0,even,Win32,56,133005,129992,56,56,652047,653556,647047,134522,647047,56,842300,843811,839302,653558,839302,visual_patterns,0,0,0,yes,1366
undefined,undefined,undefined,undefined,white,no,Mozilla,Netscape,"5.0 (Windows NT 10.0; Win64; x64) AppleWebKit/537.36 (KHTML, like Gecko) Chrome/98.0.4758.102 Safari/537.36",xpyriment,legacy,legacy,0,uniform,0,0,0,0,24,24,24,0,0,74,74,74,74,74,0,74,0,36,36,36,36,36,0,36,27-01-22,27-01-22,10:57:56,Sun Feb 27 2022 10:57:56 GMT+0100 (közép-európai téli idő),The main experiment item,yes,0,0,C:/Users/rrics/Documents/!!ResearchBMECOGSCI/gnet,0,0,0,prototype4.png,no,mono,no,18,no,black,no,no,768,1148,3.5.6,legacy,xpyriment,osweb,1.3.13,0,space,right,j,space,27631,21140,30290,27631,2,legacy,824,1536,24,864,24,0,0,1536,1645955954891,1024,2,48000,-16,experiment,p7sarr1.png,0,even,Win32,56,133005,129992,56,56,652047,653556,647047,134522,647047,56,846820,848327,843820,653558,843820,visual_patterns,0,0,0,yes,1366
undefined,undefined,undefined,undefined,white,no,Mozilla,Netscape,"5.0 (Windows NT 10.0; Win64; x64) AppleWebKit/537.36 (KHTML, like Gecko) Chrome/98.0.4758.102 Safari/537.36",xpyriment,legacy,legacy,0,uniform,0,0,0,0,24,24,24,0,0,74,74,74,74,74,0,74,0,37,37,37,37,37,0,37,27-01-22,27-01-22,10:57:56,Sun Feb 27 2022 10:57:56 GMT+0100 (közép-európai téli idő),The main experiment item,yes,0,0,C:/Users/rrics/Documents/!!ResearchBMECOGSCI/gnet,0,0,0,prototype4.png,no,mono,no,18,no,black,no,no,768,1148,3.5.6,legacy,xpyriment,osweb,1.3.13,0,space,right,j,space,27631,21140,30290,27631,2,legacy,824,1536,24,864,24,0,0,1536,1645955954891,1024,2,48000,-16,experiment,p1sarrcol4.png,0,even,Win32,56,133005,129992,56,56,652047,653556,647047,134522,647047,56,851335,852844,848336,653558,848335,visual_patterns,0,0,0,yes,1366
undefined,undefined,undefined,undefined,white,no,Mozilla,Netscape,"5.0 (Windows NT 10.0; Win64; x64) AppleWebKit/537.36 (KHTML, like Gecko) Chrome/98.0.4758.102 Safari/537.36",xpyriment,legacy,legacy,0,uniform,0,0,0,0,24,24,24,0,0,74,74,74,74,74,0,74,0,38,38,38,38,38,0,38,27-01-22,27-01-22,10:57:56,Sun Feb 27 2022 10:57:56 GMT+0100 (közép-európai téli idő),The main experiment item,yes,0,0,C:/Users/rrics/Documents/!!ResearchBMECOGSCI/gnet,0,0,0,prototype4.png,no,mono,no,18,no,black,no,no,768,1148,3.5.6,legacy,xpyriment,osweb,1.3.13,0,space,right,j,space,27631,21140,30290,27631,2,legacy,824,1536,24,864,24,0,0,1536,1645955954891,1024,2,48000,-16,experiment,p3sarrsha4.png,0,even,Win32,56,133005,129992,56,56,652047,653556,647047,134522,647047,56,855851,857360,852853,653558,852853,visual_patterns,0,0,0,yes,1366
undefined,undefined,undefined,undefined,white,no,Mozilla,Netscape,"5.0 (Windows NT 10.0; Win64; x64) AppleWebKit/537.36 (KHTML, like Gecko) Chrome/98.0.4758.102 Safari/537.36",xpyriment,legacy,legacy,0,uniform,0,0,0,0,24,24,24,0,0,74,74,74,74,74,0,74,0,39,39,39,39,39,0,39,27-01-22,27-01-22,10:57:56,Sun Feb 27 2022 10:57:56 GMT+0100 (közép-európai téli idő),The main experiment item,yes,0,0,C:/Users/rrics/Documents/!!ResearchBMECOGSCI/gnet,0,0,0,prototype4.png,no,mono,no,18,no,black,no,no,768,1148,3.5.6,legacy,xpyriment,osweb,1.3.13,0,space,right,j,space,27631,21140,30290,27631,2,legacy,824,1536,24,864,24,0,0,1536,1645955954891,1024,2,48000,-16,experiment,p3sarr1.png,0,even,Win32,56,133005,129992,56,56,652047,653556,647047,134522,647047,56,860368,861877,857368,653558,857368,visual_patterns,0,0,0,yes,1366
undefined,undefined,undefined,undefined,white,no,Mozilla,Netscape,"5.0 (Windows NT 10.0; Win64; x64) AppleWebKit/537.36 (KHTML, like Gecko) Chrome/98.0.4758.102 Safari/537.36",xpyriment,legacy,legacy,0,uniform,0,0,0,0,24,24,24,0,0,74,74,74,74,74,0,74,0,40,40,40,40,40,0,40,27-01-22,27-01-22,10:57:56,Sun Feb 27 2022 10:57:56 GMT+0100 (közép-európai téli idő),The main experiment item,yes,0,0,C:/Users/rrics/Documents/!!ResearchBMECOGSCI/gnet,0,0,0,prototype4.png,no,mono,no,18,no,black,no,no,768,1148,3.5.6,legacy,xpyriment,osweb,1.3.13,0,space,right,j,space,27631,21140,30290,27631,2,legacy,824,1536,24,864,24,0,0,1536,1645955954891,1024,2,48000,-16,experiment,p2sarrsha3.png,0,even,Win32,56,133005,129992,56,56,652047,653556,647047,134522,647047,56,864881,866392,861886,653558,861886,visual_patterns,0,0,0,yes,1366
undefined,undefined,undefined,undefined,white,no,Mozilla,Netscape,"5.0 (Windows NT 10.0; Win64; x64) AppleWebKit/537.36 (KHTML, like Gecko) Chrome/98.0.4758.102 Safari/537.36",xpyriment,legacy,legacy,0,uniform,0,0,0,0,24,24,24,0,0,74,74,74,74,74,0,74,0,41,41,41,41,41,0,41,27-01-22,27-01-22,10:57:56,Sun Feb 27 2022 10:57:56 GMT+0100 (közép-európai téli idő),The main experiment item,yes,0,0,C:/Users/rrics/Documents/!!ResearchBMECOGSCI/gnet,0,0,0,prototype4.png,no,mono,no,18,no,black,no,no,768,1148,3.5.6,legacy,xpyriment,osweb,1.3.13,0,space,right,j,space,27631,21140,30290,27631,2,legacy,824,1536,24,864,24,0,0,1536,1645955954891,1024,2,48000,-16,experiment,p9sarr3.png,0,even,Win32,56,133005,129992,56,56,652047,653556,647047,134522,647047,56,869400,870910,866401,653558,866401,visual_patterns,0,0,0,yes,1366
undefined,undefined,undefined,undefined,white,no,Mozilla,Netscape,"5.0 (Windows NT 10.0; Win64; x64) AppleWebKit/537.36 (KHTML, like Gecko) Chrome/98.0.4758.102 Safari/537.36",xpyriment,legacy,legacy,0,uniform,0,0,0,0,24,24,24,0,0,74,74,74,74,74,0,74,0,42,42,42,42,42,0,42,27-01-22,27-01-22,10:57:56,Sun Feb 27 2022 10:57:56 GMT+0100 (közép-európai téli idő),The main experiment item,yes,0,0,C:/Users/rrics/Documents/!!ResearchBMECOGSCI/gnet,0,0,0,prototype4.png,no,mono,no,18,no,black,no,no,768,1148,3.5.6,legacy,xpyriment,osweb,1.3.13,0,space,right,j,space,27631,21140,30290,27631,2,legacy,824,1536,24,864,24,0,0,1536,1645955954891,1024,2,48000,-16,experiment,p10sarr4.png,0,even,Win32,56,133005,129992,56,56,652047,653556,647047,134522,647047,56,873915,875426,870919,653558,870919,visual_patterns,0,0,0,yes,1366
undefined,undefined,undefined,undefined,white,no,Mozilla,Netscape,"5.0 (Windows NT 10.0; Win64; x64) AppleWebKit/537.36 (KHTML, like Gecko) Chrome/98.0.4758.102 Safari/537.36",xpyriment,legacy,legacy,0,uniform,0,0,0,0,24,24,24,0,0,74,74,74,74,74,0,74,0,43,43,43,43,43,0,43,27-01-22,27-01-22,10:57:56,Sun Feb 27 2022 10:57:56 GMT+0100 (közép-európai téli idő),The main experiment item,yes,0,0,C:/Users/rrics/Documents/!!ResearchBMECOGSCI/gnet,0,0,0,prototype4.png,no,mono,no,18,no,black,no,no,768,1148,3.5.6,legacy,xpyriment,osweb,1.3.13,0,space,right,j,space,27631,21140,30290,27631,2,legacy,824,1536,24,864,24,0,0,1536,1645955954891,1024,2,48000,-16,experiment,p4sarrcol1.png,0,even,Win32,56,133005,129992,56,56,652047,653556,647047,134522,647047,56,878432,879942,875434,653558,875434,visual_patterns,0,0,0,yes,1366
undefined,undefined,undefined,undefined,white,no,Mozilla,Netscape,"5.0 (Windows NT 10.0; Win64; x64) AppleWebKit/537.36 (KHTML, like Gecko) Chrome/98.0.4758.102 Safari/537.36",xpyriment,legacy,legacy,0,uniform,0,0,0,0,24,24,24,0,0,74,74,74,74,74,0,74,0,44,44,44,44,44,0,44,27-01-22,27-01-22,10:57:56,Sun Feb 27 2022 10:57:56 GMT+0100 (közép-európai téli idő),The main experiment item,yes,0,0,C:/Users/rrics/Documents/!!ResearchBMECOGSCI/gnet,0,0,0,prototype4.png,no,mono,no,18,no,black,no,no,768,1148,3.5.6,legacy,xpyriment,osweb,1.3.13,0,space,right,j,space,27631,21140,30290,27631,2,legacy,824,1536,24,864,24,0,0,1536,1645955954891,1024,2,48000,-16,experiment,p5sarrshacol4.png,0,even,Win32,56,133005,129992,56,56,652047,653556,647047,134522,647047,56,882951,884458,879952,653558,879952,visual_patterns,0,0,0,yes,1366
undefined,undefined,undefined,undefined,white,no,Mozilla,Netscape,"5.0 (Windows NT 10.0; Win64; x64) AppleWebKit/537.36 (KHTML, like Gecko) Chrome/98.0.4758.102 Safari/537.36",xpyriment,legacy,legacy,0,uniform,0,0,0,0,24,24,24,0,0,74,74,74,74,74,0,74,0,45,45,45,45,45,0,45,27-01-22,27-01-22,10:57:56,Sun Feb 27 2022 10:57:56 GMT+0100 (közép-európai téli idő),The main experiment item,yes,0,0,C:/Users/rrics/Documents/!!ResearchBMECOGSCI/gnet,0,0,0,prototype4.png,no,mono,no,18,no,black,no,no,768,1148,3.5.6,legacy,xpyriment,osweb,1.3.13,0,space,right,j,space,27631,21140,30290,27631,2,legacy,824,1536,24,864,24,0,0,1536,1645955954891,1024,2,48000,-16,experiment,p3sarr3.png,0,even,Win32,56,133005,129992,56,56,652047,653556,647047,134522,647047,56,887473,888975,884477,653558,884477,visual_patterns,0,0,0,yes,1366
undefined,undefined,undefined,undefined,white,no,Mozilla,Netscape,"5.0 (Windows NT 10.0; Win64; x64) AppleWebKit/537.36 (KHTML, like Gecko) Chrome/98.0.4758.102 Safari/537.36",xpyriment,legacy,legacy,0,uniform,0,0,0,0,24,24,24,0,0,74,74,74,74,74,0,74,0,46,46,46,46,46,0,46,27-01-22,27-01-22,10:57:56,Sun Feb 27 2022 10:57:56 GMT+0100 (közép-európai téli idő),The main experiment item,yes,0,0,C:/Users/rrics/Documents/!!ResearchBMECOGSCI/gnet,0,0,0,prototype4.png,no,mono,no,18,no,black,no,no,768,1148,3.5.6,legacy,xpyriment,osweb,1.3.13,0,space,right,j,space,27631,21140,30290,27631,2,legacy,824,1536,24,864,24,0,0,1536,1645955954891,1024,2,48000,-16,experiment,p2sarr3.png,0,even,Win32,56,133005,129992,56,56,652047,653556,647047,134522,647047,56,891982,893491,888983,653558,888983,visual_patterns,0,0,0,yes,1366
undefined,undefined,undefined,undefined,white,no,Mozilla,Netscape,"5.0 (Windows NT 10.0; Win64; x64) AppleWebKit/537.36 (KHTML, like Gecko) Chrome/98.0.4758.102 Safari/537.36",xpyriment,legacy,legacy,0,uniform,0,0,0,0,24,24,24,0,0,74,74,74,74,74,0,74,0,47,47,47,47,47,0,47,27-01-22,27-01-22,10:57:56,Sun Feb 27 2022 10:57:56 GMT+0100 (közép-európai téli idő),The main experiment item,yes,0,0,C:/Users/rrics/Documents/!!ResearchBMECOGSCI/gnet,0,0,0,prototype4.png,no,mono,no,18,no,black,no,no,768,1148,3.5.6,legacy,xpyriment,osweb,1.3.13,0,space,right,j,space,27631,21140,30290,27631,2,legacy,824,1536,24,864,24,0,0,1536,1645955954891,1024,2,48000,-16,experiment,p4sarr2.png,0,even,Win32,56,133005,129992,56,56,652047,653556,647047,134522,647047,56,896501,898007,893500,653558,893500,visual_patterns,0,0,0,yes,1366
undefined,undefined,undefined,undefined,white,no,Mozilla,Netscape,"5.0 (Windows NT 10.0; Win64; x64) AppleWebKit/537.36 (KHTML, like Gecko) Chrome/98.0.4758.102 Safari/537.36",xpyriment,legacy,legacy,0,uniform,0,0,0,0,24,24,24,0,0,74,74,74,74,74,0,74,0,48,48,48,48,48,0,48,27-01-22,27-01-22,10:57:56,Sun Feb 27 2022 10:57:56 GMT+0100 (közép-európai téli idő),The main experiment item,yes,0,0,C:/Users/rrics/Documents/!!ResearchBMECOGSCI/gnet,0,0,0,prototype4.png,no,mono,no,18,no,black,no,no,768,1148,3.5.6,legacy,xpyriment,osweb,1.3.13,0,space,right,j,space,27631,21140,30290,27631,2,legacy,824,1536,24,864,24,0,0,1536,1645955954891,1024,2,48000,-16,experiment,p2sarrshacol3.png,0,even,Win32,56,133005,129992,56,56,652047,653556,647047,134522,647047,56,901016,902524,898016,653558,898016,visual_patterns,0,0,0,yes,1366
undefined,undefined,undefined,undefined,white,no,Mozilla,Netscape,"5.0 (Windows NT 10.0; Win64; x64) AppleWebKit/537.36 (KHTML, like Gecko) Chrome/98.0.4758.102 Safari/537.36",xpyriment,legacy,legacy,0,uniform,0,0,0,0,24,24,24,0,0,74,74,74,74,74,0,74,0,49,49,49,49,49,0,49,27-01-22,27-01-22,10:57:56,Sun Feb 27 2022 10:57:56 GMT+0100 (közép-európai téli idő),The main experiment item,yes,0,0,C:/Users/rrics/Documents/!!ResearchBMECOGSCI/gnet,0,0,0,prototype4.png,no,mono,no,18,no,black,no,no,768,1148,3.5.6,legacy,xpyriment,osweb,1.3.13,0,space,right,j,space,27631,21140,30290,27631,2,legacy,824,1536,24,864,24,0,0,1536,1645955954891,1024,2,48000,-16,experiment,p2sarrcol2.png,0,even,Win32,56,133005,129992,56,56,652047,653556,647047,134522,647047,56,905531,907040,902533,653558,902533,visual_patterns,0,0,0,yes,1366
