acc,accuracy,average_response_time,avg_rt,background,bidi,browser_codename,browser_name,browser_version,canvas_backend,clock_backend,color_backend,compensation,coordinates,count_end,count_experiment,count_osweb,count_prestudy,count_prestudy_isi,count_prestudy_sequence,count_prestudy_stimpres,count_start,count_study,count_study_coroutines,count_study_isi,count_study_logger,count_study_response,count_study_sequence,count_study_start,count_study_stimpres,count_test,count_test_coroutines,count_test_isi,count_test_logger,count_test_response,count_test_sequence,count_test_start,count_test_stimpres,date_startdate,date_startdateUTC,date_starttime,datetime,description,disable_garbage_collection,experiment_debug,experiment_parameters,experiment_path,experiment_pilot,experiment_taskname,experiment_taskversion,fampict,font_bold,font_family,font_italic,font_size,font_underline,foreground,form_clicks,fullscreen,height,jatosStudyResultId,jatosVersion,keyboard_backend,mouse_backend,opensesame_codename,opensesame_version,repeat_cycle,response,response_start,response_study_start,response_test_start,response_time,response_time_start,response_time_study_start,response_time_test_start,round_decimals,sampler_backend,screen_availableHeight,screen_availableWidth,screen_colorDepth,screen_height,screen_pixelDepth,screen_screenX,screen_screenY,screen_width,sessionid,sound_buf_size,sound_channels,sound_freq,sound_sample_size,start,stim,subject_nr,subject_parity,system_os,time_prestudy,time_prestudy_isi,time_prestudy_stimpres,time_start,time_study,time_study_isi,time_study_logger,time_study_response,time_study_start,time_study_stimpres,time_test,time_test_isi,time_test_logger,time_test_response,time_test_start,time_test_stimpres,title,total_correct,total_response_time,total_responses,uniform_coordinates,width
undefined,undefined,undefined,undefined,white,no,Mozilla,Netscape,"5.0 (Macintosh; Intel Mac OS X 10_15_7) AppleWebKit/605.1.15 (KHTML, like Gecko) Version/15.2 Safari/605.1.15",xpyriment,legacy,legacy,0,uniform,0,0,0,0,24,24,24,0,0,0,0,0,0,0,0,0,0,,,,,,0,,27-01-22,27-01-22,11:26:29,Sun Feb 27 2022 11:26:29 GMT+0100 (CET),The main experiment item,yes,0,0,C:/Users/rrics/Documents/!!ResearchBMECOGSCI/gnet,0,0,0,prototype3.png,no,mono,no,18,no,black,no,no,768,1149,3.5.6,legacy,xpyriment,osweb,1.3.13,0,space,space,space,,49125,19246,49125,,2,legacy,900,1440,24,900,24,0,0,1440,1645957656478,1024,2,48000,-16,experiment,p6sarr1.png,1,odd,MacIntel,59,131382,128372,58,59,187068,188577,182073,132902,182073,59,,,,,,visual_patterns,0,0,0,yes,1366
undefined,undefined,undefined,undefined,white,no,Mozilla,Netscape,"5.0 (Macintosh; Intel Mac OS X 10_15_7) AppleWebKit/605.1.15 (KHTML, like Gecko) Version/15.2 Safari/605.1.15",xpyriment,legacy,legacy,0,uniform,0,0,0,0,24,24,24,0,0,1,1,1,1,1,0,1,0,,,,,,0,,27-01-22,27-01-22,11:26:29,Sun Feb 27 2022 11:26:29 GMT+0100 (CET),The main experiment item,yes,0,0,C:/Users/rrics/Documents/!!ResearchBMECOGSCI/gnet,0,0,0,prototype3.png,no,mono,no,18,no,black,no,no,768,1149,3.5.6,legacy,xpyriment,osweb,1.3.13,0,space,space,space,,49125,19246,49125,,2,legacy,900,1440,24,900,24,0,0,1440,1645957656478,1024,2,48000,-16,experiment,prototype3.png,1,odd,MacIntel,59,131382,128372,58,59,193593,195110,188598,132902,188598,59,,,,,,visual_patterns,0,0,0,yes,1366
undefined,undefined,undefined,undefined,white,no,Mozilla,Netscape,"5.0 (Macintosh; Intel Mac OS X 10_15_7) AppleWebKit/605.1.15 (KHTML, like Gecko) Version/15.2 Safari/605.1.15",xpyriment,legacy,legacy,0,uniform,0,0,0,0,24,24,24,0,0,2,2,2,2,2,0,2,0,,,,,,0,,27-01-22,27-01-22,11:26:29,Sun Feb 27 2022 11:26:29 GMT+0100 (CET),The main experiment item,yes,0,0,C:/Users/rrics/Documents/!!ResearchBMECOGSCI/gnet,0,0,0,prototype3.png,no,mono,no,18,no,black,no,no,768,1149,3.5.6,legacy,xpyriment,osweb,1.3.13,0,space,space,space,,49125,19246,49125,,2,legacy,900,1440,24,900,24,0,0,1440,1645957656478,1024,2,48000,-16,experiment,p3sarr1.png,1,odd,MacIntel,59,131382,128372,58,59,200128,201644,195135,132902,195135,59,,,,,,visual_patterns,0,0,0,yes,1366
undefined,undefined,undefined,undefined,white,no,Mozilla,Netscape,"5.0 (Macintosh; Intel Mac OS X 10_15_7) AppleWebKit/605.1.15 (KHTML, like Gecko) Version/15.2 Safari/605.1.15",xpyriment,legacy,legacy,0,uniform,0,0,0,0,24,24,24,0,0,3,3,3,3,3,0,3,0,,,,,,0,,27-01-22,27-01-22,11:26:29,Sun Feb 27 2022 11:26:29 GMT+0100 (CET),The main experiment item,yes,0,0,C:/Users/rrics/Documents/!!ResearchBMECOGSCI/gnet,0,0,0,prototype3.png,no,mono,no,18,no,black,no,no,768,1149,3.5.6,legacy,xpyriment,osweb,1.3.13,0,space,space,space,,49125,19246,49125,,2,legacy,900,1440,24,900,24,0,0,1440,1645957656478,1024,2,48000,-16,experiment,p9sarr2.png,1,odd,MacIntel,59,131382,128372,58,59,206661,208177,201665,132902,201665,59,,,,,,visual_patterns,0,0,0,yes,1366
undefined,undefined,undefined,undefined,white,no,Mozilla,Netscape,"5.0 (Macintosh; Intel Mac OS X 10_15_7) AppleWebKit/605.1.15 (KHTML, like Gecko) Version/15.2 Safari/605.1.15",xpyriment,legacy,legacy,0,uniform,0,0,0,0,24,24,24,0,0,4,4,4,4,4,0,4,0,,,,,,0,,27-01-22,27-01-22,11:26:29,Sun Feb 27 2022 11:26:29 GMT+0100 (CET),The main experiment item,yes,0,0,C:/Users/rrics/Documents/!!ResearchBMECOGSCI/gnet,0,0,0,prototype3.png,no,mono,no,18,no,black,no,no,768,1149,3.5.6,legacy,xpyriment,osweb,1.3.13,0,space,space,space,,49125,19246,49125,,2,legacy,900,1440,24,900,24,0,0,1440,1645957656478,1024,2,48000,-16,experiment,p4sarr2.png,1,odd,MacIntel,59,131382,128372,58,59,213197,214711,208202,132902,208201,59,,,,,,visual_patterns,0,0,0,yes,1366
undefined,undefined,undefined,undefined,white,no,Mozilla,Netscape,"5.0 (Macintosh; Intel Mac OS X 10_15_7) AppleWebKit/605.1.15 (KHTML, like Gecko) Version/15.2 Safari/605.1.15",xpyriment,legacy,legacy,0,uniform,0,0,0,0,24,24,24,0,0,5,5,5,5,5,0,5,0,,,,,,0,,27-01-22,27-01-22,11:26:29,Sun Feb 27 2022 11:26:29 GMT+0100 (CET),The main experiment item,yes,0,0,C:/Users/rrics/Documents/!!ResearchBMECOGSCI/gnet,0,0,0,prototype3.png,no,mono,no,18,no,black,no,no,768,1149,3.5.6,legacy,xpyriment,osweb,1.3.13,0,space,space,space,,49125,19246,49125,,2,legacy,900,1440,24,900,24,0,0,1440,1645957656478,1024,2,48000,-16,experiment,p4sarrshacol2.png,1,odd,MacIntel,59,131382,128372,58,59,219729,221244,214734,132902,214734,59,,,,,,visual_patterns,0,0,0,yes,1366
undefined,undefined,undefined,undefined,white,no,Mozilla,Netscape,"5.0 (Macintosh; Intel Mac OS X 10_15_7) AppleWebKit/605.1.15 (KHTML, like Gecko) Version/15.2 Safari/605.1.15",xpyriment,legacy,legacy,0,uniform,0,0,0,0,24,24,24,0,0,6,6,6,6,6,0,6,0,,,,,,0,,27-01-22,27-01-22,11:26:29,Sun Feb 27 2022 11:26:29 GMT+0100 (CET),The main experiment item,yes,0,0,C:/Users/rrics/Documents/!!ResearchBMECOGSCI/gnet,0,0,0,prototype3.png,no,mono,no,18,no,black,no,no,768,1149,3.5.6,legacy,xpyriment,osweb,1.3.13,0,space,space,space,,49125,19246,49125,,2,legacy,900,1440,24,900,24,0,0,1440,1645957656478,1024,2,48000,-16,experiment,p5sarrsha2.png,1,odd,MacIntel,59,131382,128372,58,59,226259,227761,221266,132902,221266,59,,,,,,visual_patterns,0,0,0,yes,1366
undefined,undefined,undefined,undefined,white,no,Mozilla,Netscape,"5.0 (Macintosh; Intel Mac OS X 10_15_7) AppleWebKit/605.1.15 (KHTML, like Gecko) Version/15.2 Safari/605.1.15",xpyriment,legacy,legacy,0,uniform,0,0,0,0,24,24,24,0,0,7,7,7,7,7,0,7,0,,,,,,0,,27-01-22,27-01-22,11:26:29,Sun Feb 27 2022 11:26:29 GMT+0100 (CET),The main experiment item,yes,0,0,C:/Users/rrics/Documents/!!ResearchBMECOGSCI/gnet,0,0,0,prototype3.png,no,mono,no,18,no,black,no,no,768,1149,3.5.6,legacy,xpyriment,osweb,1.3.13,0,space,space,space,,49125,19246,49125,,2,legacy,900,1440,24,900,24,0,0,1440,1645957656478,1024,2,48000,-16,experiment,p2sarr1.png,1,odd,MacIntel,59,131382,128372,58,59,232779,234295,227784,132902,227783,59,,,,,,visual_patterns,0,0,0,yes,1366
undefined,undefined,undefined,undefined,white,no,Mozilla,Netscape,"5.0 (Macintosh; Intel Mac OS X 10_15_7) AppleWebKit/605.1.15 (KHTML, like Gecko) Version/15.2 Safari/605.1.15",xpyriment,legacy,legacy,0,uniform,0,0,0,0,24,24,24,0,0,8,8,8,8,8,0,8,0,,,,,,0,,27-01-22,27-01-22,11:26:29,Sun Feb 27 2022 11:26:29 GMT+0100 (CET),The main experiment item,yes,0,0,C:/Users/rrics/Documents/!!ResearchBMECOGSCI/gnet,0,0,0,prototype3.png,no,mono,no,18,no,black,no,no,768,1149,3.5.6,legacy,xpyriment,osweb,1.3.13,0,space,space,space,,49125,19246,49125,,2,legacy,900,1440,24,900,24,0,0,1440,1645957656478,1024,2,48000,-16,experiment,prototype4.png,1,odd,MacIntel,59,131382,128372,58,59,239309,240811,234316,132902,234316,59,,,,,,visual_patterns,0,0,0,yes,1366
undefined,undefined,undefined,undefined,white,no,Mozilla,Netscape,"5.0 (Macintosh; Intel Mac OS X 10_15_7) AppleWebKit/605.1.15 (KHTML, like Gecko) Version/15.2 Safari/605.1.15",xpyriment,legacy,legacy,0,uniform,0,0,0,0,24,24,24,0,0,9,9,9,9,9,0,9,0,,,,,,0,,27-01-22,27-01-22,11:26:29,Sun Feb 27 2022 11:26:29 GMT+0100 (CET),The main experiment item,yes,0,0,C:/Users/rrics/Documents/!!ResearchBMECOGSCI/gnet,0,0,0,prototype3.png,no,mono,no,18,no,black,no,no,768,1149,3.5.6,legacy,xpyriment,osweb,1.3.13,0,space,space,space,,49125,19246,49125,,2,legacy,900,1440,24,900,24,0,0,1440,1645957656478,1024,2,48000,-16,experiment,p5sarrsha1.png,1,odd,MacIntel,59,131382,128372,58,59,245834,247345,240839,132902,240839,59,,,,,,visual_patterns,0,0,0,yes,1366
undefined,undefined,undefined,undefined,white,no,Mozilla,Netscape,"5.0 (Macintosh; Intel Mac OS X 10_15_7) AppleWebKit/605.1.15 (KHTML, like Gecko) Version/15.2 Safari/605.1.15",xpyriment,legacy,legacy,0,uniform,0,0,0,0,24,24,24,0,0,10,10,10,10,10,0,10,0,,,,,,0,,27-01-22,27-01-22,11:26:29,Sun Feb 27 2022 11:26:29 GMT+0100 (CET),The main experiment item,yes,0,0,C:/Users/rrics/Documents/!!ResearchBMECOGSCI/gnet,0,0,0,prototype3.png,no,mono,no,18,no,black,no,no,768,1149,3.5.6,legacy,xpyriment,osweb,1.3.13,0,space,space,space,,49125,19246,49125,,2,legacy,900,1440,24,900,24,0,0,1440,1645957656478,1024,2,48000,-16,experiment,p5sarrcol1.png,1,odd,MacIntel,59,131382,128372,58,59,252361,253862,247367,132902,247367,59,,,,,,visual_patterns,0,0,0,yes,1366
undefined,undefined,undefined,undefined,white,no,Mozilla,Netscape,"5.0 (Macintosh; Intel Mac OS X 10_15_7) AppleWebKit/605.1.15 (KHTML, like Gecko) Version/15.2 Safari/605.1.15",xpyriment,legacy,legacy,0,uniform,0,0,0,0,24,24,24,0,0,11,11,11,11,11,0,11,0,,,,,,0,,27-01-22,27-01-22,11:26:29,Sun Feb 27 2022 11:26:29 GMT+0100 (CET),The main experiment item,yes,0,0,C:/Users/rrics/Documents/!!ResearchBMECOGSCI/gnet,0,0,0,prototype3.png,no,mono,no,18,no,black,no,no,768,1149,3.5.6,legacy,xpyriment,osweb,1.3.13,0,space,space,space,,49125,19246,49125,,2,legacy,900,1440,24,900,24,0,0,1440,1645957656478,1024,2,48000,-16,experiment,p8sarr2.png,1,odd,MacIntel,59,131382,128372,58,59,258877,260379,253885,132902,253885,59,,,,,,visual_patterns,0,0,0,yes,1366
undefined,undefined,undefined,undefined,white,no,Mozilla,Netscape,"5.0 (Macintosh; Intel Mac OS X 10_15_7) AppleWebKit/605.1.15 (KHTML, like Gecko) Version/15.2 Safari/605.1.15",xpyriment,legacy,legacy,0,uniform,0,0,0,0,24,24,24,0,0,12,12,12,12,12,0,12,0,,,,,,0,,27-01-22,27-01-22,11:26:29,Sun Feb 27 2022 11:26:29 GMT+0100 (CET),The main experiment item,yes,0,0,C:/Users/rrics/Documents/!!ResearchBMECOGSCI/gnet,0,0,0,prototype3.png,no,mono,no,18,no,black,no,no,768,1149,3.5.6,legacy,xpyriment,osweb,1.3.13,0,space,space,space,,49125,19246,49125,,2,legacy,900,1440,24,900,24,0,0,1440,1645957656478,1024,2,48000,-16,experiment,p5sarrshacol2.png,1,odd,MacIntel,59,131382,128372,58,59,265396,266912,260401,132902,260401,59,,,,,,visual_patterns,0,0,0,yes,1366
undefined,undefined,undefined,undefined,white,no,Mozilla,Netscape,"5.0 (Macintosh; Intel Mac OS X 10_15_7) AppleWebKit/605.1.15 (KHTML, like Gecko) Version/15.2 Safari/605.1.15",xpyriment,legacy,legacy,0,uniform,0,0,0,0,24,24,24,0,0,13,13,13,13,13,0,13,0,,,,,,0,,27-01-22,27-01-22,11:26:29,Sun Feb 27 2022 11:26:29 GMT+0100 (CET),The main experiment item,yes,0,0,C:/Users/rrics/Documents/!!ResearchBMECOGSCI/gnet,0,0,0,prototype3.png,no,mono,no,18,no,black,no,no,768,1149,3.5.6,legacy,xpyriment,osweb,1.3.13,0,space,space,space,,49125,19246,49125,,2,legacy,900,1440,24,900,24,0,0,1440,1645957656478,1024,2,48000,-16,experiment,p8sarr1.png,1,odd,MacIntel,59,131382,128372,58,59,271932,273446,266937,132902,266937,59,,,,,,visual_patterns,0,0,0,yes,1366
undefined,undefined,undefined,undefined,white,no,Mozilla,Netscape,"5.0 (Macintosh; Intel Mac OS X 10_15_7) AppleWebKit/605.1.15 (KHTML, like Gecko) Version/15.2 Safari/605.1.15",xpyriment,legacy,legacy,0,uniform,0,0,0,0,24,24,24,0,0,14,14,14,14,14,0,14,0,,,,,,0,,27-01-22,27-01-22,11:26:29,Sun Feb 27 2022 11:26:29 GMT+0100 (CET),The main experiment item,yes,0,0,C:/Users/rrics/Documents/!!ResearchBMECOGSCI/gnet,0,0,0,prototype3.png,no,mono,no,18,no,black,no,no,768,1149,3.5.6,legacy,xpyriment,osweb,1.3.13,0,space,space,space,,49125,19246,49125,,2,legacy,900,1440,24,900,24,0,0,1440,1645957656478,1024,2,48000,-16,experiment,p3sarrcol1.png,1,odd,MacIntel,59,131382,128372,58,59,278461,279962,273468,132902,273468,59,,,,,,visual_patterns,0,0,0,yes,1366
undefined,undefined,undefined,undefined,white,no,Mozilla,Netscape,"5.0 (Macintosh; Intel Mac OS X 10_15_7) AppleWebKit/605.1.15 (KHTML, like Gecko) Version/15.2 Safari/605.1.15",xpyriment,legacy,legacy,0,uniform,0,0,0,0,24,24,24,0,0,15,15,15,15,15,0,15,0,,,,,,0,,27-01-22,27-01-22,11:26:29,Sun Feb 27 2022 11:26:29 GMT+0100 (CET),The main experiment item,yes,0,0,C:/Users/rrics/Documents/!!ResearchBMECOGSCI/gnet,0,0,0,prototype3.png,no,mono,no,18,no,black,no,no,768,1149,3.5.6,legacy,xpyriment,osweb,1.3.13,0,space,space,space,,49125,19246,49125,,2,legacy,900,1440,24,900,24,0,0,1440,1645957656478,1024,2,48000,-16,experiment,prototype1.png,1,odd,MacIntel,59,131382,128372,58,59,284977,286479,279982,132902,279982,59,,,,,,visual_patterns,0,0,0,yes,1366
undefined,undefined,undefined,undefined,white,no,Mozilla,Netscape,"5.0 (Macintosh; Intel Mac OS X 10_15_7) AppleWebKit/605.1.15 (KHTML, like Gecko) Version/15.2 Safari/605.1.15",xpyriment,legacy,legacy,0,uniform,0,0,0,0,24,24,24,0,0,16,16,16,16,16,0,16,0,,,,,,0,,27-01-22,27-01-22,11:26:29,Sun Feb 27 2022 11:26:29 GMT+0100 (CET),The main experiment item,yes,0,0,C:/Users/rrics/Documents/!!ResearchBMECOGSCI/gnet,0,0,0,prototype3.png,no,mono,no,18,no,black,no,no,768,1149,3.5.6,legacy,xpyriment,osweb,1.3.13,0,space,space,space,,49125,19246,49125,,2,legacy,900,1440,24,900,24,0,0,1440,1645957656478,1024,2,48000,-16,experiment,p2sarr2.png,1,odd,MacIntel,59,131382,128372,58,59,291497,293013,286502,132902,286502,59,,,,,,visual_patterns,0,0,0,yes,1366
undefined,undefined,undefined,undefined,white,no,Mozilla,Netscape,"5.0 (Macintosh; Intel Mac OS X 10_15_7) AppleWebKit/605.1.15 (KHTML, like Gecko) Version/15.2 Safari/605.1.15",xpyriment,legacy,legacy,0,uniform,0,0,0,0,24,24,24,0,0,17,17,17,17,17,0,17,0,,,,,,0,,27-01-22,27-01-22,11:26:29,Sun Feb 27 2022 11:26:29 GMT+0100 (CET),The main experiment item,yes,0,0,C:/Users/rrics/Documents/!!ResearchBMECOGSCI/gnet,0,0,0,prototype3.png,no,mono,no,18,no,black,no,no,768,1149,3.5.6,legacy,xpyriment,osweb,1.3.13,0,space,space,space,,49125,19246,49125,,2,legacy,900,1440,24,900,24,0,0,1440,1645957656478,1024,2,48000,-16,experiment,p3sarrsha2.png,1,odd,MacIntel,59,131382,128372,58,59,298031,299546,293035,132902,293035,59,,,,,,visual_patterns,0,0,0,yes,1366
undefined,undefined,undefined,undefined,white,no,Mozilla,Netscape,"5.0 (Macintosh; Intel Mac OS X 10_15_7) AppleWebKit/605.1.15 (KHTML, like Gecko) Version/15.2 Safari/605.1.15",xpyriment,legacy,legacy,0,uniform,0,0,0,0,24,24,24,0,0,18,18,18,18,18,0,18,0,,,,,,0,,27-01-22,27-01-22,11:26:29,Sun Feb 27 2022 11:26:29 GMT+0100 (CET),The main experiment item,yes,0,0,C:/Users/rrics/Documents/!!ResearchBMECOGSCI/gnet,0,0,0,prototype3.png,no,mono,no,18,no,black,no,no,768,1149,3.5.6,legacy,xpyriment,osweb,1.3.13,0,space,space,space,,49125,19246,49125,,2,legacy,900,1440,24,900,24,0,0,1440,1645957656478,1024,2,48000,-16,experiment,prototype4.png,1,odd,MacIntel,59,131382,128372,58,59,304564,306080,299568,132902,299568,59,,,,,,visual_patterns,0,0,0,yes,1366
undefined,undefined,undefined,undefined,white,no,Mozilla,Netscape,"5.0 (Macintosh; Intel Mac OS X 10_15_7) AppleWebKit/605.1.15 (KHTML, like Gecko) Version/15.2 Safari/605.1.15",xpyriment,legacy,legacy,0,uniform,0,0,0,0,24,24,24,0,0,19,19,19,19,19,0,19,0,,,,,,0,,27-01-22,27-01-22,11:26:29,Sun Feb 27 2022 11:26:29 GMT+0100 (CET),The main experiment item,yes,0,0,C:/Users/rrics/Documents/!!ResearchBMECOGSCI/gnet,0,0,0,prototype3.png,no,mono,no,18,no,black,no,no,768,1149,3.5.6,legacy,xpyriment,osweb,1.3.13,0,space,space,space,,49125,19246,49125,,2,legacy,900,1440,24,900,24,0,0,1440,1645957656478,1024,2,48000,-16,experiment,p3sarrsha1.png,1,odd,MacIntel,59,131382,128372,58,59,311098,312613,306102,132902,306102,59,,,,,,visual_patterns,0,0,0,yes,1366
undefined,undefined,undefined,undefined,white,no,Mozilla,Netscape,"5.0 (Macintosh; Intel Mac OS X 10_15_7) AppleWebKit/605.1.15 (KHTML, like Gecko) Version/15.2 Safari/605.1.15",xpyriment,legacy,legacy,0,uniform,0,0,0,0,24,24,24,0,0,20,20,20,20,20,0,20,0,,,,,,0,,27-01-22,27-01-22,11:26:29,Sun Feb 27 2022 11:26:29 GMT+0100 (CET),The main experiment item,yes,0,0,C:/Users/rrics/Documents/!!ResearchBMECOGSCI/gnet,0,0,0,prototype3.png,no,mono,no,18,no,black,no,no,768,1149,3.5.6,legacy,xpyriment,osweb,1.3.13,0,space,space,space,,49125,19246,49125,,2,legacy,900,1440,24,900,24,0,0,1440,1645957656478,1024,2,48000,-16,experiment,prototype2.png,1,odd,MacIntel,59,131382,128372,58,59,317628,319130,312631,132902,312631,59,,,,,,visual_patterns,0,0,0,yes,1366
undefined,undefined,undefined,undefined,white,no,Mozilla,Netscape,"5.0 (Macintosh; Intel Mac OS X 10_15_7) AppleWebKit/605.1.15 (KHTML, like Gecko) Version/15.2 Safari/605.1.15",xpyriment,legacy,legacy,0,uniform,0,0,0,0,24,24,24,0,0,21,21,21,21,21,0,21,0,,,,,,0,,27-01-22,27-01-22,11:26:29,Sun Feb 27 2022 11:26:29 GMT+0100 (CET),The main experiment item,yes,0,0,C:/Users/rrics/Documents/!!ResearchBMECOGSCI/gnet,0,0,0,prototype3.png,no,mono,no,18,no,black,no,no,768,1149,3.5.6,legacy,xpyriment,osweb,1.3.13,0,space,space,space,,49125,19246,49125,,2,legacy,900,1440,24,900,24,0,0,1440,1645957656478,1024,2,48000,-16,experiment,p4sarrcol2.png,1,odd,MacIntel,59,131382,128372,58,59,324150,325664,319153,132902,319153,59,,,,,,visual_patterns,0,0,0,yes,1366
undefined,undefined,undefined,undefined,white,no,Mozilla,Netscape,"5.0 (Macintosh; Intel Mac OS X 10_15_7) AppleWebKit/605.1.15 (KHTML, like Gecko) Version/15.2 Safari/605.1.15",xpyriment,legacy,legacy,0,uniform,0,0,0,0,24,24,24,0,0,22,22,22,22,22,0,22,0,,,,,,0,,27-01-22,27-01-22,11:26:29,Sun Feb 27 2022 11:26:29 GMT+0100 (CET),The main experiment item,yes,0,0,C:/Users/rrics/Documents/!!ResearchBMECOGSCI/gnet,0,0,0,prototype3.png,no,mono,no,18,no,black,no,no,768,1149,3.5.6,legacy,xpyriment,osweb,1.3.13,0,space,space,space,,49125,19246,49125,,2,legacy,900,1440,24,900,24,0,0,1440,1645957656478,1024,2,48000,-16,experiment,p5sarrshacol1.png,1,odd,MacIntel,59,131382,128372,58,59,330680,332197,325685,132902,325685,59,,,,,,visual_patterns,0,0,0,yes,1366
undefined,undefined,undefined,undefined,white,no,Mozilla,Netscape,"5.0 (Macintosh; Intel Mac OS X 10_15_7) AppleWebKit/605.1.15 (KHTML, like Gecko) Version/15.2 Safari/605.1.15",xpyriment,legacy,legacy,0,uniform,0,0,0,0,24,24,24,0,0,23,23,23,23,23,0,23,0,,,,,,0,,27-01-22,27-01-22,11:26:29,Sun Feb 27 2022 11:26:29 GMT+0100 (CET),The main experiment item,yes,0,0,C:/Users/rrics/Documents/!!ResearchBMECOGSCI/gnet,0,0,0,prototype3.png,no,mono,no,18,no,black,no,no,768,1149,3.5.6,legacy,xpyriment,osweb,1.3.13,0,space,space,space,,49125,19246,49125,,2,legacy,900,1440,24,900,24,0,0,1440,1645957656478,1024,2,48000,-16,experiment,prototype2.png,1,odd,MacIntel,59,131382,128372,58,59,337213,338731,332216,132902,332216,59,,,,,,visual_patterns,0,0,0,yes,1366
undefined,undefined,undefined,undefined,white,no,Mozilla,Netscape,"5.0 (Macintosh; Intel Mac OS X 10_15_7) AppleWebKit/605.1.15 (KHTML, like Gecko) Version/15.2 Safari/605.1.15",xpyriment,legacy,legacy,0,uniform,0,0,0,0,24,24,24,0,0,24,24,24,24,24,0,24,0,,,,,,0,,27-01-22,27-01-22,11:26:29,Sun Feb 27 2022 11:26:29 GMT+0100 (CET),The main experiment item,yes,0,0,C:/Users/rrics/Documents/!!ResearchBMECOGSCI/gnet,0,0,0,prototype3.png,no,mono,no,18,no,black,no,no,768,1149,3.5.6,legacy,xpyriment,osweb,1.3.13,0,space,space,space,,49125,19246,49125,,2,legacy,900,1440,24,900,24,0,0,1440,1645957656478,1024,2,48000,-16,experiment,p4sarrsha2.png,1,odd,MacIntel,59,131382,128372,58,59,343752,345264,338755,132902,338755,59,,,,,,visual_patterns,0,0,0,yes,1366
undefined,undefined,undefined,undefined,white,no,Mozilla,Netscape,"5.0 (Macintosh; Intel Mac OS X 10_15_7) AppleWebKit/605.1.15 (KHTML, like Gecko) Version/15.2 Safari/605.1.15",xpyriment,legacy,legacy,0,uniform,0,0,0,0,24,24,24,0,0,25,25,25,25,25,0,25,0,,,,,,0,,27-01-22,27-01-22,11:26:29,Sun Feb 27 2022 11:26:29 GMT+0100 (CET),The main experiment item,yes,0,0,C:/Users/rrics/Documents/!!ResearchBMECOGSCI/gnet,0,0,0,prototype3.png,no,mono,no,18,no,black,no,no,768,1149,3.5.6,legacy,xpyriment,osweb,1.3.13,0,space,space,space,,49125,19246,49125,,2,legacy,900,1440,24,900,24,0,0,1440,1645957656478,1024,2,48000,-16,experiment,p9sarr1.png,1,odd,MacIntel,59,131382,128372,58,59,350283,351798,345286,132902,345286,59,,,,,,visual_patterns,0,0,0,yes,1366
undefined,undefined,undefined,undefined,white,no,Mozilla,Netscape,"5.0 (Macintosh; Intel Mac OS X 10_15_7) AppleWebKit/605.1.15 (KHTML, like Gecko) Version/15.2 Safari/605.1.15",xpyriment,legacy,legacy,0,uniform,0,0,0,0,24,24,24,0,0,26,26,26,26,26,0,26,0,,,,,,0,,27-01-22,27-01-22,11:26:29,Sun Feb 27 2022 11:26:29 GMT+0100 (CET),The main experiment item,yes,0,0,C:/Users/rrics/Documents/!!ResearchBMECOGSCI/gnet,0,0,0,prototype3.png,no,mono,no,18,no,black,no,no,768,1149,3.5.6,legacy,xpyriment,osweb,1.3.13,0,space,space,space,,49125,19246,49125,,2,legacy,900,1440,24,900,24,0,0,1440,1645957656478,1024,2,48000,-16,experiment,prototype1.png,1,odd,MacIntel,59,131382,128372,58,59,356815,358331,351818,132902,351818,59,,,,,,visual_patterns,0,0,0,yes,1366
undefined,undefined,undefined,undefined,white,no,Mozilla,Netscape,"5.0 (Macintosh; Intel Mac OS X 10_15_7) AppleWebKit/605.1.15 (KHTML, like Gecko) Version/15.2 Safari/605.1.15",xpyriment,legacy,legacy,0,uniform,0,0,0,0,24,24,24,0,0,27,27,27,27,27,0,27,0,,,,,,0,,27-01-22,27-01-22,11:26:29,Sun Feb 27 2022 11:26:29 GMT+0100 (CET),The main experiment item,yes,0,0,C:/Users/rrics/Documents/!!ResearchBMECOGSCI/gnet,0,0,0,prototype3.png,no,mono,no,18,no,black,no,no,768,1149,3.5.6,legacy,xpyriment,osweb,1.3.13,0,space,space,space,,49125,19246,49125,,2,legacy,900,1440,24,900,24,0,0,1440,1645957656478,1024,2,48000,-16,experiment,p4sarrcol1.png,1,odd,MacIntel,59,131382,128372,58,59,363353,364865,358358,132902,358358,59,,,,,,visual_patterns,0,0,0,yes,1366
undefined,undefined,undefined,undefined,white,no,Mozilla,Netscape,"5.0 (Macintosh; Intel Mac OS X 10_15_7) AppleWebKit/605.1.15 (KHTML, like Gecko) Version/15.2 Safari/605.1.15",xpyriment,legacy,legacy,0,uniform,0,0,0,0,24,24,24,0,0,28,28,28,28,28,0,28,0,,,,,,0,,27-01-22,27-01-22,11:26:29,Sun Feb 27 2022 11:26:29 GMT+0100 (CET),The main experiment item,yes,0,0,C:/Users/rrics/Documents/!!ResearchBMECOGSCI/gnet,0,0,0,prototype3.png,no,mono,no,18,no,black,no,no,768,1149,3.5.6,legacy,xpyriment,osweb,1.3.13,0,space,space,space,,49125,19246,49125,,2,legacy,900,1440,24,900,24,0,0,1440,1645957656478,1024,2,48000,-16,experiment,prototype4.png,1,odd,MacIntel,59,131382,128372,58,59,369880,371381,364885,132902,364885,59,,,,,,visual_patterns,0,0,0,yes,1366
undefined,undefined,undefined,undefined,white,no,Mozilla,Netscape,"5.0 (Macintosh; Intel Mac OS X 10_15_7) AppleWebKit/605.1.15 (KHTML, like Gecko) Version/15.2 Safari/605.1.15",xpyriment,legacy,legacy,0,uniform,0,0,0,0,24,24,24,0,0,29,29,29,29,29,0,29,0,,,,,,0,,27-01-22,27-01-22,11:26:29,Sun Feb 27 2022 11:26:29 GMT+0100 (CET),The main experiment item,yes,0,0,C:/Users/rrics/Documents/!!ResearchBMECOGSCI/gnet,0,0,0,prototype3.png,no,mono,no,18,no,black,no,no,768,1149,3.5.6,legacy,xpyriment,osweb,1.3.13,0,space,space,space,,49125,19246,49125,,2,legacy,900,1440,24,900,24,0,0,1440,1645957656478,1024,2,48000,-16,experiment,prototype5.png,1,odd,MacIntel,59,131382,128372,58,59,376396,377898,371402,132902,371401,59,,,,,,visual_patterns,0,0,0,yes,1366
undefined,undefined,undefined,undefined,white,no,Mozilla,Netscape,"5.0 (Macintosh; Intel Mac OS X 10_15_7) AppleWebKit/605.1.15 (KHTML, like Gecko) Version/15.2 Safari/605.1.15",xpyriment,legacy,legacy,0,uniform,0,0,0,0,24,24,24,0,0,30,30,30,30,30,0,30,0,,,,,,0,,27-01-22,27-01-22,11:26:29,Sun Feb 27 2022 11:26:29 GMT+0100 (CET),The main experiment item,yes,0,0,C:/Users/rrics/Documents/!!ResearchBMECOGSCI/gnet,0,0,0,prototype3.png,no,mono,no,18,no,black,no,no,768,1149,3.5.6,legacy,xpyriment,osweb,1.3.13,0,space,space,space,,49125,19246,49125,,2,legacy,900,1440,24,900,24,0,0,1440,1645957656478,1024,2,48000,-16,experiment,p5sarrcol2.png,1,odd,MacIntel,59,131382,128372,58,59,382920,384432,377923,132902,377923,59,,,,,,visual_patterns,0,0,0,yes,1366
undefined,undefined,undefined,undefined,white,no,Mozilla,Netscape,"5.0 (Macintosh; Intel Mac OS X 10_15_7) AppleWebKit/605.1.15 (KHTML, like Gecko) Version/15.2 Safari/605.1.15",xpyriment,legacy,legacy,0,uniform,0,0,0,0,24,24,24,0,0,31,31,31,31,31,0,31,0,,,,,,0,,27-01-22,27-01-22,11:26:29,Sun Feb 27 2022 11:26:29 GMT+0100 (CET),The main experiment item,yes,0,0,C:/Users/rrics/Documents/!!ResearchBMECOGSCI/gnet,0,0,0,prototype3.png,no,mono,no,18,no,black,no,no,768,1149,3.5.6,legacy,xpyriment,osweb,1.3.13,0,space,space,space,,49125,19246,49125,,2,legacy,900,1440,24,900,24,0,0,1440,1645957656478,1024,2,48000,-16,experiment,p2sarrsha2.png,1,odd,MacIntel,59,131382,128372,58,59,389450,390965,384455,132902,384455,59,,,,,,visual_patterns,0,0,0,yes,1366
undefined,undefined,undefined,undefined,white,no,Mozilla,Netscape,"5.0 (Macintosh; Intel Mac OS X 10_15_7) AppleWebKit/605.1.15 (KHTML, like Gecko) Version/15.2 Safari/605.1.15",xpyriment,legacy,legacy,0,uniform,0,0,0,0,24,24,24,0,0,32,32,32,32,32,0,32,0,,,,,,0,,27-01-22,27-01-22,11:26:29,Sun Feb 27 2022 11:26:29 GMT+0100 (CET),The main experiment item,yes,0,0,C:/Users/rrics/Documents/!!ResearchBMECOGSCI/gnet,0,0,0,prototype3.png,no,mono,no,18,no,black,no,no,768,1149,3.5.6,legacy,xpyriment,osweb,1.3.13,0,space,space,space,,49125,19246,49125,,2,legacy,900,1440,24,900,24,0,0,1440,1645957656478,1024,2,48000,-16,experiment,p5sarr1.png,1,odd,MacIntel,59,131382,128372,58,59,395983,397499,390988,132902,390988,59,,,,,,visual_patterns,0,0,0,yes,1366
undefined,undefined,undefined,undefined,white,no,Mozilla,Netscape,"5.0 (Macintosh; Intel Mac OS X 10_15_7) AppleWebKit/605.1.15 (KHTML, like Gecko) Version/15.2 Safari/605.1.15",xpyriment,legacy,legacy,0,uniform,0,0,0,0,24,24,24,0,0,33,33,33,33,33,0,33,0,,,,,,0,,27-01-22,27-01-22,11:26:29,Sun Feb 27 2022 11:26:29 GMT+0100 (CET),The main experiment item,yes,0,0,C:/Users/rrics/Documents/!!ResearchBMECOGSCI/gnet,0,0,0,prototype3.png,no,mono,no,18,no,black,no,no,768,1149,3.5.6,legacy,xpyriment,osweb,1.3.13,0,space,space,space,,49125,19246,49125,,2,legacy,900,1440,24,900,24,0,0,1440,1645957656478,1024,2,48000,-16,experiment,p3sarrshacol1.png,1,odd,MacIntel,59,131382,128372,58,59,402517,404032,397521,132902,397521,59,,,,,,visual_patterns,0,0,0,yes,1366
undefined,undefined,undefined,undefined,white,no,Mozilla,Netscape,"5.0 (Macintosh; Intel Mac OS X 10_15_7) AppleWebKit/605.1.15 (KHTML, like Gecko) Version/15.2 Safari/605.1.15",xpyriment,legacy,legacy,0,uniform,0,0,0,0,24,24,24,0,0,34,34,34,34,34,0,34,0,,,,,,0,,27-01-22,27-01-22,11:26:29,Sun Feb 27 2022 11:26:29 GMT+0100 (CET),The main experiment item,yes,0,0,C:/Users/rrics/Documents/!!ResearchBMECOGSCI/gnet,0,0,0,prototype3.png,no,mono,no,18,no,black,no,no,768,1149,3.5.6,legacy,xpyriment,osweb,1.3.13,0,space,space,space,,49125,19246,49125,,2,legacy,900,1440,24,900,24,0,0,1440,1645957656478,1024,2,48000,-16,experiment,prototype1.png,1,odd,MacIntel,59,131382,128372,58,59,409050,410566,404053,132902,404053,59,,,,,,visual_patterns,0,0,0,yes,1366
undefined,undefined,undefined,undefined,white,no,Mozilla,Netscape,"5.0 (Macintosh; Intel Mac OS X 10_15_7) AppleWebKit/605.1.15 (KHTML, like Gecko) Version/15.2 Safari/605.1.15",xpyriment,legacy,legacy,0,uniform,0,0,0,0,24,24,24,0,0,35,35,35,35,35,0,35,0,,,,,,0,,27-01-22,27-01-22,11:26:29,Sun Feb 27 2022 11:26:29 GMT+0100 (CET),The main experiment item,yes,0,0,C:/Users/rrics/Documents/!!ResearchBMECOGSCI/gnet,0,0,0,prototype3.png,no,mono,no,18,no,black,no,no,768,1149,3.5.6,legacy,xpyriment,osweb,1.3.13,0,space,space,space,,49125,19246,49125,,2,legacy,900,1440,24,900,24,0,0,1440,1645957656478,1024,2,48000,-16,experiment,p4sarrshacol1.png,1,odd,MacIntel,59,131382,128372,58,59,415584,417099,410589,132902,410589,59,,,,,,visual_patterns,0,0,0,yes,1366
undefined,undefined,undefined,undefined,white,no,Mozilla,Netscape,"5.0 (Macintosh; Intel Mac OS X 10_15_7) AppleWebKit/605.1.15 (KHTML, like Gecko) Version/15.2 Safari/605.1.15",xpyriment,legacy,legacy,0,uniform,0,0,0,0,24,24,24,0,0,36,36,36,36,36,0,36,0,,,,,,0,,27-01-22,27-01-22,11:26:29,Sun Feb 27 2022 11:26:29 GMT+0100 (CET),The main experiment item,yes,0,0,C:/Users/rrics/Documents/!!ResearchBMECOGSCI/gnet,0,0,0,prototype3.png,no,mono,no,18,no,black,no,no,768,1149,3.5.6,legacy,xpyriment,osweb,1.3.13,0,space,space,space,,49125,19246,49125,,2,legacy,900,1440,24,900,24,0,0,1440,1645957656478,1024,2,48000,-16,experiment,prototype3.png,1,odd,MacIntel,59,131382,128372,58,59,422115,423616,417120,132902,417120,59,,,,,,visual_patterns,0,0,0,yes,1366
undefined,undefined,undefined,undefined,white,no,Mozilla,Netscape,"5.0 (Macintosh; Intel Mac OS X 10_15_7) AppleWebKit/605.1.15 (KHTML, like Gecko) Version/15.2 Safari/605.1.15",xpyriment,legacy,legacy,0,uniform,0,0,0,0,24,24,24,0,0,37,37,37,37,37,0,37,0,,,,,,0,,27-01-22,27-01-22,11:26:29,Sun Feb 27 2022 11:26:29 GMT+0100 (CET),The main experiment item,yes,0,0,C:/Users/rrics/Documents/!!ResearchBMECOGSCI/gnet,0,0,0,prototype3.png,no,mono,no,18,no,black,no,no,768,1149,3.5.6,legacy,xpyriment,osweb,1.3.13,0,space,space,space,,49125,19246,49125,,2,legacy,900,1440,24,900,24,0,0,1440,1645957656478,1024,2,48000,-16,experiment,prototype3.png,1,odd,MacIntel,59,131382,128372,58,59,428629,430133,423637,132902,423637,59,,,,,,visual_patterns,0,0,0,yes,1366
undefined,undefined,undefined,undefined,white,no,Mozilla,Netscape,"5.0 (Macintosh; Intel Mac OS X 10_15_7) AppleWebKit/605.1.15 (KHTML, like Gecko) Version/15.2 Safari/605.1.15",xpyriment,legacy,legacy,0,uniform,0,0,0,0,24,24,24,0,0,38,38,38,38,38,0,38,0,,,,,,0,,27-01-22,27-01-22,11:26:29,Sun Feb 27 2022 11:26:29 GMT+0100 (CET),The main experiment item,yes,0,0,C:/Users/rrics/Documents/!!ResearchBMECOGSCI/gnet,0,0,0,prototype3.png,no,mono,no,18,no,black,no,no,768,1149,3.5.6,legacy,xpyriment,osweb,1.3.13,0,space,space,space,,49125,19246,49125,,2,legacy,900,1440,24,900,24,0,0,1440,1645957656478,1024,2,48000,-16,experiment,p7sarr1.png,1,odd,MacIntel,59,131382,128372,58,59,435149,436650,430154,132902,430154,59,,,,,,visual_patterns,0,0,0,yes,1366
undefined,undefined,undefined,undefined,white,no,Mozilla,Netscape,"5.0 (Macintosh; Intel Mac OS X 10_15_7) AppleWebKit/605.1.15 (KHTML, like Gecko) Version/15.2 Safari/605.1.15",xpyriment,legacy,legacy,0,uniform,0,0,0,0,24,24,24,0,0,39,39,39,39,39,0,39,0,,,,,,0,,27-01-22,27-01-22,11:26:29,Sun Feb 27 2022 11:26:29 GMT+0100 (CET),The main experiment item,yes,0,0,C:/Users/rrics/Documents/!!ResearchBMECOGSCI/gnet,0,0,0,prototype3.png,no,mono,no,18,no,black,no,no,768,1149,3.5.6,legacy,xpyriment,osweb,1.3.13,0,space,space,space,,49125,19246,49125,,2,legacy,900,1440,24,900,24,0,0,1440,1645957656478,1024,2,48000,-16,experiment,p1sarrsha1.png,1,odd,MacIntel,59,131382,128372,58,59,441671,443183,436672,132902,436672,59,,,,,,visual_patterns,0,0,0,yes,1366
undefined,undefined,undefined,undefined,white,no,Mozilla,Netscape,"5.0 (Macintosh; Intel Mac OS X 10_15_7) AppleWebKit/605.1.15 (KHTML, like Gecko) Version/15.2 Safari/605.1.15",xpyriment,legacy,legacy,0,uniform,0,0,0,0,24,24,24,0,0,40,40,40,40,40,0,40,0,,,,,,0,,27-01-22,27-01-22,11:26:29,Sun Feb 27 2022 11:26:29 GMT+0100 (CET),The main experiment item,yes,0,0,C:/Users/rrics/Documents/!!ResearchBMECOGSCI/gnet,0,0,0,prototype3.png,no,mono,no,18,no,black,no,no,768,1149,3.5.6,legacy,xpyriment,osweb,1.3.13,0,space,space,space,,49125,19246,49125,,2,legacy,900,1440,24,900,24,0,0,1440,1645957656478,1024,2,48000,-16,experiment,prototype5.png,1,odd,MacIntel,59,131382,128372,58,59,448197,449701,443204,132902,443204,59,,,,,,visual_patterns,0,0,0,yes,1366
undefined,undefined,undefined,undefined,white,no,Mozilla,Netscape,"5.0 (Macintosh; Intel Mac OS X 10_15_7) AppleWebKit/605.1.15 (KHTML, like Gecko) Version/15.2 Safari/605.1.15",xpyriment,legacy,legacy,0,uniform,0,0,0,0,24,24,24,0,0,41,41,41,41,41,0,41,0,,,,,,0,,27-01-22,27-01-22,11:26:29,Sun Feb 27 2022 11:26:29 GMT+0100 (CET),The main experiment item,yes,0,0,C:/Users/rrics/Documents/!!ResearchBMECOGSCI/gnet,0,0,0,prototype3.png,no,mono,no,18,no,black,no,no,768,1149,3.5.6,legacy,xpyriment,osweb,1.3.13,0,space,space,space,,49125,19246,49125,,2,legacy,900,1440,24,900,24,0,0,1440,1645957656478,1024,2,48000,-16,experiment,p3sarrshacol2.png,1,odd,MacIntel,59,131382,128372,58,59,454717,456235,449725,132902,449725,59,,,,,,visual_patterns,0,0,0,yes,1366
undefined,undefined,undefined,undefined,white,no,Mozilla,Netscape,"5.0 (Macintosh; Intel Mac OS X 10_15_7) AppleWebKit/605.1.15 (KHTML, like Gecko) Version/15.2 Safari/605.1.15",xpyriment,legacy,legacy,0,uniform,0,0,0,0,24,24,24,0,0,42,42,42,42,42,0,42,0,,,,,,0,,27-01-22,27-01-22,11:26:29,Sun Feb 27 2022 11:26:29 GMT+0100 (CET),The main experiment item,yes,0,0,C:/Users/rrics/Documents/!!ResearchBMECOGSCI/gnet,0,0,0,prototype3.png,no,mono,no,18,no,black,no,no,768,1149,3.5.6,legacy,xpyriment,osweb,1.3.13,0,space,space,space,,49125,19246,49125,,2,legacy,900,1440,24,900,24,0,0,1440,1645957656478,1024,2,48000,-16,experiment,p3sarrcol2.png,1,odd,MacIntel,59,131382,128372,58,59,461255,462767,456261,132902,456261,59,,,,,,visual_patterns,0,0,0,yes,1366
undefined,undefined,undefined,undefined,white,no,Mozilla,Netscape,"5.0 (Macintosh; Intel Mac OS X 10_15_7) AppleWebKit/605.1.15 (KHTML, like Gecko) Version/15.2 Safari/605.1.15",xpyriment,legacy,legacy,0,uniform,0,0,0,0,24,24,24,0,0,43,43,43,43,43,0,43,0,,,,,,0,,27-01-22,27-01-22,11:26:29,Sun Feb 27 2022 11:26:29 GMT+0100 (CET),The main experiment item,yes,0,0,C:/Users/rrics/Documents/!!ResearchBMECOGSCI/gnet,0,0,0,prototype3.png,no,mono,no,18,no,black,no,no,768,1149,3.5.6,legacy,xpyriment,osweb,1.3.13,0,space,space,space,,49125,19246,49125,,2,legacy,900,1440,24,900,24,0,0,1440,1645957656478,1024,2,48000,-16,experiment,p3sarr2.png,1,odd,MacIntel,59,131382,128372,58,59,467783,469284,462790,132902,462790,59,,,,,,visual_patterns,0,0,0,yes,1366
undefined,undefined,undefined,undefined,white,no,Mozilla,Netscape,"5.0 (Macintosh; Intel Mac OS X 10_15_7) AppleWebKit/605.1.15 (KHTML, like Gecko) Version/15.2 Safari/605.1.15",xpyriment,legacy,legacy,0,uniform,0,0,0,0,24,24,24,0,0,44,44,44,44,44,0,44,0,,,,,,0,,27-01-22,27-01-22,11:26:29,Sun Feb 27 2022 11:26:29 GMT+0100 (CET),The main experiment item,yes,0,0,C:/Users/rrics/Documents/!!ResearchBMECOGSCI/gnet,0,0,0,prototype3.png,no,mono,no,18,no,black,no,no,768,1149,3.5.6,legacy,xpyriment,osweb,1.3.13,0,space,space,space,,49125,19246,49125,,2,legacy,900,1440,24,900,24,0,0,1440,1645957656478,1024,2,48000,-16,experiment,p2sarrsha1.png,1,odd,MacIntel,59,131382,128372,58,59,474302,475818,469305,132902,469305,59,,,,,,visual_patterns,0,0,0,yes,1366
undefined,undefined,undefined,undefined,white,no,Mozilla,Netscape,"5.0 (Macintosh; Intel Mac OS X 10_15_7) AppleWebKit/605.1.15 (KHTML, like Gecko) Version/15.2 Safari/605.1.15",xpyriment,legacy,legacy,0,uniform,0,0,0,0,24,24,24,0,0,45,45,45,45,45,0,45,0,,,,,,0,,27-01-22,27-01-22,11:26:29,Sun Feb 27 2022 11:26:29 GMT+0100 (CET),The main experiment item,yes,0,0,C:/Users/rrics/Documents/!!ResearchBMECOGSCI/gnet,0,0,0,prototype3.png,no,mono,no,18,no,black,no,no,768,1149,3.5.6,legacy,xpyriment,osweb,1.3.13,0,space,space,space,,49125,19246,49125,,2,legacy,900,1440,24,900,24,0,0,1440,1645957656478,1024,2,48000,-16,experiment,p4sarrsha1.png,1,odd,MacIntel,59,131382,128372,58,59,480838,482351,475842,132902,475842,59,,,,,,visual_patterns,0,0,0,yes,1366
undefined,undefined,undefined,undefined,white,no,Mozilla,Netscape,"5.0 (Macintosh; Intel Mac OS X 10_15_7) AppleWebKit/605.1.15 (KHTML, like Gecko) Version/15.2 Safari/605.1.15",xpyriment,legacy,legacy,0,uniform,0,0,0,0,24,24,24,0,0,46,46,46,46,46,0,46,0,,,,,,0,,27-01-22,27-01-22,11:26:29,Sun Feb 27 2022 11:26:29 GMT+0100 (CET),The main experiment item,yes,0,0,C:/Users/rrics/Documents/!!ResearchBMECOGSCI/gnet,0,0,0,prototype3.png,no,mono,no,18,no,black,no,no,768,1149,3.5.6,legacy,xpyriment,osweb,1.3.13,0,space,space,space,,49125,19246,49125,,2,legacy,900,1440,24,900,24,0,0,1440,1645957656478,1024,2,48000,-16,experiment,p1sarrcol1.png,1,odd,MacIntel,59,131382,128372,58,59,487369,488885,482372,132902,482372,59,,,,,,visual_patterns,0,0,0,yes,1366
undefined,undefined,undefined,undefined,white,no,Mozilla,Netscape,"5.0 (Macintosh; Intel Mac OS X 10_15_7) AppleWebKit/605.1.15 (KHTML, like Gecko) Version/15.2 Safari/605.1.15",xpyriment,legacy,legacy,0,uniform,0,0,0,0,24,24,24,0,0,47,47,47,47,47,0,47,0,,,,,,0,,27-01-22,27-01-22,11:26:29,Sun Feb 27 2022 11:26:29 GMT+0100 (CET),The main experiment item,yes,0,0,C:/Users/rrics/Documents/!!ResearchBMECOGSCI/gnet,0,0,0,prototype3.png,no,mono,no,18,no,black,no,no,768,1149,3.5.6,legacy,xpyriment,osweb,1.3.13,0,space,space,space,,49125,19246,49125,,2,legacy,900,1440,24,900,24,0,0,1440,1645957656478,1024,2,48000,-16,experiment,p1sarrsha2.png,1,odd,MacIntel,59,131382,128372,58,59,493900,495418,488906,132902,488906,59,,,,,,visual_patterns,0,0,0,yes,1366
undefined,undefined,undefined,undefined,white,no,Mozilla,Netscape,"5.0 (Macintosh; Intel Mac OS X 10_15_7) AppleWebKit/605.1.15 (KHTML, like Gecko) Version/15.2 Safari/605.1.15",xpyriment,legacy,legacy,0,uniform,0,0,0,0,24,24,24,0,0,48,48,48,48,48,0,48,0,,,,,,0,,27-01-22,27-01-22,11:26:29,Sun Feb 27 2022 11:26:29 GMT+0100 (CET),The main experiment item,yes,0,0,C:/Users/rrics/Documents/!!ResearchBMECOGSCI/gnet,0,0,0,prototype3.png,no,mono,no,18,no,black,no,no,768,1149,3.5.6,legacy,xpyriment,osweb,1.3.13,0,space,space,space,,49125,19246,49125,,2,legacy,900,1440,24,900,24,0,0,1440,1645957656478,1024,2,48000,-16,experiment,p7sarr2.png,1,odd,MacIntel,59,131382,128372,58,59,500433,501935,495440,132902,495440,59,,,,,,visual_patterns,0,0,0,yes,1366
undefined,undefined,undefined,undefined,white,no,Mozilla,Netscape,"5.0 (Macintosh; Intel Mac OS X 10_15_7) AppleWebKit/605.1.15 (KHTML, like Gecko) Version/15.2 Safari/605.1.15",xpyriment,legacy,legacy,0,uniform,0,0,0,0,24,24,24,0,0,49,49,49,49,49,0,49,0,,,,,,0,,27-01-22,27-01-22,11:26:29,Sun Feb 27 2022 11:26:29 GMT+0100 (CET),The main experiment item,yes,0,0,C:/Users/rrics/Documents/!!ResearchBMECOGSCI/gnet,0,0,0,prototype3.png,no,mono,no,18,no,black,no,no,768,1149,3.5.6,legacy,xpyriment,osweb,1.3.13,0,space,space,space,,49125,19246,49125,,2,legacy,900,1440,24,900,24,0,0,1440,1645957656478,1024,2,48000,-16,experiment,p4sarr1.png,1,odd,MacIntel,59,131382,128372,58,59,506956,508469,501958,132902,501958,59,,,,,,visual_patterns,0,0,0,yes,1366
undefined,undefined,undefined,undefined,white,no,Mozilla,Netscape,"5.0 (Macintosh; Intel Mac OS X 10_15_7) AppleWebKit/605.1.15 (KHTML, like Gecko) Version/15.2 Safari/605.1.15",xpyriment,legacy,legacy,0,uniform,0,0,0,0,24,24,24,0,0,50,50,50,50,50,0,50,0,,,,,,0,,27-01-22,27-01-22,11:26:29,Sun Feb 27 2022 11:26:29 GMT+0100 (CET),The main experiment item,yes,0,0,C:/Users/rrics/Documents/!!ResearchBMECOGSCI/gnet,0,0,0,prototype3.png,no,mono,no,18,no,black,no,no,768,1149,3.5.6,legacy,xpyriment,osweb,1.3.13,0,space,space,space,,49125,19246,49125,,2,legacy,900,1440,24,900,24,0,0,1440,1645957656478,1024,2,48000,-16,experiment,p10sarr1.png,1,odd,MacIntel,59,131382,128372,58,59,513488,515002,508491,132902,508491,59,,,,,,visual_patterns,0,0,0,yes,1366
undefined,undefined,undefined,undefined,white,no,Mozilla,Netscape,"5.0 (Macintosh; Intel Mac OS X 10_15_7) AppleWebKit/605.1.15 (KHTML, like Gecko) Version/15.2 Safari/605.1.15",xpyriment,legacy,legacy,0,uniform,0,0,0,0,24,24,24,0,0,51,51,51,51,51,0,51,0,,,,,,0,,27-01-22,27-01-22,11:26:29,Sun Feb 27 2022 11:26:29 GMT+0100 (CET),The main experiment item,yes,0,0,C:/Users/rrics/Documents/!!ResearchBMECOGSCI/gnet,0,0,0,prototype3.png,no,mono,no,18,no,black,no,no,768,1149,3.5.6,legacy,xpyriment,osweb,1.3.13,0,space,space,space,,49125,19246,49125,,2,legacy,900,1440,24,900,24,0,0,1440,1645957656478,1024,2,48000,-16,experiment,prototype3.png,1,odd,MacIntel,59,131382,128372,58,59,520017,521519,515022,132902,515022,59,,,,,,visual_patterns,0,0,0,yes,1366
undefined,undefined,undefined,undefined,white,no,Mozilla,Netscape,"5.0 (Macintosh; Intel Mac OS X 10_15_7) AppleWebKit/605.1.15 (KHTML, like Gecko) Version/15.2 Safari/605.1.15",xpyriment,legacy,legacy,0,uniform,0,0,0,0,24,24,24,0,0,52,52,52,52,52,0,52,0,,,,,,0,,27-01-22,27-01-22,11:26:29,Sun Feb 27 2022 11:26:29 GMT+0100 (CET),The main experiment item,yes,0,0,C:/Users/rrics/Documents/!!ResearchBMECOGSCI/gnet,0,0,0,prototype3.png,no,mono,no,18,no,black,no,no,768,1149,3.5.6,legacy,xpyriment,osweb,1.3.13,0,space,space,space,,49125,19246,49125,,2,legacy,900,1440,24,900,24,0,0,1440,1645957656478,1024,2,48000,-16,experiment,p1sarr1.png,1,odd,MacIntel,59,131382,128372,58,59,526533,528035,521540,132902,521540,59,,,,,,visual_patterns,0,0,0,yes,1366
undefined,undefined,undefined,undefined,white,no,Mozilla,Netscape,"5.0 (Macintosh; Intel Mac OS X 10_15_7) AppleWebKit/605.1.15 (KHTML, like Gecko) Version/15.2 Safari/605.1.15",xpyriment,legacy,legacy,0,uniform,0,0,0,0,24,24,24,0,0,53,53,53,53,53,0,53,0,,,,,,0,,27-01-22,27-01-22,11:26:29,Sun Feb 27 2022 11:26:29 GMT+0100 (CET),The main experiment item,yes,0,0,C:/Users/rrics/Documents/!!ResearchBMECOGSCI/gnet,0,0,0,prototype3.png,no,mono,no,18,no,black,no,no,768,1149,3.5.6,legacy,xpyriment,osweb,1.3.13,0,space,space,space,,49125,19246,49125,,2,legacy,900,1440,24,900,24,0,0,1440,1645957656478,1024,2,48000,-16,experiment,p1sarrcol2.png,1,odd,MacIntel,59,131382,128372,58,59,533053,534569,528056,132902,528056,59,,,,,,visual_patterns,0,0,0,yes,1366
undefined,undefined,undefined,undefined,white,no,Mozilla,Netscape,"5.0 (Macintosh; Intel Mac OS X 10_15_7) AppleWebKit/605.1.15 (KHTML, like Gecko) Version/15.2 Safari/605.1.15",xpyriment,legacy,legacy,0,uniform,0,0,0,0,24,24,24,0,0,54,54,54,54,54,0,54,0,,,,,,0,,27-01-22,27-01-22,11:26:29,Sun Feb 27 2022 11:26:29 GMT+0100 (CET),The main experiment item,yes,0,0,C:/Users/rrics/Documents/!!ResearchBMECOGSCI/gnet,0,0,0,prototype3.png,no,mono,no,18,no,black,no,no,768,1149,3.5.6,legacy,xpyriment,osweb,1.3.13,0,space,space,space,,49125,19246,49125,,2,legacy,900,1440,24,900,24,0,0,1440,1645957656478,1024,2,48000,-16,experiment,p2sarrcol2.png,1,odd,MacIntel,59,131382,128372,58,59,539587,541103,534593,132902,534593,59,,,,,,visual_patterns,0,0,0,yes,1366
undefined,undefined,undefined,undefined,white,no,Mozilla,Netscape,"5.0 (Macintosh; Intel Mac OS X 10_15_7) AppleWebKit/605.1.15 (KHTML, like Gecko) Version/15.2 Safari/605.1.15",xpyriment,legacy,legacy,0,uniform,0,0,0,0,24,24,24,0,0,55,55,55,55,55,0,55,0,,,,,,0,,27-01-22,27-01-22,11:26:29,Sun Feb 27 2022 11:26:29 GMT+0100 (CET),The main experiment item,yes,0,0,C:/Users/rrics/Documents/!!ResearchBMECOGSCI/gnet,0,0,0,prototype3.png,no,mono,no,18,no,black,no,no,768,1149,3.5.6,legacy,xpyriment,osweb,1.3.13,0,space,space,space,,49125,19246,49125,,2,legacy,900,1440,24,900,24,0,0,1440,1645957656478,1024,2,48000,-16,experiment,prototype4.png,1,odd,MacIntel,59,131382,128372,58,59,546117,547619,541121,132902,541121,59,,,,,,visual_patterns,0,0,0,yes,1366
undefined,undefined,undefined,undefined,white,no,Mozilla,Netscape,"5.0 (Macintosh; Intel Mac OS X 10_15_7) AppleWebKit/605.1.15 (KHTML, like Gecko) Version/15.2 Safari/605.1.15",xpyriment,legacy,legacy,0,uniform,0,0,0,0,24,24,24,0,0,56,56,56,56,56,0,56,0,,,,,,0,,27-01-22,27-01-22,11:26:29,Sun Feb 27 2022 11:26:29 GMT+0100 (CET),The main experiment item,yes,0,0,C:/Users/rrics/Documents/!!ResearchBMECOGSCI/gnet,0,0,0,prototype3.png,no,mono,no,18,no,black,no,no,768,1149,3.5.6,legacy,xpyriment,osweb,1.3.13,0,space,space,space,,49125,19246,49125,,2,legacy,900,1440,24,900,24,0,0,1440,1645957656478,1024,2,48000,-16,experiment,p2sarrshacol1.png,1,odd,MacIntel,59,131382,128372,58,59,552639,554153,547642,132902,547642,59,,,,,,visual_patterns,0,0,0,yes,1366
undefined,undefined,undefined,undefined,white,no,Mozilla,Netscape,"5.0 (Macintosh; Intel Mac OS X 10_15_7) AppleWebKit/605.1.15 (KHTML, like Gecko) Version/15.2 Safari/605.1.15",xpyriment,legacy,legacy,0,uniform,0,0,0,0,24,24,24,0,0,57,57,57,57,57,0,57,0,,,,,,0,,27-01-22,27-01-22,11:26:29,Sun Feb 27 2022 11:26:29 GMT+0100 (CET),The main experiment item,yes,0,0,C:/Users/rrics/Documents/!!ResearchBMECOGSCI/gnet,0,0,0,prototype3.png,no,mono,no,18,no,black,no,no,768,1149,3.5.6,legacy,xpyriment,osweb,1.3.13,0,space,space,space,,49125,19246,49125,,2,legacy,900,1440,24,900,24,0,0,1440,1645957656478,1024,2,48000,-16,experiment,prototype5.png,1,odd,MacIntel,59,131382,128372,58,59,559171,560687,554175,132902,554175,59,,,,,,visual_patterns,0,0,0,yes,1366
undefined,undefined,undefined,undefined,white,no,Mozilla,Netscape,"5.0 (Macintosh; Intel Mac OS X 10_15_7) AppleWebKit/605.1.15 (KHTML, like Gecko) Version/15.2 Safari/605.1.15",xpyriment,legacy,legacy,0,uniform,0,0,0,0,24,24,24,0,0,58,58,58,58,58,0,58,0,,,,,,0,,27-01-22,27-01-22,11:26:29,Sun Feb 27 2022 11:26:29 GMT+0100 (CET),The main experiment item,yes,0,0,C:/Users/rrics/Documents/!!ResearchBMECOGSCI/gnet,0,0,0,prototype3.png,no,mono,no,18,no,black,no,no,768,1149,3.5.6,legacy,xpyriment,osweb,1.3.13,0,space,space,space,,49125,19246,49125,,2,legacy,900,1440,24,900,24,0,0,1440,1645957656478,1024,2,48000,-16,experiment,prototype2.png,1,odd,MacIntel,59,131382,128372,58,59,565706,567219,560710,132902,560710,59,,,,,,visual_patterns,0,0,0,yes,1366
undefined,undefined,undefined,undefined,white,no,Mozilla,Netscape,"5.0 (Macintosh; Intel Mac OS X 10_15_7) AppleWebKit/605.1.15 (KHTML, like Gecko) Version/15.2 Safari/605.1.15",xpyriment,legacy,legacy,0,uniform,0,0,0,0,24,24,24,0,0,59,59,59,59,59,0,59,0,,,,,,0,,27-01-22,27-01-22,11:26:29,Sun Feb 27 2022 11:26:29 GMT+0100 (CET),The main experiment item,yes,0,0,C:/Users/rrics/Documents/!!ResearchBMECOGSCI/gnet,0,0,0,prototype3.png,no,mono,no,18,no,black,no,no,768,1149,3.5.6,legacy,xpyriment,osweb,1.3.13,0,space,space,space,,49125,19246,49125,,2,legacy,900,1440,24,900,24,0,0,1440,1645957656478,1024,2,48000,-16,experiment,prototype5.png,1,odd,MacIntel,59,131382,128372,58,59,572234,573736,567238,132902,567238,59,,,,,,visual_patterns,0,0,0,yes,1366
undefined,undefined,undefined,undefined,white,no,Mozilla,Netscape,"5.0 (Macintosh; Intel Mac OS X 10_15_7) AppleWebKit/605.1.15 (KHTML, like Gecko) Version/15.2 Safari/605.1.15",xpyriment,legacy,legacy,0,uniform,0,0,0,0,24,24,24,0,0,60,60,60,60,60,0,60,0,,,,,,0,,27-01-22,27-01-22,11:26:29,Sun Feb 27 2022 11:26:29 GMT+0100 (CET),The main experiment item,yes,0,0,C:/Users/rrics/Documents/!!ResearchBMECOGSCI/gnet,0,0,0,prototype3.png,no,mono,no,18,no,black,no,no,768,1149,3.5.6,legacy,xpyriment,osweb,1.3.13,0,space,space,space,,49125,19246,49125,,2,legacy,900,1440,24,900,24,0,0,1440,1645957656478,1024,2,48000,-16,experiment,p1sarrshacol2.png,1,odd,MacIntel,59,131382,128372,58,59,578757,580270,573762,132902,573762,59,,,,,,visual_patterns,0,0,0,yes,1366
undefined,undefined,undefined,undefined,white,no,Mozilla,Netscape,"5.0 (Macintosh; Intel Mac OS X 10_15_7) AppleWebKit/605.1.15 (KHTML, like Gecko) Version/15.2 Safari/605.1.15",xpyriment,legacy,legacy,0,uniform,0,0,0,0,24,24,24,0,0,61,61,61,61,61,0,61,0,,,,,,0,,27-01-22,27-01-22,11:26:29,Sun Feb 27 2022 11:26:29 GMT+0100 (CET),The main experiment item,yes,0,0,C:/Users/rrics/Documents/!!ResearchBMECOGSCI/gnet,0,0,0,prototype3.png,no,mono,no,18,no,black,no,no,768,1149,3.5.6,legacy,xpyriment,osweb,1.3.13,0,space,space,space,,49125,19246,49125,,2,legacy,900,1440,24,900,24,0,0,1440,1645957656478,1024,2,48000,-16,experiment,p2sarrcol1.png,1,odd,MacIntel,59,131382,128372,58,59,585285,586787,580291,132902,580291,59,,,,,,visual_patterns,0,0,0,yes,1366
undefined,undefined,undefined,undefined,white,no,Mozilla,Netscape,"5.0 (Macintosh; Intel Mac OS X 10_15_7) AppleWebKit/605.1.15 (KHTML, like Gecko) Version/15.2 Safari/605.1.15",xpyriment,legacy,legacy,0,uniform,0,0,0,0,24,24,24,0,0,62,62,62,62,62,0,62,0,,,,,,0,,27-01-22,27-01-22,11:26:29,Sun Feb 27 2022 11:26:29 GMT+0100 (CET),The main experiment item,yes,0,0,C:/Users/rrics/Documents/!!ResearchBMECOGSCI/gnet,0,0,0,prototype3.png,no,mono,no,18,no,black,no,no,768,1149,3.5.6,legacy,xpyriment,osweb,1.3.13,0,space,space,space,,49125,19246,49125,,2,legacy,900,1440,24,900,24,0,0,1440,1645957656478,1024,2,48000,-16,experiment,p5sarr2.png,1,odd,MacIntel,59,131382,128372,58,59,591807,593320,586812,132902,586812,59,,,,,,visual_patterns,0,0,0,yes,1366
undefined,undefined,undefined,undefined,white,no,Mozilla,Netscape,"5.0 (Macintosh; Intel Mac OS X 10_15_7) AppleWebKit/605.1.15 (KHTML, like Gecko) Version/15.2 Safari/605.1.15",xpyriment,legacy,legacy,0,uniform,0,0,0,0,24,24,24,0,0,63,63,63,63,63,0,63,0,,,,,,0,,27-01-22,27-01-22,11:26:29,Sun Feb 27 2022 11:26:29 GMT+0100 (CET),The main experiment item,yes,0,0,C:/Users/rrics/Documents/!!ResearchBMECOGSCI/gnet,0,0,0,prototype3.png,no,mono,no,18,no,black,no,no,768,1149,3.5.6,legacy,xpyriment,osweb,1.3.13,0,space,space,space,,49125,19246,49125,,2,legacy,900,1440,24,900,24,0,0,1440,1645957656478,1024,2,48000,-16,experiment,p10sarr2.png,1,odd,MacIntel,59,131382,128372,58,59,598338,599854,593342,132902,593342,59,,,,,,visual_patterns,0,0,0,yes,1366
undefined,undefined,undefined,undefined,white,no,Mozilla,Netscape,"5.0 (Macintosh; Intel Mac OS X 10_15_7) AppleWebKit/605.1.15 (KHTML, like Gecko) Version/15.2 Safari/605.1.15",xpyriment,legacy,legacy,0,uniform,0,0,0,0,24,24,24,0,0,64,64,64,64,64,0,64,0,,,,,,0,,27-01-22,27-01-22,11:26:29,Sun Feb 27 2022 11:26:29 GMT+0100 (CET),The main experiment item,yes,0,0,C:/Users/rrics/Documents/!!ResearchBMECOGSCI/gnet,0,0,0,prototype3.png,no,mono,no,18,no,black,no,no,768,1149,3.5.6,legacy,xpyriment,osweb,1.3.13,0,space,space,space,,49125,19246,49125,,2,legacy,900,1440,24,900,24,0,0,1440,1645957656478,1024,2,48000,-16,experiment,prototype1.png,1,odd,MacIntel,59,131382,128372,58,59,604871,606388,599875,132902,599875,59,,,,,,visual_patterns,0,0,0,yes,1366
undefined,undefined,undefined,undefined,white,no,Mozilla,Netscape,"5.0 (Macintosh; Intel Mac OS X 10_15_7) AppleWebKit/605.1.15 (KHTML, like Gecko) Version/15.2 Safari/605.1.15",xpyriment,legacy,legacy,0,uniform,0,0,0,0,24,24,24,0,0,65,65,65,65,65,0,65,0,,,,,,0,,27-01-22,27-01-22,11:26:29,Sun Feb 27 2022 11:26:29 GMT+0100 (CET),The main experiment item,yes,0,0,C:/Users/rrics/Documents/!!ResearchBMECOGSCI/gnet,0,0,0,prototype3.png,no,mono,no,18,no,black,no,no,768,1149,3.5.6,legacy,xpyriment,osweb,1.3.13,0,space,space,space,,49125,19246,49125,,2,legacy,900,1440,24,900,24,0,0,1440,1645957656478,1024,2,48000,-16,experiment,prototype4.png,1,odd,MacIntel,59,131382,128372,58,59,611406,612921,606410,132902,606410,59,,,,,,visual_patterns,0,0,0,yes,1366
undefined,undefined,undefined,undefined,white,no,Mozilla,Netscape,"5.0 (Macintosh; Intel Mac OS X 10_15_7) AppleWebKit/605.1.15 (KHTML, like Gecko) Version/15.2 Safari/605.1.15",xpyriment,legacy,legacy,0,uniform,0,0,0,0,24,24,24,0,0,66,66,66,66,66,0,66,0,,,,,,0,,27-01-22,27-01-22,11:26:29,Sun Feb 27 2022 11:26:29 GMT+0100 (CET),The main experiment item,yes,0,0,C:/Users/rrics/Documents/!!ResearchBMECOGSCI/gnet,0,0,0,prototype3.png,no,mono,no,18,no,black,no,no,768,1149,3.5.6,legacy,xpyriment,osweb,1.3.13,0,space,space,space,,49125,19246,49125,,2,legacy,900,1440,24,900,24,0,0,1440,1645957656478,1024,2,48000,-16,experiment,p2sarrshacol2.png,1,odd,MacIntel,59,131382,128372,58,59,617940,619455,612943,132902,612943,59,,,,,,visual_patterns,0,0,0,yes,1366
undefined,undefined,undefined,undefined,white,no,Mozilla,Netscape,"5.0 (Macintosh; Intel Mac OS X 10_15_7) AppleWebKit/605.1.15 (KHTML, like Gecko) Version/15.2 Safari/605.1.15",xpyriment,legacy,legacy,0,uniform,0,0,0,0,24,24,24,0,0,67,67,67,67,67,0,67,0,,,,,,0,,27-01-22,27-01-22,11:26:29,Sun Feb 27 2022 11:26:29 GMT+0100 (CET),The main experiment item,yes,0,0,C:/Users/rrics/Documents/!!ResearchBMECOGSCI/gnet,0,0,0,prototype3.png,no,mono,no,18,no,black,no,no,768,1149,3.5.6,legacy,xpyriment,osweb,1.3.13,0,space,space,space,,49125,19246,49125,,2,legacy,900,1440,24,900,24,0,0,1440,1645957656478,1024,2,48000,-16,experiment,p1sarr2.png,1,odd,MacIntel,59,131382,128372,58,59,624473,625988,619479,132902,619479,59,,,,,,visual_patterns,0,0,0,yes,1366
undefined,undefined,undefined,undefined,white,no,Mozilla,Netscape,"5.0 (Macintosh; Intel Mac OS X 10_15_7) AppleWebKit/605.1.15 (KHTML, like Gecko) Version/15.2 Safari/605.1.15",xpyriment,legacy,legacy,0,uniform,0,0,0,0,24,24,24,0,0,68,68,68,68,68,0,68,0,,,,,,0,,27-01-22,27-01-22,11:26:29,Sun Feb 27 2022 11:26:29 GMT+0100 (CET),The main experiment item,yes,0,0,C:/Users/rrics/Documents/!!ResearchBMECOGSCI/gnet,0,0,0,prototype3.png,no,mono,no,18,no,black,no,no,768,1149,3.5.6,legacy,xpyriment,osweb,1.3.13,0,space,space,space,,49125,19246,49125,,2,legacy,900,1440,24,900,24,0,0,1440,1645957656478,1024,2,48000,-16,experiment,p6sarr2.png,1,odd,MacIntel,59,131382,128372,58,59,631007,632521,626011,132902,626011,59,,,,,,visual_patterns,0,0,0,yes,1366
undefined,undefined,undefined,undefined,white,no,Mozilla,Netscape,"5.0 (Macintosh; Intel Mac OS X 10_15_7) AppleWebKit/605.1.15 (KHTML, like Gecko) Version/15.2 Safari/605.1.15",xpyriment,legacy,legacy,0,uniform,0,0,0,0,24,24,24,0,0,69,69,69,69,69,0,69,0,,,,,,0,,27-01-22,27-01-22,11:26:29,Sun Feb 27 2022 11:26:29 GMT+0100 (CET),The main experiment item,yes,0,0,C:/Users/rrics/Documents/!!ResearchBMECOGSCI/gnet,0,0,0,prototype3.png,no,mono,no,18,no,black,no,no,768,1149,3.5.6,legacy,xpyriment,osweb,1.3.13,0,space,space,space,,49125,19246,49125,,2,legacy,900,1440,24,900,24,0,0,1440,1645957656478,1024,2,48000,-16,experiment,prototype2.png,1,odd,MacIntel,59,131382,128372,58,59,637533,639038,632541,132902,632541,59,,,,,,visual_patterns,0,0,0,yes,1366
undefined,undefined,undefined,undefined,white,no,Mozilla,Netscape,"5.0 (Macintosh; Intel Mac OS X 10_15_7) AppleWebKit/605.1.15 (KHTML, like Gecko) Version/15.2 Safari/605.1.15",xpyriment,legacy,legacy,0,uniform,0,0,0,0,24,24,24,0,0,70,70,70,70,70,0,70,0,,,,,,0,,27-01-22,27-01-22,11:26:29,Sun Feb 27 2022 11:26:29 GMT+0100 (CET),The main experiment item,yes,0,0,C:/Users/rrics/Documents/!!ResearchBMECOGSCI/gnet,0,0,0,prototype3.png,no,mono,no,18,no,black,no,no,768,1149,3.5.6,legacy,xpyriment,osweb,1.3.13,0,space,space,space,,49125,19246,49125,,2,legacy,900,1440,24,900,24,0,0,1440,1645957656478,1024,2,48000,-16,experiment,p1sarrshacol1.png,1,odd,MacIntel,59,131382,128372,58,59,644056,645571,639061,132902,639061,59,,,,,,visual_patterns,0,0,0,yes,1366
undefined,undefined,undefined,undefined,white,no,Mozilla,Netscape,"5.0 (Macintosh; Intel Mac OS X 10_15_7) AppleWebKit/605.1.15 (KHTML, like Gecko) Version/15.2 Safari/605.1.15",xpyriment,legacy,legacy,0,uniform,0,0,0,0,24,24,24,0,0,71,71,71,71,71,0,71,0,,,,,,0,,27-01-22,27-01-22,11:26:29,Sun Feb 27 2022 11:26:29 GMT+0100 (CET),The main experiment item,yes,0,0,C:/Users/rrics/Documents/!!ResearchBMECOGSCI/gnet,0,0,0,prototype3.png,no,mono,no,18,no,black,no,no,768,1149,3.5.6,legacy,xpyriment,osweb,1.3.13,0,space,space,space,,49125,19246,49125,,2,legacy,900,1440,24,900,24,0,0,1440,1645957656478,1024,2,48000,-16,experiment,prototype1.png,1,odd,MacIntel,59,131382,128372,58,59,650587,652089,645591,132902,645591,59,,,,,,visual_patterns,0,0,0,yes,1366
undefined,undefined,undefined,undefined,white,no,Mozilla,Netscape,"5.0 (Macintosh; Intel Mac OS X 10_15_7) AppleWebKit/605.1.15 (KHTML, like Gecko) Version/15.2 Safari/605.1.15",xpyriment,legacy,legacy,0,uniform,0,0,0,0,24,24,24,0,0,72,72,72,72,72,0,72,0,,,,,,0,,27-01-22,27-01-22,11:26:29,Sun Feb 27 2022 11:26:29 GMT+0100 (CET),The main experiment item,yes,0,0,C:/Users/rrics/Documents/!!ResearchBMECOGSCI/gnet,0,0,0,prototype3.png,no,mono,no,18,no,black,no,no,768,1149,3.5.6,legacy,xpyriment,osweb,1.3.13,0,space,space,space,,49125,19246,49125,,2,legacy,900,1440,24,900,24,0,0,1440,1645957656478,1024,2,48000,-16,experiment,prototype5.png,1,odd,MacIntel,59,131382,128372,58,59,657102,658606,652108,132902,652108,59,,,,,,visual_patterns,0,0,0,yes,1366
undefined,undefined,undefined,undefined,white,no,Mozilla,Netscape,"5.0 (Macintosh; Intel Mac OS X 10_15_7) AppleWebKit/605.1.15 (KHTML, like Gecko) Version/15.2 Safari/605.1.15",xpyriment,legacy,legacy,0,uniform,0,0,0,0,24,24,24,0,0,73,73,73,73,73,0,73,0,,,,,,0,,27-01-22,27-01-22,11:26:29,Sun Feb 27 2022 11:26:29 GMT+0100 (CET),The main experiment item,yes,0,0,C:/Users/rrics/Documents/!!ResearchBMECOGSCI/gnet,0,0,0,prototype3.png,no,mono,no,18,no,black,no,no,768,1149,3.5.6,legacy,xpyriment,osweb,1.3.13,0,space,space,space,,49125,19246,49125,,2,legacy,900,1440,24,900,24,0,0,1440,1645957656478,1024,2,48000,-16,experiment,prototype3.png,1,odd,MacIntel,59,131382,128372,58,59,663620,665123,658626,132902,658626,59,,,,,,visual_patterns,0,0,0,yes,1366
undefined,undefined,undefined,undefined,white,no,Mozilla,Netscape,"5.0 (Macintosh; Intel Mac OS X 10_15_7) AppleWebKit/605.1.15 (KHTML, like Gecko) Version/15.2 Safari/605.1.15",xpyriment,legacy,legacy,0,uniform,0,0,0,0,24,24,24,0,0,74,74,74,74,74,0,74,0,,,,,,0,,27-01-22,27-01-22,11:26:29,Sun Feb 27 2022 11:26:29 GMT+0100 (CET),The main experiment item,yes,0,0,C:/Users/rrics/Documents/!!ResearchBMECOGSCI/gnet,0,0,0,prototype3.png,no,mono,no,18,no,black,no,no,768,1149,3.5.6,legacy,xpyriment,osweb,1.3.13,0,space,space,space,,49125,19246,49125,,2,legacy,900,1440,24,900,24,0,0,1440,1645957656478,1024,2,48000,-16,experiment,prototype2.png,1,odd,MacIntel,59,131382,128372,58,59,670141,671656,665145,132902,665145,59,,,,,,visual_patterns,0,0,0,yes,1366
undefined,undefined,undefined,undefined,white,no,Mozilla,Netscape,"5.0 (Macintosh; Intel Mac OS X 10_15_7) AppleWebKit/605.1.15 (KHTML, like Gecko) Version/15.2 Safari/605.1.15",xpyriment,legacy,legacy,0,uniform,0,0,0,0,24,24,24,0,0,74,74,74,74,74,0,74,0,0,0,0,0,0,0,0,27-01-22,27-01-22,11:26:29,Sun Feb 27 2022 11:26:29 GMT+0100 (CET),The main experiment item,yes,0,0,C:/Users/rrics/Documents/!!ResearchBMECOGSCI/gnet,0,0,0,prototype3.png,no,mono,no,18,no,black,no,no,768,1149,3.5.6,legacy,xpyriment,osweb,1.3.13,0,space,space,space,space,32356,19246,49125,32356,2,legacy,900,1440,24,900,24,0,0,1440,1645957656478,1024,2,48000,-16,experiment,p5sarrsha3.png,1,odd,MacIntel,59,131382,128372,58,59,670141,671656,665145,132902,665145,59,707060,708574,704068,671668,704068,visual_patterns,0,0,0,yes,1366
undefined,undefined,undefined,undefined,white,no,Mozilla,Netscape,"5.0 (Macintosh; Intel Mac OS X 10_15_7) AppleWebKit/605.1.15 (KHTML, like Gecko) Version/15.2 Safari/605.1.15",xpyriment,legacy,legacy,0,uniform,0,0,0,0,24,24,24,0,0,74,74,74,74,74,0,74,0,1,1,1,1,1,0,1,27-01-22,27-01-22,11:26:29,Sun Feb 27 2022 11:26:29 GMT+0100 (CET),The main experiment item,yes,0,0,C:/Users/rrics/Documents/!!ResearchBMECOGSCI/gnet,0,0,0,prototype3.png,no,mono,no,18,no,black,no,no,768,1149,3.5.6,legacy,xpyriment,osweb,1.3.13,0,space,space,space,space,32356,19246,49125,32356,2,legacy,900,1440,24,900,24,0,0,1440,1645957656478,1024,2,48000,-16,experiment,p2sarrshacol1.png,1,odd,MacIntel,59,131382,128372,58,59,670141,671656,665145,132902,665145,59,711590,713107,708597,671668,708597,visual_patterns,0,0,0,yes,1366
undefined,undefined,undefined,undefined,white,no,Mozilla,Netscape,"5.0 (Macintosh; Intel Mac OS X 10_15_7) AppleWebKit/605.1.15 (KHTML, like Gecko) Version/15.2 Safari/605.1.15",xpyriment,legacy,legacy,0,uniform,0,0,0,0,24,24,24,0,0,74,74,74,74,74,0,74,0,2,2,2,2,2,0,2,27-01-22,27-01-22,11:26:29,Sun Feb 27 2022 11:26:29 GMT+0100 (CET),The main experiment item,yes,0,0,C:/Users/rrics/Documents/!!ResearchBMECOGSCI/gnet,0,0,0,prototype3.png,no,mono,no,18,no,black,no,no,768,1149,3.5.6,legacy,xpyriment,osweb,1.3.13,0,space,space,space,space,32356,19246,49125,32356,2,legacy,900,1440,24,900,24,0,0,1440,1645957656478,1024,2,48000,-16,experiment,p4sarr4.png,1,odd,MacIntel,59,131382,128372,58,59,670141,671656,665145,132902,665145,59,716126,717640,713132,671668,713132,visual_patterns,0,0,0,yes,1366
undefined,undefined,undefined,undefined,white,no,Mozilla,Netscape,"5.0 (Macintosh; Intel Mac OS X 10_15_7) AppleWebKit/605.1.15 (KHTML, like Gecko) Version/15.2 Safari/605.1.15",xpyriment,legacy,legacy,0,uniform,0,0,0,0,24,24,24,0,0,74,74,74,74,74,0,74,0,3,3,3,3,3,0,3,27-01-22,27-01-22,11:26:29,Sun Feb 27 2022 11:26:29 GMT+0100 (CET),The main experiment item,yes,0,0,C:/Users/rrics/Documents/!!ResearchBMECOGSCI/gnet,0,0,0,prototype3.png,no,mono,no,18,no,black,no,no,768,1149,3.5.6,legacy,xpyriment,osweb,1.3.13,0,space,space,space,space,32356,19246,49125,32356,2,legacy,900,1440,24,900,24,0,0,1440,1645957656478,1024,2,48000,-16,experiment,p5sarrsha2.png,1,odd,MacIntel,59,131382,128372,58,59,670141,671656,665145,132902,665145,59,720660,722174,717665,671668,717665,visual_patterns,0,0,0,yes,1366
undefined,undefined,undefined,undefined,white,no,Mozilla,Netscape,"5.0 (Macintosh; Intel Mac OS X 10_15_7) AppleWebKit/605.1.15 (KHTML, like Gecko) Version/15.2 Safari/605.1.15",xpyriment,legacy,legacy,0,uniform,0,0,0,0,24,24,24,0,0,74,74,74,74,74,0,74,0,4,4,4,4,4,0,4,27-01-22,27-01-22,11:26:29,Sun Feb 27 2022 11:26:29 GMT+0100 (CET),The main experiment item,yes,0,0,C:/Users/rrics/Documents/!!ResearchBMECOGSCI/gnet,0,0,0,prototype3.png,no,mono,no,18,no,black,no,no,768,1149,3.5.6,legacy,xpyriment,osweb,1.3.13,0,space,space,space,space,32356,19246,49125,32356,2,legacy,900,1440,24,900,24,0,0,1440,1645957656478,1024,2,48000,-16,experiment,p7sarr2.png,1,odd,MacIntel,59,131382,128372,58,59,670141,671656,665145,132902,665145,59,725190,726707,722198,671668,722198,visual_patterns,0,0,0,yes,1366
undefined,undefined,undefined,undefined,white,no,Mozilla,Netscape,"5.0 (Macintosh; Intel Mac OS X 10_15_7) AppleWebKit/605.1.15 (KHTML, like Gecko) Version/15.2 Safari/605.1.15",xpyriment,legacy,legacy,0,uniform,0,0,0,0,24,24,24,0,0,74,74,74,74,74,0,74,0,5,5,5,5,5,0,5,27-01-22,27-01-22,11:26:29,Sun Feb 27 2022 11:26:29 GMT+0100 (CET),The main experiment item,yes,0,0,C:/Users/rrics/Documents/!!ResearchBMECOGSCI/gnet,0,0,0,prototype3.png,no,mono,no,18,no,black,no,no,768,1149,3.5.6,legacy,xpyriment,osweb,1.3.13,0,space,space,space,space,32356,19246,49125,32356,2,legacy,900,1440,24,900,24,0,0,1440,1645957656478,1024,2,48000,-16,experiment,p1sarrsha4.png,1,odd,MacIntel,59,131382,128372,58,59,670141,671656,665145,132902,665145,59,729725,731241,726732,671668,726732,visual_patterns,0,0,0,yes,1366
undefined,undefined,undefined,undefined,white,no,Mozilla,Netscape,"5.0 (Macintosh; Intel Mac OS X 10_15_7) AppleWebKit/605.1.15 (KHTML, like Gecko) Version/15.2 Safari/605.1.15",xpyriment,legacy,legacy,0,uniform,0,0,0,0,24,24,24,0,0,74,74,74,74,74,0,74,0,6,6,6,6,6,0,6,27-01-22,27-01-22,11:26:29,Sun Feb 27 2022 11:26:29 GMT+0100 (CET),The main experiment item,yes,0,0,C:/Users/rrics/Documents/!!ResearchBMECOGSCI/gnet,0,0,0,prototype3.png,no,mono,no,18,no,black,no,no,768,1149,3.5.6,legacy,xpyriment,osweb,1.3.13,0,space,space,space,space,32356,19246,49125,32356,2,legacy,900,1440,24,900,24,0,0,1440,1645957656478,1024,2,48000,-16,experiment,p3sarrcol2.png,1,odd,MacIntel,59,131382,128372,58,59,670141,671656,665145,132902,665145,59,734254,735757,731262,671668,731262,visual_patterns,0,0,0,yes,1366
undefined,undefined,undefined,undefined,white,no,Mozilla,Netscape,"5.0 (Macintosh; Intel Mac OS X 10_15_7) AppleWebKit/605.1.15 (KHTML, like Gecko) Version/15.2 Safari/605.1.15",xpyriment,legacy,legacy,0,uniform,0,0,0,0,24,24,24,0,0,74,74,74,74,74,0,74,0,7,7,7,7,7,0,7,27-01-22,27-01-22,11:26:29,Sun Feb 27 2022 11:26:29 GMT+0100 (CET),The main experiment item,yes,0,0,C:/Users/rrics/Documents/!!ResearchBMECOGSCI/gnet,0,0,0,prototype3.png,no,mono,no,18,no,black,no,no,768,1149,3.5.6,legacy,xpyriment,osweb,1.3.13,0,space,space,space,space,32356,19246,49125,32356,2,legacy,900,1440,24,900,24,0,0,1440,1645957656478,1024,2,48000,-16,experiment,p3sarrcol3.png,1,odd,MacIntel,59,131382,128372,58,59,670141,671656,665145,132902,665145,59,738774,740291,735781,671668,735781,visual_patterns,0,0,0,yes,1366
undefined,undefined,undefined,undefined,white,no,Mozilla,Netscape,"5.0 (Macintosh; Intel Mac OS X 10_15_7) AppleWebKit/605.1.15 (KHTML, like Gecko) Version/15.2 Safari/605.1.15",xpyriment,legacy,legacy,0,uniform,0,0,0,0,24,24,24,0,0,74,74,74,74,74,0,74,0,8,8,8,8,8,0,8,27-01-22,27-01-22,11:26:29,Sun Feb 27 2022 11:26:29 GMT+0100 (CET),The main experiment item,yes,0,0,C:/Users/rrics/Documents/!!ResearchBMECOGSCI/gnet,0,0,0,prototype3.png,no,mono,no,18,no,black,no,no,768,1149,3.5.6,legacy,xpyriment,osweb,1.3.13,0,space,space,space,space,32356,19246,49125,32356,2,legacy,900,1440,24,900,24,0,0,1440,1645957656478,1024,2,48000,-16,experiment,p1sarrsha1.png,1,odd,MacIntel,59,131382,128372,58,59,670141,671656,665145,132902,665145,59,743310,744824,740316,671668,740316,visual_patterns,0,0,0,yes,1366
undefined,undefined,undefined,undefined,white,no,Mozilla,Netscape,"5.0 (Macintosh; Intel Mac OS X 10_15_7) AppleWebKit/605.1.15 (KHTML, like Gecko) Version/15.2 Safari/605.1.15",xpyriment,legacy,legacy,0,uniform,0,0,0,0,24,24,24,0,0,74,74,74,74,74,0,74,0,9,9,9,9,9,0,9,27-01-22,27-01-22,11:26:29,Sun Feb 27 2022 11:26:29 GMT+0100 (CET),The main experiment item,yes,0,0,C:/Users/rrics/Documents/!!ResearchBMECOGSCI/gnet,0,0,0,prototype3.png,no,mono,no,18,no,black,no,no,768,1149,3.5.6,legacy,xpyriment,osweb,1.3.13,0,space,space,space,space,32356,19246,49125,32356,2,legacy,900,1440,24,900,24,0,0,1440,1645957656478,1024,2,48000,-16,experiment,p4sarr1.png,1,odd,MacIntel,59,131382,128372,58,59,670141,671656,665145,132902,665145,59,747840,749341,744846,671668,744846,visual_patterns,0,0,0,yes,1366
undefined,undefined,undefined,undefined,white,no,Mozilla,Netscape,"5.0 (Macintosh; Intel Mac OS X 10_15_7) AppleWebKit/605.1.15 (KHTML, like Gecko) Version/15.2 Safari/605.1.15",xpyriment,legacy,legacy,0,uniform,0,0,0,0,24,24,24,0,0,74,74,74,74,74,0,74,0,10,10,10,10,10,0,10,27-01-22,27-01-22,11:26:29,Sun Feb 27 2022 11:26:29 GMT+0100 (CET),The main experiment item,yes,0,0,C:/Users/rrics/Documents/!!ResearchBMECOGSCI/gnet,0,0,0,prototype3.png,no,mono,no,18,no,black,no,no,768,1149,3.5.6,legacy,xpyriment,osweb,1.3.13,0,space,space,space,space,32356,19246,49125,32356,2,legacy,900,1440,24,900,24,0,0,1440,1645957656478,1024,2,48000,-16,experiment,p9sarr2.png,1,odd,MacIntel,59,131382,128372,58,59,670141,671656,665145,132902,665145,59,752357,753858,749363,671668,749363,visual_patterns,0,0,0,yes,1366
undefined,undefined,undefined,undefined,white,no,Mozilla,Netscape,"5.0 (Macintosh; Intel Mac OS X 10_15_7) AppleWebKit/605.1.15 (KHTML, like Gecko) Version/15.2 Safari/605.1.15",xpyriment,legacy,legacy,0,uniform,0,0,0,0,24,24,24,0,0,74,74,74,74,74,0,74,0,11,11,11,11,11,0,11,27-01-22,27-01-22,11:26:29,Sun Feb 27 2022 11:26:29 GMT+0100 (CET),The main experiment item,yes,0,0,C:/Users/rrics/Documents/!!ResearchBMECOGSCI/gnet,0,0,0,prototype3.png,no,mono,no,18,no,black,no,no,768,1149,3.5.6,legacy,xpyriment,osweb,1.3.13,0,space,space,space,space,32356,19246,49125,32356,2,legacy,900,1440,24,900,24,0,0,1440,1645957656478,1024,2,48000,-16,experiment,p1sarr2.png,1,odd,MacIntel,59,131382,128372,58,59,670141,671656,665145,132902,665145,59,756869,758375,753879,671668,753879,visual_patterns,0,0,0,yes,1366
undefined,undefined,undefined,undefined,white,no,Mozilla,Netscape,"5.0 (Macintosh; Intel Mac OS X 10_15_7) AppleWebKit/605.1.15 (KHTML, like Gecko) Version/15.2 Safari/605.1.15",xpyriment,legacy,legacy,0,uniform,0,0,0,0,24,24,24,0,0,74,74,74,74,74,0,74,0,12,12,12,12,12,0,12,27-01-22,27-01-22,11:26:29,Sun Feb 27 2022 11:26:29 GMT+0100 (CET),The main experiment item,yes,0,0,C:/Users/rrics/Documents/!!ResearchBMECOGSCI/gnet,0,0,0,prototype3.png,no,mono,no,18,no,black,no,no,768,1149,3.5.6,legacy,xpyriment,osweb,1.3.13,0,space,space,space,space,32356,19246,49125,32356,2,legacy,900,1440,24,900,24,0,0,1440,1645957656478,1024,2,48000,-16,experiment,p3sarrcol4.png,1,odd,MacIntel,59,131382,128372,58,59,670141,671656,665145,132902,665145,59,761393,762908,758399,671668,758399,visual_patterns,0,0,0,yes,1366
undefined,undefined,undefined,undefined,white,no,Mozilla,Netscape,"5.0 (Macintosh; Intel Mac OS X 10_15_7) AppleWebKit/605.1.15 (KHTML, like Gecko) Version/15.2 Safari/605.1.15",xpyriment,legacy,legacy,0,uniform,0,0,0,0,24,24,24,0,0,74,74,74,74,74,0,74,0,13,13,13,13,13,0,13,27-01-22,27-01-22,11:26:29,Sun Feb 27 2022 11:26:29 GMT+0100 (CET),The main experiment item,yes,0,0,C:/Users/rrics/Documents/!!ResearchBMECOGSCI/gnet,0,0,0,prototype3.png,no,mono,no,18,no,black,no,no,768,1149,3.5.6,legacy,xpyriment,osweb,1.3.13,0,space,space,space,space,32356,19246,49125,32356,2,legacy,900,1440,24,900,24,0,0,1440,1645957656478,1024,2,48000,-16,experiment,p2sarrshacol2.png,1,odd,MacIntel,59,131382,128372,58,59,670141,671656,665145,132902,665145,59,765924,767442,762932,671668,762932,visual_patterns,0,0,0,yes,1366
undefined,undefined,undefined,undefined,white,no,Mozilla,Netscape,"5.0 (Macintosh; Intel Mac OS X 10_15_7) AppleWebKit/605.1.15 (KHTML, like Gecko) Version/15.2 Safari/605.1.15",xpyriment,legacy,legacy,0,uniform,0,0,0,0,24,24,24,0,0,74,74,74,74,74,0,74,0,14,14,14,14,14,0,14,27-01-22,27-01-22,11:26:29,Sun Feb 27 2022 11:26:29 GMT+0100 (CET),The main experiment item,yes,0,0,C:/Users/rrics/Documents/!!ResearchBMECOGSCI/gnet,0,0,0,prototype3.png,no,mono,no,18,no,black,no,no,768,1149,3.5.6,legacy,xpyriment,osweb,1.3.13,0,space,space,space,space,32356,19246,49125,32356,2,legacy,900,1440,24,900,24,0,0,1440,1645957656478,1024,2,48000,-16,experiment,p6sarr1.png,1,odd,MacIntel,59,131382,128372,58,59,670141,671656,665145,132902,665145,59,770459,771975,767463,671668,767463,visual_patterns,0,0,0,yes,1366
undefined,undefined,undefined,undefined,white,no,Mozilla,Netscape,"5.0 (Macintosh; Intel Mac OS X 10_15_7) AppleWebKit/605.1.15 (KHTML, like Gecko) Version/15.2 Safari/605.1.15",xpyriment,legacy,legacy,0,uniform,0,0,0,0,24,24,24,0,0,74,74,74,74,74,0,74,0,15,15,15,15,15,0,15,27-01-22,27-01-22,11:26:29,Sun Feb 27 2022 11:26:29 GMT+0100 (CET),The main experiment item,yes,0,0,C:/Users/rrics/Documents/!!ResearchBMECOGSCI/gnet,0,0,0,prototype3.png,no,mono,no,18,no,black,no,no,768,1149,3.5.6,legacy,xpyriment,osweb,1.3.13,0,space,space,space,space,32356,19246,49125,32356,2,legacy,900,1440,24,900,24,0,0,1440,1645957656478,1024,2,48000,-16,experiment,p4sarrshacol3.png,1,odd,MacIntel,59,131382,128372,58,59,670141,671656,665145,132902,665145,59,774990,776492,771999,671668,771999,visual_patterns,0,0,0,yes,1366
undefined,undefined,undefined,undefined,white,no,Mozilla,Netscape,"5.0 (Macintosh; Intel Mac OS X 10_15_7) AppleWebKit/605.1.15 (KHTML, like Gecko) Version/15.2 Safari/605.1.15",xpyriment,legacy,legacy,0,uniform,0,0,0,0,24,24,24,0,0,74,74,74,74,74,0,74,0,16,16,16,16,16,0,16,27-01-22,27-01-22,11:26:29,Sun Feb 27 2022 11:26:29 GMT+0100 (CET),The main experiment item,yes,0,0,C:/Users/rrics/Documents/!!ResearchBMECOGSCI/gnet,0,0,0,prototype3.png,no,mono,no,18,no,black,no,no,768,1149,3.5.6,legacy,xpyriment,osweb,1.3.13,0,space,space,space,space,32356,19246,49125,32356,2,legacy,900,1440,24,900,24,0,0,1440,1645957656478,1024,2,48000,-16,experiment,p4sarrshacol4.png,1,odd,MacIntel,59,131382,128372,58,59,670141,671656,665145,132902,665145,59,779510,781025,776516,671668,776516,visual_patterns,0,0,0,yes,1366
undefined,undefined,undefined,undefined,white,no,Mozilla,Netscape,"5.0 (Macintosh; Intel Mac OS X 10_15_7) AppleWebKit/605.1.15 (KHTML, like Gecko) Version/15.2 Safari/605.1.15",xpyriment,legacy,legacy,0,uniform,0,0,0,0,24,24,24,0,0,74,74,74,74,74,0,74,0,17,17,17,17,17,0,17,27-01-22,27-01-22,11:26:29,Sun Feb 27 2022 11:26:29 GMT+0100 (CET),The main experiment item,yes,0,0,C:/Users/rrics/Documents/!!ResearchBMECOGSCI/gnet,0,0,0,prototype3.png,no,mono,no,18,no,black,no,no,768,1149,3.5.6,legacy,xpyriment,osweb,1.3.13,0,space,space,space,space,32356,19246,49125,32356,2,legacy,900,1440,24,900,24,0,0,1440,1645957656478,1024,2,48000,-16,experiment,p2sarrcol1.png,1,odd,MacIntel,59,131382,128372,58,59,670141,671656,665145,132902,665145,59,784042,785559,781048,671668,781048,visual_patterns,0,0,0,yes,1366
undefined,undefined,undefined,undefined,white,no,Mozilla,Netscape,"5.0 (Macintosh; Intel Mac OS X 10_15_7) AppleWebKit/605.1.15 (KHTML, like Gecko) Version/15.2 Safari/605.1.15",xpyriment,legacy,legacy,0,uniform,0,0,0,0,24,24,24,0,0,74,74,74,74,74,0,74,0,18,18,18,18,18,0,18,27-01-22,27-01-22,11:26:29,Sun Feb 27 2022 11:26:29 GMT+0100 (CET),The main experiment item,yes,0,0,C:/Users/rrics/Documents/!!ResearchBMECOGSCI/gnet,0,0,0,prototype3.png,no,mono,no,18,no,black,no,no,768,1149,3.5.6,legacy,xpyriment,osweb,1.3.13,0,space,space,space,space,32356,19246,49125,32356,2,legacy,900,1440,24,900,24,0,0,1440,1645957656478,1024,2,48000,-16,experiment,p1sarr4.png,1,odd,MacIntel,59,131382,128372,58,59,670141,671656,665145,132902,665145,59,788583,790092,785590,671668,785590,visual_patterns,0,0,0,yes,1366
undefined,undefined,undefined,undefined,white,no,Mozilla,Netscape,"5.0 (Macintosh; Intel Mac OS X 10_15_7) AppleWebKit/605.1.15 (KHTML, like Gecko) Version/15.2 Safari/605.1.15",xpyriment,legacy,legacy,0,uniform,0,0,0,0,24,24,24,0,0,74,74,74,74,74,0,74,0,19,19,19,19,19,0,19,27-01-22,27-01-22,11:26:29,Sun Feb 27 2022 11:26:29 GMT+0100 (CET),The main experiment item,yes,0,0,C:/Users/rrics/Documents/!!ResearchBMECOGSCI/gnet,0,0,0,prototype3.png,no,mono,no,18,no,black,no,no,768,1149,3.5.6,legacy,xpyriment,osweb,1.3.13,0,space,space,space,space,32356,19246,49125,32356,2,legacy,900,1440,24,900,24,0,0,1440,1645957656478,1024,2,48000,-16,experiment,p10sarr1.png,1,odd,MacIntel,59,131382,128372,58,59,670141,671656,665145,132902,665145,59,793110,794625,790115,671668,790115,visual_patterns,0,0,0,yes,1366
undefined,undefined,undefined,undefined,white,no,Mozilla,Netscape,"5.0 (Macintosh; Intel Mac OS X 10_15_7) AppleWebKit/605.1.15 (KHTML, like Gecko) Version/15.2 Safari/605.1.15",xpyriment,legacy,legacy,0,uniform,0,0,0,0,24,24,24,0,0,74,74,74,74,74,0,74,0,20,20,20,20,20,0,20,27-01-22,27-01-22,11:26:29,Sun Feb 27 2022 11:26:29 GMT+0100 (CET),The main experiment item,yes,0,0,C:/Users/rrics/Documents/!!ResearchBMECOGSCI/gnet,0,0,0,prototype3.png,no,mono,no,18,no,black,no,no,768,1149,3.5.6,legacy,xpyriment,osweb,1.3.13,0,space,space,space,space,32356,19246,49125,32356,2,legacy,900,1440,24,900,24,0,0,1440,1645957656478,1024,2,48000,-16,experiment,p8sarr3.png,1,odd,MacIntel,59,131382,128372,58,59,670141,671656,665145,132902,665145,59,797642,799159,794649,671668,794649,visual_patterns,0,0,0,yes,1366
undefined,undefined,undefined,undefined,white,no,Mozilla,Netscape,"5.0 (Macintosh; Intel Mac OS X 10_15_7) AppleWebKit/605.1.15 (KHTML, like Gecko) Version/15.2 Safari/605.1.15",xpyriment,legacy,legacy,0,uniform,0,0,0,0,24,24,24,0,0,74,74,74,74,74,0,74,0,21,21,21,21,21,0,21,27-01-22,27-01-22,11:26:29,Sun Feb 27 2022 11:26:29 GMT+0100 (CET),The main experiment item,yes,0,0,C:/Users/rrics/Documents/!!ResearchBMECOGSCI/gnet,0,0,0,prototype3.png,no,mono,no,18,no,black,no,no,768,1149,3.5.6,legacy,xpyriment,osweb,1.3.13,0,space,space,space,space,32356,19246,49125,32356,2,legacy,900,1440,24,900,24,0,0,1440,1645957656478,1024,2,48000,-16,experiment,p9sarr4.png,1,odd,MacIntel,59,131382,128372,58,59,670141,671656,665145,132902,665145,59,802177,803690,799184,671668,799184,visual_patterns,0,0,0,yes,1366
undefined,undefined,undefined,undefined,white,no,Mozilla,Netscape,"5.0 (Macintosh; Intel Mac OS X 10_15_7) AppleWebKit/605.1.15 (KHTML, like Gecko) Version/15.2 Safari/605.1.15",xpyriment,legacy,legacy,0,uniform,0,0,0,0,24,24,24,0,0,74,74,74,74,74,0,74,0,22,22,22,22,22,0,22,27-01-22,27-01-22,11:26:29,Sun Feb 27 2022 11:26:29 GMT+0100 (CET),The main experiment item,yes,0,0,C:/Users/rrics/Documents/!!ResearchBMECOGSCI/gnet,0,0,0,prototype3.png,no,mono,no,18,no,black,no,no,768,1149,3.5.6,legacy,xpyriment,osweb,1.3.13,0,space,space,space,space,32356,19246,49125,32356,2,legacy,900,1440,24,900,24,0,0,1440,1645957656478,1024,2,48000,-16,experiment,p5sarrcol2.png,1,odd,MacIntel,59,131382,128372,58,59,670141,671656,665145,132902,665145,59,806705,808206,803714,671668,803714,visual_patterns,0,0,0,yes,1366
undefined,undefined,undefined,undefined,white,no,Mozilla,Netscape,"5.0 (Macintosh; Intel Mac OS X 10_15_7) AppleWebKit/605.1.15 (KHTML, like Gecko) Version/15.2 Safari/605.1.15",xpyriment,legacy,legacy,0,uniform,0,0,0,0,24,24,24,0,0,74,74,74,74,74,0,74,0,23,23,23,23,23,0,23,27-01-22,27-01-22,11:26:29,Sun Feb 27 2022 11:26:29 GMT+0100 (CET),The main experiment item,yes,0,0,C:/Users/rrics/Documents/!!ResearchBMECOGSCI/gnet,0,0,0,prototype3.png,no,mono,no,18,no,black,no,no,768,1149,3.5.6,legacy,xpyriment,osweb,1.3.13,0,space,space,space,space,32356,19246,49125,32356,2,legacy,900,1440,24,900,24,0,0,1440,1645957656478,1024,2,48000,-16,experiment,p7sarr4.png,1,odd,MacIntel,59,131382,128372,58,59,670141,671656,665145,132902,665145,59,811222,812724,808232,671668,808232,visual_patterns,0,0,0,yes,1366
undefined,undefined,undefined,undefined,white,no,Mozilla,Netscape,"5.0 (Macintosh; Intel Mac OS X 10_15_7) AppleWebKit/605.1.15 (KHTML, like Gecko) Version/15.2 Safari/605.1.15",xpyriment,legacy,legacy,0,uniform,0,0,0,0,24,24,24,0,0,74,74,74,74,74,0,74,0,24,24,24,24,24,0,24,27-01-22,27-01-22,11:26:29,Sun Feb 27 2022 11:26:29 GMT+0100 (CET),The main experiment item,yes,0,0,C:/Users/rrics/Documents/!!ResearchBMECOGSCI/gnet,0,0,0,prototype3.png,no,mono,no,18,no,black,no,no,768,1149,3.5.6,legacy,xpyriment,osweb,1.3.13,0,space,space,space,space,32356,19246,49125,32356,2,legacy,900,1440,24,900,24,0,0,1440,1645957656478,1024,2,48000,-16,experiment,p3sarrsha3.png,1,odd,MacIntel,59,131382,128372,58,59,670141,671656,665145,132902,665145,59,815738,817240,812747,671668,812747,visual_patterns,0,0,0,yes,1366
undefined,undefined,undefined,undefined,white,no,Mozilla,Netscape,"5.0 (Macintosh; Intel Mac OS X 10_15_7) AppleWebKit/605.1.15 (KHTML, like Gecko) Version/15.2 Safari/605.1.15",xpyriment,legacy,legacy,0,uniform,0,0,0,0,24,24,24,0,0,74,74,74,74,74,0,74,0,25,25,25,25,25,0,25,27-01-22,27-01-22,11:26:29,Sun Feb 27 2022 11:26:29 GMT+0100 (CET),The main experiment item,yes,0,0,C:/Users/rrics/Documents/!!ResearchBMECOGSCI/gnet,0,0,0,prototype3.png,no,mono,no,18,no,black,no,no,768,1149,3.5.6,legacy,xpyriment,osweb,1.3.13,0,space,space,space,space,32356,19246,49125,32356,2,legacy,900,1440,24,900,24,0,0,1440,1645957656478,1024,2,48000,-16,experiment,p8sarr4.png,1,odd,MacIntel,59,131382,128372,58,59,670141,671656,665145,132902,665145,59,820262,821773,817267,671668,817267,visual_patterns,0,0,0,yes,1366
undefined,undefined,undefined,undefined,white,no,Mozilla,Netscape,"5.0 (Macintosh; Intel Mac OS X 10_15_7) AppleWebKit/605.1.15 (KHTML, like Gecko) Version/15.2 Safari/605.1.15",xpyriment,legacy,legacy,0,uniform,0,0,0,0,24,24,24,0,0,74,74,74,74,74,0,74,0,26,26,26,26,26,0,26,27-01-22,27-01-22,11:26:29,Sun Feb 27 2022 11:26:29 GMT+0100 (CET),The main experiment item,yes,0,0,C:/Users/rrics/Documents/!!ResearchBMECOGSCI/gnet,0,0,0,prototype3.png,no,mono,no,18,no,black,no,no,768,1149,3.5.6,legacy,xpyriment,osweb,1.3.13,0,space,space,space,space,32356,19246,49125,32356,2,legacy,900,1440,24,900,24,0,0,1440,1645957656478,1024,2,48000,-16,experiment,p2sarrshacol4.png,1,odd,MacIntel,59,131382,128372,58,59,670141,671656,665145,132902,665145,59,824791,826306,821797,671668,821797,visual_patterns,0,0,0,yes,1366
undefined,undefined,undefined,undefined,white,no,Mozilla,Netscape,"5.0 (Macintosh; Intel Mac OS X 10_15_7) AppleWebKit/605.1.15 (KHTML, like Gecko) Version/15.2 Safari/605.1.15",xpyriment,legacy,legacy,0,uniform,0,0,0,0,24,24,24,0,0,74,74,74,74,74,0,74,0,27,27,27,27,27,0,27,27-01-22,27-01-22,11:26:29,Sun Feb 27 2022 11:26:29 GMT+0100 (CET),The main experiment item,yes,0,0,C:/Users/rrics/Documents/!!ResearchBMECOGSCI/gnet,0,0,0,prototype3.png,no,mono,no,18,no,black,no,no,768,1149,3.5.6,legacy,xpyriment,osweb,1.3.13,0,space,space,space,space,32356,19246,49125,32356,2,legacy,900,1440,24,900,24,0,0,1440,1645957656478,1024,2,48000,-16,experiment,p4sarrshacol1.png,1,odd,MacIntel,59,131382,128372,58,59,670141,671656,665145,132902,665145,59,829322,830823,826328,671668,826328,visual_patterns,0,0,0,yes,1366
undefined,undefined,undefined,undefined,white,no,Mozilla,Netscape,"5.0 (Macintosh; Intel Mac OS X 10_15_7) AppleWebKit/605.1.15 (KHTML, like Gecko) Version/15.2 Safari/605.1.15",xpyriment,legacy,legacy,0,uniform,0,0,0,0,24,24,24,0,0,74,74,74,74,74,0,74,0,28,28,28,28,28,0,28,27-01-22,27-01-22,11:26:29,Sun Feb 27 2022 11:26:29 GMT+0100 (CET),The main experiment item,yes,0,0,C:/Users/rrics/Documents/!!ResearchBMECOGSCI/gnet,0,0,0,prototype3.png,no,mono,no,18,no,black,no,no,768,1149,3.5.6,legacy,xpyriment,osweb,1.3.13,0,space,space,space,space,32356,19246,49125,32356,2,legacy,900,1440,24,900,24,0,0,1440,1645957656478,1024,2,48000,-16,experiment,p1sarrshacol3.png,1,odd,MacIntel,59,131382,128372,58,59,670141,671656,665145,132902,665145,59,833844,835359,830849,671668,830849,visual_patterns,0,0,0,yes,1366
undefined,undefined,undefined,undefined,white,no,Mozilla,Netscape,"5.0 (Macintosh; Intel Mac OS X 10_15_7) AppleWebKit/605.1.15 (KHTML, like Gecko) Version/15.2 Safari/605.1.15",xpyriment,legacy,legacy,0,uniform,0,0,0,0,24,24,24,0,0,74,74,74,74,74,0,74,0,29,29,29,29,29,0,29,27-01-22,27-01-22,11:26:29,Sun Feb 27 2022 11:26:29 GMT+0100 (CET),The main experiment item,yes,0,0,C:/Users/rrics/Documents/!!ResearchBMECOGSCI/gnet,0,0,0,prototype3.png,no,mono,no,18,no,black,no,no,768,1149,3.5.6,legacy,xpyriment,osweb,1.3.13,0,space,space,space,space,32356,19246,49125,32356,2,legacy,900,1440,24,900,24,0,0,1440,1645957656478,1024,2,48000,-16,experiment,p2sarrsha1.png,1,odd,MacIntel,59,131382,128372,58,59,670141,671656,665145,132902,665145,59,838373,839874,835381,671668,835381,visual_patterns,0,0,0,yes,1366
undefined,undefined,undefined,undefined,white,no,Mozilla,Netscape,"5.0 (Macintosh; Intel Mac OS X 10_15_7) AppleWebKit/605.1.15 (KHTML, like Gecko) Version/15.2 Safari/605.1.15",xpyriment,legacy,legacy,0,uniform,0,0,0,0,24,24,24,0,0,74,74,74,74,74,0,74,0,30,30,30,30,30,0,30,27-01-22,27-01-22,11:26:29,Sun Feb 27 2022 11:26:29 GMT+0100 (CET),The main experiment item,yes,0,0,C:/Users/rrics/Documents/!!ResearchBMECOGSCI/gnet,0,0,0,prototype3.png,no,mono,no,18,no,black,no,no,768,1149,3.5.6,legacy,xpyriment,osweb,1.3.13,0,space,space,space,space,32356,19246,49125,32356,2,legacy,900,1440,24,900,24,0,0,1440,1645957656478,1024,2,48000,-16,experiment,p3sarr2.png,1,odd,MacIntel,59,131382,128372,58,59,670141,671656,665145,132902,665145,59,842888,844390,839897,671668,839897,visual_patterns,0,0,0,yes,1366
undefined,undefined,undefined,undefined,white,no,Mozilla,Netscape,"5.0 (Macintosh; Intel Mac OS X 10_15_7) AppleWebKit/605.1.15 (KHTML, like Gecko) Version/15.2 Safari/605.1.15",xpyriment,legacy,legacy,0,uniform,0,0,0,0,24,24,24,0,0,74,74,74,74,74,0,74,0,31,31,31,31,31,0,31,27-01-22,27-01-22,11:26:29,Sun Feb 27 2022 11:26:29 GMT+0100 (CET),The main experiment item,yes,0,0,C:/Users/rrics/Documents/!!ResearchBMECOGSCI/gnet,0,0,0,prototype3.png,no,mono,no,18,no,black,no,no,768,1149,3.5.6,legacy,xpyriment,osweb,1.3.13,0,space,space,space,space,32356,19246,49125,32356,2,legacy,900,1440,24,900,24,0,0,1440,1645957656478,1024,2,48000,-16,experiment,p3sarrshacol3.png,1,odd,MacIntel,59,131382,128372,58,59,670141,671656,665145,132902,665145,59,847407,848924,844412,671668,844412,visual_patterns,0,0,0,yes,1366
undefined,undefined,undefined,undefined,white,no,Mozilla,Netscape,"5.0 (Macintosh; Intel Mac OS X 10_15_7) AppleWebKit/605.1.15 (KHTML, like Gecko) Version/15.2 Safari/605.1.15",xpyriment,legacy,legacy,0,uniform,0,0,0,0,24,24,24,0,0,74,74,74,74,74,0,74,0,32,32,32,32,32,0,32,27-01-22,27-01-22,11:26:29,Sun Feb 27 2022 11:26:29 GMT+0100 (CET),The main experiment item,yes,0,0,C:/Users/rrics/Documents/!!ResearchBMECOGSCI/gnet,0,0,0,prototype3.png,no,mono,no,18,no,black,no,no,768,1149,3.5.6,legacy,xpyriment,osweb,1.3.13,0,space,space,space,space,32356,19246,49125,32356,2,legacy,900,1440,24,900,24,0,0,1440,1645957656478,1024,2,48000,-16,experiment,p2sarrcol4.png,1,odd,MacIntel,59,131382,128372,58,59,670141,671656,665145,132902,665145,59,851941,853458,848948,671668,848948,visual_patterns,0,0,0,yes,1366
undefined,undefined,undefined,undefined,white,no,Mozilla,Netscape,"5.0 (Macintosh; Intel Mac OS X 10_15_7) AppleWebKit/605.1.15 (KHTML, like Gecko) Version/15.2 Safari/605.1.15",xpyriment,legacy,legacy,0,uniform,0,0,0,0,24,24,24,0,0,74,74,74,74,74,0,74,0,33,33,33,33,33,0,33,27-01-22,27-01-22,11:26:29,Sun Feb 27 2022 11:26:29 GMT+0100 (CET),The main experiment item,yes,0,0,C:/Users/rrics/Documents/!!ResearchBMECOGSCI/gnet,0,0,0,prototype3.png,no,mono,no,18,no,black,no,no,768,1149,3.5.6,legacy,xpyriment,osweb,1.3.13,0,space,space,space,space,32356,19246,49125,32356,2,legacy,900,1440,24,900,24,0,0,1440,1645957656478,1024,2,48000,-16,experiment,p5sarrcol1.png,1,odd,MacIntel,59,131382,128372,58,59,670141,671656,665145,132902,665145,59,856475,857991,853482,671668,853482,visual_patterns,0,0,0,yes,1366
undefined,undefined,undefined,undefined,white,no,Mozilla,Netscape,"5.0 (Macintosh; Intel Mac OS X 10_15_7) AppleWebKit/605.1.15 (KHTML, like Gecko) Version/15.2 Safari/605.1.15",xpyriment,legacy,legacy,0,uniform,0,0,0,0,24,24,24,0,0,74,74,74,74,74,0,74,0,34,34,34,34,34,0,34,27-01-22,27-01-22,11:26:29,Sun Feb 27 2022 11:26:29 GMT+0100 (CET),The main experiment item,yes,0,0,C:/Users/rrics/Documents/!!ResearchBMECOGSCI/gnet,0,0,0,prototype3.png,no,mono,no,18,no,black,no,no,768,1149,3.5.6,legacy,xpyriment,osweb,1.3.13,0,space,space,space,space,32356,19246,49125,32356,2,legacy,900,1440,24,900,24,0,0,1440,1645957656478,1024,2,48000,-16,experiment,p8sarr2.png,1,odd,MacIntel,59,131382,128372,58,59,670141,671656,665145,132902,665145,59,861005,862510,858012,671668,858012,visual_patterns,0,0,0,yes,1366
undefined,undefined,undefined,undefined,white,no,Mozilla,Netscape,"5.0 (Macintosh; Intel Mac OS X 10_15_7) AppleWebKit/605.1.15 (KHTML, like Gecko) Version/15.2 Safari/605.1.15",xpyriment,legacy,legacy,0,uniform,0,0,0,0,24,24,24,0,0,74,74,74,74,74,0,74,0,35,35,35,35,35,0,35,27-01-22,27-01-22,11:26:29,Sun Feb 27 2022 11:26:29 GMT+0100 (CET),The main experiment item,yes,0,0,C:/Users/rrics/Documents/!!ResearchBMECOGSCI/gnet,0,0,0,prototype3.png,no,mono,no,18,no,black,no,no,768,1149,3.5.6,legacy,xpyriment,osweb,1.3.13,0,space,space,space,space,32356,19246,49125,32356,2,legacy,900,1440,24,900,24,0,0,1440,1645957656478,1024,2,48000,-16,experiment,p5sarr3.png,1,odd,MacIntel,59,131382,128372,58,59,670141,671656,665145,132902,665145,59,865527,867043,862534,671668,862534,visual_patterns,0,0,0,yes,1366
undefined,undefined,undefined,undefined,white,no,Mozilla,Netscape,"5.0 (Macintosh; Intel Mac OS X 10_15_7) AppleWebKit/605.1.15 (KHTML, like Gecko) Version/15.2 Safari/605.1.15",xpyriment,legacy,legacy,0,uniform,0,0,0,0,24,24,24,0,0,74,74,74,74,74,0,74,0,36,36,36,36,36,0,36,27-01-22,27-01-22,11:26:29,Sun Feb 27 2022 11:26:29 GMT+0100 (CET),The main experiment item,yes,0,0,C:/Users/rrics/Documents/!!ResearchBMECOGSCI/gnet,0,0,0,prototype3.png,no,mono,no,18,no,black,no,no,768,1149,3.5.6,legacy,xpyriment,osweb,1.3.13,0,space,space,space,space,32356,19246,49125,32356,2,legacy,900,1440,24,900,24,0,0,1440,1645957656478,1024,2,48000,-16,experiment,p7sarr1.png,1,odd,MacIntel,59,131382,128372,58,59,670141,671656,665145,132902,665145,59,870057,871561,867067,671668,867067,visual_patterns,0,0,0,yes,1366
undefined,undefined,undefined,undefined,white,no,Mozilla,Netscape,"5.0 (Macintosh; Intel Mac OS X 10_15_7) AppleWebKit/605.1.15 (KHTML, like Gecko) Version/15.2 Safari/605.1.15",xpyriment,legacy,legacy,0,uniform,0,0,0,0,24,24,24,0,0,74,74,74,74,74,0,74,0,37,37,37,37,37,0,37,27-01-22,27-01-22,11:26:29,Sun Feb 27 2022 11:26:29 GMT+0100 (CET),The main experiment item,yes,0,0,C:/Users/rrics/Documents/!!ResearchBMECOGSCI/gnet,0,0,0,prototype3.png,no,mono,no,18,no,black,no,no,768,1149,3.5.6,legacy,xpyriment,osweb,1.3.13,0,space,space,space,space,32356,19246,49125,32356,2,legacy,900,1440,24,900,24,0,0,1440,1645957656478,1024,2,48000,-16,experiment,p1sarrcol4.png,1,odd,MacIntel,59,131382,128372,58,59,670141,671656,665145,132902,665145,59,874578,876094,871584,671668,871584,visual_patterns,0,0,0,yes,1366
undefined,undefined,undefined,undefined,white,no,Mozilla,Netscape,"5.0 (Macintosh; Intel Mac OS X 10_15_7) AppleWebKit/605.1.15 (KHTML, like Gecko) Version/15.2 Safari/605.1.15",xpyriment,legacy,legacy,0,uniform,0,0,0,0,24,24,24,0,0,74,74,74,74,74,0,74,0,38,38,38,38,38,0,38,27-01-22,27-01-22,11:26:29,Sun Feb 27 2022 11:26:29 GMT+0100 (CET),The main experiment item,yes,0,0,C:/Users/rrics/Documents/!!ResearchBMECOGSCI/gnet,0,0,0,prototype3.png,no,mono,no,18,no,black,no,no,768,1149,3.5.6,legacy,xpyriment,osweb,1.3.13,0,space,space,space,space,32356,19246,49125,32356,2,legacy,900,1440,24,900,24,0,0,1440,1645957656478,1024,2,48000,-16,experiment,p3sarrsha4.png,1,odd,MacIntel,59,131382,128372,58,59,670141,671656,665145,132902,665145,59,879115,880628,876120,671668,876120,visual_patterns,0,0,0,yes,1366
undefined,undefined,undefined,undefined,white,no,Mozilla,Netscape,"5.0 (Macintosh; Intel Mac OS X 10_15_7) AppleWebKit/605.1.15 (KHTML, like Gecko) Version/15.2 Safari/605.1.15",xpyriment,legacy,legacy,0,uniform,0,0,0,0,24,24,24,0,0,74,74,74,74,74,0,74,0,39,39,39,39,39,0,39,27-01-22,27-01-22,11:26:29,Sun Feb 27 2022 11:26:29 GMT+0100 (CET),The main experiment item,yes,0,0,C:/Users/rrics/Documents/!!ResearchBMECOGSCI/gnet,0,0,0,prototype3.png,no,mono,no,18,no,black,no,no,768,1149,3.5.6,legacy,xpyriment,osweb,1.3.13,0,space,space,space,space,32356,19246,49125,32356,2,legacy,900,1440,24,900,24,0,0,1440,1645957656478,1024,2,48000,-16,experiment,p3sarr1.png,1,odd,MacIntel,59,131382,128372,58,59,670141,671656,665145,132902,665145,59,883642,885144,880650,671668,880650,visual_patterns,0,0,0,yes,1366
undefined,undefined,undefined,undefined,white,no,Mozilla,Netscape,"5.0 (Macintosh; Intel Mac OS X 10_15_7) AppleWebKit/605.1.15 (KHTML, like Gecko) Version/15.2 Safari/605.1.15",xpyriment,legacy,legacy,0,uniform,0,0,0,0,24,24,24,0,0,74,74,74,74,74,0,74,0,40,40,40,40,40,0,40,27-01-22,27-01-22,11:26:29,Sun Feb 27 2022 11:26:29 GMT+0100 (CET),The main experiment item,yes,0,0,C:/Users/rrics/Documents/!!ResearchBMECOGSCI/gnet,0,0,0,prototype3.png,no,mono,no,18,no,black,no,no,768,1149,3.5.6,legacy,xpyriment,osweb,1.3.13,0,space,space,space,space,32356,19246,49125,32356,2,legacy,900,1440,24,900,24,0,0,1440,1645957656478,1024,2,48000,-16,experiment,p2sarrsha3.png,1,odd,MacIntel,59,131382,128372,58,59,670141,671656,665145,132902,665145,59,888161,889677,885167,671668,885167,visual_patterns,0,0,0,yes,1366
undefined,undefined,undefined,undefined,white,no,Mozilla,Netscape,"5.0 (Macintosh; Intel Mac OS X 10_15_7) AppleWebKit/605.1.15 (KHTML, like Gecko) Version/15.2 Safari/605.1.15",xpyriment,legacy,legacy,0,uniform,0,0,0,0,24,24,24,0,0,74,74,74,74,74,0,74,0,41,41,41,41,41,0,41,27-01-22,27-01-22,11:26:29,Sun Feb 27 2022 11:26:29 GMT+0100 (CET),The main experiment item,yes,0,0,C:/Users/rrics/Documents/!!ResearchBMECOGSCI/gnet,0,0,0,prototype3.png,no,mono,no,18,no,black,no,no,768,1149,3.5.6,legacy,xpyriment,osweb,1.3.13,0,space,space,space,space,32356,19246,49125,32356,2,legacy,900,1440,24,900,24,0,0,1440,1645957656478,1024,2,48000,-16,experiment,p9sarr3.png,1,odd,MacIntel,59,131382,128372,58,59,670141,671656,665145,132902,665145,59,892694,894211,889700,671668,889700,visual_patterns,0,0,0,yes,1366
undefined,undefined,undefined,undefined,white,no,Mozilla,Netscape,"5.0 (Macintosh; Intel Mac OS X 10_15_7) AppleWebKit/605.1.15 (KHTML, like Gecko) Version/15.2 Safari/605.1.15",xpyriment,legacy,legacy,0,uniform,0,0,0,0,24,24,24,0,0,74,74,74,74,74,0,74,0,42,42,42,42,42,0,42,27-01-22,27-01-22,11:26:29,Sun Feb 27 2022 11:26:29 GMT+0100 (CET),The main experiment item,yes,0,0,C:/Users/rrics/Documents/!!ResearchBMECOGSCI/gnet,0,0,0,prototype3.png,no,mono,no,18,no,black,no,no,768,1149,3.5.6,legacy,xpyriment,osweb,1.3.13,0,space,space,space,space,32356,19246,49125,32356,2,legacy,900,1440,24,900,24,0,0,1440,1645957656478,1024,2,48000,-16,experiment,p10sarr4.png,1,odd,MacIntel,59,131382,128372,58,59,670141,671656,665145,132902,665145,59,897231,898744,894238,671668,894238,visual_patterns,0,0,0,yes,1366
undefined,undefined,undefined,undefined,white,no,Mozilla,Netscape,"5.0 (Macintosh; Intel Mac OS X 10_15_7) AppleWebKit/605.1.15 (KHTML, like Gecko) Version/15.2 Safari/605.1.15",xpyriment,legacy,legacy,0,uniform,0,0,0,0,24,24,24,0,0,74,74,74,74,74,0,74,0,43,43,43,43,43,0,43,27-01-22,27-01-22,11:26:29,Sun Feb 27 2022 11:26:29 GMT+0100 (CET),The main experiment item,yes,0,0,C:/Users/rrics/Documents/!!ResearchBMECOGSCI/gnet,0,0,0,prototype3.png,no,mono,no,18,no,black,no,no,768,1149,3.5.6,legacy,xpyriment,osweb,1.3.13,0,space,space,space,space,32356,19246,49125,32356,2,legacy,900,1440,24,900,24,0,0,1440,1645957656478,1024,2,48000,-16,experiment,p4sarrcol1.png,1,odd,MacIntel,59,131382,128372,58,59,670141,671656,665145,132902,665145,59,901761,903278,898768,671668,898768,visual_patterns,0,0,0,yes,1366
undefined,undefined,undefined,undefined,white,no,Mozilla,Netscape,"5.0 (Macintosh; Intel Mac OS X 10_15_7) AppleWebKit/605.1.15 (KHTML, like Gecko) Version/15.2 Safari/605.1.15",xpyriment,legacy,legacy,0,uniform,0,0,0,0,24,24,24,0,0,74,74,74,74,74,0,74,0,44,44,44,44,44,0,44,27-01-22,27-01-22,11:26:29,Sun Feb 27 2022 11:26:29 GMT+0100 (CET),The main experiment item,yes,0,0,C:/Users/rrics/Documents/!!ResearchBMECOGSCI/gnet,0,0,0,prototype3.png,no,mono,no,18,no,black,no,no,768,1149,3.5.6,legacy,xpyriment,osweb,1.3.13,0,space,space,space,space,32356,19246,49125,32356,2,legacy,900,1440,24,900,24,0,0,1440,1645957656478,1024,2,48000,-16,experiment,p5sarrshacol4.png,1,odd,MacIntel,59,131382,128372,58,59,670141,671656,665145,132902,665145,59,906298,907812,903304,671668,903304,visual_patterns,0,0,0,yes,1366
undefined,undefined,undefined,undefined,white,no,Mozilla,Netscape,"5.0 (Macintosh; Intel Mac OS X 10_15_7) AppleWebKit/605.1.15 (KHTML, like Gecko) Version/15.2 Safari/605.1.15",xpyriment,legacy,legacy,0,uniform,0,0,0,0,24,24,24,0,0,74,74,74,74,74,0,74,0,45,45,45,45,45,0,45,27-01-22,27-01-22,11:26:29,Sun Feb 27 2022 11:26:29 GMT+0100 (CET),The main experiment item,yes,0,0,C:/Users/rrics/Documents/!!ResearchBMECOGSCI/gnet,0,0,0,prototype3.png,no,mono,no,18,no,black,no,no,768,1149,3.5.6,legacy,xpyriment,osweb,1.3.13,0,space,space,space,space,32356,19246,49125,32356,2,legacy,900,1440,24,900,24,0,0,1440,1645957656478,1024,2,48000,-16,experiment,p3sarr3.png,1,odd,MacIntel,59,131382,128372,58,59,670141,671656,665145,132902,665145,59,910830,912344,907838,671668,907838,visual_patterns,0,0,0,yes,1366
undefined,undefined,undefined,undefined,white,no,Mozilla,Netscape,"5.0 (Macintosh; Intel Mac OS X 10_15_7) AppleWebKit/605.1.15 (KHTML, like Gecko) Version/15.2 Safari/605.1.15",xpyriment,legacy,legacy,0,uniform,0,0,0,0,24,24,24,0,0,74,74,74,74,74,0,74,0,46,46,46,46,46,0,46,27-01-22,27-01-22,11:26:29,Sun Feb 27 2022 11:26:29 GMT+0100 (CET),The main experiment item,yes,0,0,C:/Users/rrics/Documents/!!ResearchBMECOGSCI/gnet,0,0,0,prototype3.png,no,mono,no,18,no,black,no,no,768,1149,3.5.6,legacy,xpyriment,osweb,1.3.13,0,space,space,space,space,32356,19246,49125,32356,2,legacy,900,1440,24,900,24,0,0,1440,1645957656478,1024,2,48000,-16,experiment,p2sarr3.png,1,odd,MacIntel,59,131382,128372,58,59,670141,671656,665145,132902,665145,59,915364,916877,912372,671668,912372,visual_patterns,0,0,0,yes,1366
undefined,undefined,undefined,undefined,white,no,Mozilla,Netscape,"5.0 (Macintosh; Intel Mac OS X 10_15_7) AppleWebKit/605.1.15 (KHTML, like Gecko) Version/15.2 Safari/605.1.15",xpyriment,legacy,legacy,0,uniform,0,0,0,0,24,24,24,0,0,74,74,74,74,74,0,74,0,47,47,47,47,47,0,47,27-01-22,27-01-22,11:26:29,Sun Feb 27 2022 11:26:29 GMT+0100 (CET),The main experiment item,yes,0,0,C:/Users/rrics/Documents/!!ResearchBMECOGSCI/gnet,0,0,0,prototype3.png,no,mono,no,18,no,black,no,no,768,1149,3.5.6,legacy,xpyriment,osweb,1.3.13,0,space,space,space,space,32356,19246,49125,32356,2,legacy,900,1440,24,900,24,0,0,1440,1645957656478,1024,2,48000,-16,experiment,p4sarr2.png,1,odd,MacIntel,59,131382,128372,58,59,670141,671656,665145,132902,665145,59,919893,921394,916900,671668,916900,visual_patterns,0,0,0,yes,1366
undefined,undefined,undefined,undefined,white,no,Mozilla,Netscape,"5.0 (Macintosh; Intel Mac OS X 10_15_7) AppleWebKit/605.1.15 (KHTML, like Gecko) Version/15.2 Safari/605.1.15",xpyriment,legacy,legacy,0,uniform,0,0,0,0,24,24,24,0,0,74,74,74,74,74,0,74,0,48,48,48,48,48,0,48,27-01-22,27-01-22,11:26:29,Sun Feb 27 2022 11:26:29 GMT+0100 (CET),The main experiment item,yes,0,0,C:/Users/rrics/Documents/!!ResearchBMECOGSCI/gnet,0,0,0,prototype3.png,no,mono,no,18,no,black,no,no,768,1149,3.5.6,legacy,xpyriment,osweb,1.3.13,0,space,space,space,space,32356,19246,49125,32356,2,legacy,900,1440,24,900,24,0,0,1440,1645957656478,1024,2,48000,-16,experiment,p2sarrshacol3.png,1,odd,MacIntel,59,131382,128372,58,59,670141,671656,665145,132902,665145,59,924412,925927,921419,671668,921419,visual_patterns,0,0,0,yes,1366
undefined,undefined,undefined,undefined,white,no,Mozilla,Netscape,"5.0 (Macintosh; Intel Mac OS X 10_15_7) AppleWebKit/605.1.15 (KHTML, like Gecko) Version/15.2 Safari/605.1.15",xpyriment,legacy,legacy,0,uniform,0,0,0,0,24,24,24,0,0,74,74,74,74,74,0,74,0,49,49,49,49,49,0,49,27-01-22,27-01-22,11:26:29,Sun Feb 27 2022 11:26:29 GMT+0100 (CET),The main experiment item,yes,0,0,C:/Users/rrics/Documents/!!ResearchBMECOGSCI/gnet,0,0,0,prototype3.png,no,mono,no,18,no,black,no,no,768,1149,3.5.6,legacy,xpyriment,osweb,1.3.13,0,space,space,space,space,32356,19246,49125,32356,2,legacy,900,1440,24,900,24,0,0,1440,1645957656478,1024,2,48000,-16,experiment,p2sarrcol2.png,1,odd,MacIntel,59,131382,128372,58,59,670141,671656,665145,132902,665145,59,928946,930460,925951,671668,925951,visual_patterns,0,0,0,yes,1366
undefined,undefined,undefined,undefined,white,no,Mozilla,Netscape,"5.0 (Macintosh; Intel Mac OS X 10_15_7) AppleWebKit/605.1.15 (KHTML, like Gecko) Version/15.2 Safari/605.1.15",xpyriment,legacy,legacy,0,uniform,0,0,0,0,24,24,24,0,0,74,74,74,74,74,0,74,0,50,50,50,50,50,0,50,27-01-22,27-01-22,11:26:29,Sun Feb 27 2022 11:26:29 GMT+0100 (CET),The main experiment item,yes,0,0,C:/Users/rrics/Documents/!!ResearchBMECOGSCI/gnet,0,0,0,prototype3.png,no,mono,no,18,no,black,no,no,768,1149,3.5.6,legacy,xpyriment,osweb,1.3.13,0,space,space,space,space,32356,19246,49125,32356,2,legacy,900,1440,24,900,24,0,0,1440,1645957656478,1024,2,48000,-16,experiment,p4sarrsha3.png,1,odd,MacIntel,59,131382,128372,58,59,670141,671656,665145,132902,665145,59,933476,934978,930485,671668,930485,visual_patterns,0,0,0,yes,1366
