acc,accuracy,average_response_time,avg_rt,background,bidi,browser_codename,browser_name,browser_version,canvas_backend,clock_backend,color_backend,compensation,coordinates,count_end,count_experiment,count_osweb,count_prestudy,count_prestudy_isi,count_prestudy_sequence,count_prestudy_stimpres,count_start,count_study,count_study_coroutines,count_study_isi,count_study_logger,count_study_response,count_study_sequence,count_study_start,count_study_stimpres,count_test,count_test_coroutines,count_test_isi,count_test_logger,count_test_response,count_test_sequence,count_test_start,count_test_stimpres,date_startdate,date_startdateUTC,date_starttime,datetime,description,disable_garbage_collection,experiment_debug,experiment_parameters,experiment_path,experiment_pilot,experiment_taskname,experiment_taskversion,fampict,font_bold,font_family,font_italic,font_size,font_underline,foreground,form_clicks,fullscreen,height,jatosStudyResultId,jatosVersion,keyboard_backend,mouse_backend,opensesame_codename,opensesame_version,repeat_cycle,response,response_start,response_study_start,response_test_start,response_time,response_time_start,response_time_study_start,response_time_test_start,round_decimals,sampler_backend,screen_availableHeight,screen_availableWidth,screen_colorDepth,screen_height,screen_pixelDepth,screen_screenX,screen_screenY,screen_width,sessionid,sound_buf_size,sound_channels,sound_freq,sound_sample_size,start,stim,subject_nr,subject_parity,system_os,time_prestudy,time_prestudy_isi,time_prestudy_stimpres,time_start,time_study,time_study_isi,time_study_logger,time_study_response,time_study_start,time_study_stimpres,time_test,time_test_isi,time_test_logger,time_test_response,time_test_start,time_test_stimpres,title,total_correct,total_response_time,total_responses,uniform_coordinates,width
undefined,undefined,undefined,undefined,white,no,Mozilla,Netscape,5.0 (Windows),xpyriment,legacy,legacy,0,uniform,0,0,0,0,24,24,24,0,0,0,0,0,0,0,0,0,0,,,,,,0,,27-01-22,27-01-22,16:06:55,Sun Feb 27 2022 16:06:55 GMT+0100 (közép-európai téli idő),The main experiment item,yes,0,0,C:/Users/rrics/Documents/!!ResearchBMECOGSCI/gnet,0,0,0,prototype3.png,no,mono,no,18,no,black,no,no,768,1151,3.5.6,legacy,xpyriment,osweb,1.3.13,0,enter,enter,enter,,38411,46566,38411,,2,legacy,860,1600,24,900,24,-8,-8,1600,1645974460387,1024,2,48000,-16,experiment,p6sarr1.png,1,odd,Win32,79,158579,155574,78,79,203542,205055,198554,160105,198554,79,,,,,,visual_patterns,0,0,0,yes,1366
undefined,undefined,undefined,undefined,white,no,Mozilla,Netscape,5.0 (Windows),xpyriment,legacy,legacy,0,uniform,0,0,0,0,24,24,24,0,0,1,1,1,1,1,0,1,0,,,,,,0,,27-01-22,27-01-22,16:06:55,Sun Feb 27 2022 16:06:55 GMT+0100 (közép-európai téli idő),The main experiment item,yes,0,0,C:/Users/rrics/Documents/!!ResearchBMECOGSCI/gnet,0,0,0,prototype3.png,no,mono,no,18,no,black,no,no,768,1151,3.5.6,legacy,xpyriment,osweb,1.3.13,0,enter,enter,enter,,38411,46566,38411,,2,legacy,860,1600,24,900,24,-8,-8,1600,1645974460387,1024,2,48000,-16,experiment,prototype3.png,1,odd,Win32,79,158579,155574,78,79,210072,211588,205078,160105,205078,79,,,,,,visual_patterns,0,0,0,yes,1366
undefined,undefined,undefined,undefined,white,no,Mozilla,Netscape,5.0 (Windows),xpyriment,legacy,legacy,0,uniform,0,0,0,0,24,24,24,0,0,2,2,2,2,2,0,2,0,,,,,,0,,27-01-22,27-01-22,16:06:55,Sun Feb 27 2022 16:06:55 GMT+0100 (közép-európai téli idő),The main experiment item,yes,0,0,C:/Users/rrics/Documents/!!ResearchBMECOGSCI/gnet,0,0,0,prototype3.png,no,mono,no,18,no,black,no,no,768,1151,3.5.6,legacy,xpyriment,osweb,1.3.13,0,enter,enter,enter,,38411,46566,38411,,2,legacy,860,1600,24,900,24,-8,-8,1600,1645974460387,1024,2,48000,-16,experiment,p3sarr1.png,1,odd,Win32,79,158579,155574,78,79,216615,218121,211616,160105,211616,79,,,,,,visual_patterns,0,0,0,yes,1366
undefined,undefined,undefined,undefined,white,no,Mozilla,Netscape,5.0 (Windows),xpyriment,legacy,legacy,0,uniform,0,0,0,0,24,24,24,0,0,3,3,3,3,3,0,3,0,,,,,,0,,27-01-22,27-01-22,16:06:55,Sun Feb 27 2022 16:06:55 GMT+0100 (közép-európai téli idő),The main experiment item,yes,0,0,C:/Users/rrics/Documents/!!ResearchBMECOGSCI/gnet,0,0,0,prototype3.png,no,mono,no,18,no,black,no,no,768,1151,3.5.6,legacy,xpyriment,osweb,1.3.13,0,enter,enter,enter,,38411,46566,38411,,2,legacy,860,1600,24,900,24,-8,-8,1600,1645974460387,1024,2,48000,-16,experiment,p9sarr2.png,1,odd,Win32,79,158579,155574,78,79,223142,224652,218146,160105,218146,79,,,,,,visual_patterns,0,0,0,yes,1366
undefined,undefined,undefined,undefined,white,no,Mozilla,Netscape,5.0 (Windows),xpyriment,legacy,legacy,0,uniform,0,0,0,0,24,24,24,0,0,4,4,4,4,4,0,4,0,,,,,,0,,27-01-22,27-01-22,16:06:55,Sun Feb 27 2022 16:06:55 GMT+0100 (közép-európai téli idő),The main experiment item,yes,0,0,C:/Users/rrics/Documents/!!ResearchBMECOGSCI/gnet,0,0,0,prototype3.png,no,mono,no,18,no,black,no,no,768,1151,3.5.6,legacy,xpyriment,osweb,1.3.13,0,enter,enter,enter,,38411,46566,38411,,2,legacy,860,1600,24,900,24,-8,-8,1600,1645974460387,1024,2,48000,-16,experiment,p4sarr2.png,1,odd,Win32,79,158579,155574,78,79,229679,231185,224678,160105,224678,79,,,,,,visual_patterns,0,0,0,yes,1366
undefined,undefined,undefined,undefined,white,no,Mozilla,Netscape,5.0 (Windows),xpyriment,legacy,legacy,0,uniform,0,0,0,0,24,24,24,0,0,5,5,5,5,5,0,5,0,,,,,,0,,27-01-22,27-01-22,16:06:55,Sun Feb 27 2022 16:06:55 GMT+0100 (közép-európai téli idő),The main experiment item,yes,0,0,C:/Users/rrics/Documents/!!ResearchBMECOGSCI/gnet,0,0,0,prototype3.png,no,mono,no,18,no,black,no,no,768,1151,3.5.6,legacy,xpyriment,osweb,1.3.13,0,enter,enter,enter,,38411,46566,38411,,2,legacy,860,1600,24,900,24,-8,-8,1600,1645974460387,1024,2,48000,-16,experiment,p4sarrshacol2.png,1,odd,Win32,79,158579,155574,78,79,236207,237718,231209,160105,231208,79,,,,,,visual_patterns,0,0,0,yes,1366
undefined,undefined,undefined,undefined,white,no,Mozilla,Netscape,5.0 (Windows),xpyriment,legacy,legacy,0,uniform,0,0,0,0,24,24,24,0,0,6,6,6,6,6,0,6,0,,,,,,0,,27-01-22,27-01-22,16:06:55,Sun Feb 27 2022 16:06:55 GMT+0100 (közép-európai téli idő),The main experiment item,yes,0,0,C:/Users/rrics/Documents/!!ResearchBMECOGSCI/gnet,0,0,0,prototype3.png,no,mono,no,18,no,black,no,no,768,1151,3.5.6,legacy,xpyriment,osweb,1.3.13,0,enter,enter,enter,,38411,46566,38411,,2,legacy,860,1600,24,900,24,-8,-8,1600,1645974460387,1024,2,48000,-16,experiment,p5sarrsha2.png,1,odd,Win32,79,158579,155574,78,79,242743,244251,237738,160105,237738,79,,,,,,visual_patterns,0,0,0,yes,1366
undefined,undefined,undefined,undefined,white,no,Mozilla,Netscape,5.0 (Windows),xpyriment,legacy,legacy,0,uniform,0,0,0,0,24,24,24,0,0,7,7,7,7,7,0,7,0,,,,,,0,,27-01-22,27-01-22,16:06:55,Sun Feb 27 2022 16:06:55 GMT+0100 (közép-európai téli idő),The main experiment item,yes,0,0,C:/Users/rrics/Documents/!!ResearchBMECOGSCI/gnet,0,0,0,prototype3.png,no,mono,no,18,no,black,no,no,768,1151,3.5.6,legacy,xpyriment,osweb,1.3.13,0,enter,enter,enter,,38411,46566,38411,,2,legacy,860,1600,24,900,24,-8,-8,1600,1645974460387,1024,2,48000,-16,experiment,p2sarr1.png,1,odd,Win32,79,158579,155574,78,79,249269,250782,244272,160105,244272,79,,,,,,visual_patterns,0,0,0,yes,1366
undefined,undefined,undefined,undefined,white,no,Mozilla,Netscape,5.0 (Windows),xpyriment,legacy,legacy,0,uniform,0,0,0,0,24,24,24,0,0,8,8,8,8,8,0,8,0,,,,,,0,,27-01-22,27-01-22,16:06:55,Sun Feb 27 2022 16:06:55 GMT+0100 (közép-európai téli idő),The main experiment item,yes,0,0,C:/Users/rrics/Documents/!!ResearchBMECOGSCI/gnet,0,0,0,prototype3.png,no,mono,no,18,no,black,no,no,768,1151,3.5.6,legacy,xpyriment,osweb,1.3.13,0,enter,enter,enter,,38411,46566,38411,,2,legacy,860,1600,24,900,24,-8,-8,1600,1645974460387,1024,2,48000,-16,experiment,prototype4.png,1,odd,Win32,79,158579,155574,78,79,255801,257315,250805,160105,250805,79,,,,,,visual_patterns,0,0,0,yes,1366
undefined,undefined,undefined,undefined,white,no,Mozilla,Netscape,5.0 (Windows),xpyriment,legacy,legacy,0,uniform,0,0,0,0,24,24,24,0,0,9,9,9,9,9,0,9,0,,,,,,0,,27-01-22,27-01-22,16:06:55,Sun Feb 27 2022 16:06:55 GMT+0100 (közép-európai téli idő),The main experiment item,yes,0,0,C:/Users/rrics/Documents/!!ResearchBMECOGSCI/gnet,0,0,0,prototype3.png,no,mono,no,18,no,black,no,no,768,1151,3.5.6,legacy,xpyriment,osweb,1.3.13,0,enter,enter,enter,,38411,46566,38411,,2,legacy,860,1600,24,900,24,-8,-8,1600,1645974460387,1024,2,48000,-16,experiment,p5sarrsha1.png,1,odd,Win32,79,158579,155574,78,79,262334,263847,257336,160105,257336,79,,,,,,visual_patterns,0,0,0,yes,1366
undefined,undefined,undefined,undefined,white,no,Mozilla,Netscape,5.0 (Windows),xpyriment,legacy,legacy,0,uniform,0,0,0,0,24,24,24,0,0,10,10,10,10,10,0,10,0,,,,,,0,,27-01-22,27-01-22,16:06:55,Sun Feb 27 2022 16:06:55 GMT+0100 (közép-európai téli idő),The main experiment item,yes,0,0,C:/Users/rrics/Documents/!!ResearchBMECOGSCI/gnet,0,0,0,prototype3.png,no,mono,no,18,no,black,no,no,768,1151,3.5.6,legacy,xpyriment,osweb,1.3.13,0,enter,enter,enter,,38411,46566,38411,,2,legacy,860,1600,24,900,24,-8,-8,1600,1645974460387,1024,2,48000,-16,experiment,p5sarrcol1.png,1,odd,Win32,79,158579,155574,78,79,268870,270381,263869,160105,263869,79,,,,,,visual_patterns,0,0,0,yes,1366
undefined,undefined,undefined,undefined,white,no,Mozilla,Netscape,5.0 (Windows),xpyriment,legacy,legacy,0,uniform,0,0,0,0,24,24,24,0,0,11,11,11,11,11,0,11,0,,,,,,0,,27-01-22,27-01-22,16:06:55,Sun Feb 27 2022 16:06:55 GMT+0100 (közép-európai téli idő),The main experiment item,yes,0,0,C:/Users/rrics/Documents/!!ResearchBMECOGSCI/gnet,0,0,0,prototype3.png,no,mono,no,18,no,black,no,no,768,1151,3.5.6,legacy,xpyriment,osweb,1.3.13,0,enter,enter,enter,,38411,46566,38411,,2,legacy,860,1600,24,900,24,-8,-8,1600,1645974460387,1024,2,48000,-16,experiment,p8sarr2.png,1,odd,Win32,79,158579,155574,78,79,275403,276913,270402,160105,270402,79,,,,,,visual_patterns,0,0,0,yes,1366
undefined,undefined,undefined,undefined,white,no,Mozilla,Netscape,5.0 (Windows),xpyriment,legacy,legacy,0,uniform,0,0,0,0,24,24,24,0,0,12,12,12,12,12,0,12,0,,,,,,0,,27-01-22,27-01-22,16:06:55,Sun Feb 27 2022 16:06:55 GMT+0100 (közép-európai téli idő),The main experiment item,yes,0,0,C:/Users/rrics/Documents/!!ResearchBMECOGSCI/gnet,0,0,0,prototype3.png,no,mono,no,18,no,black,no,no,768,1151,3.5.6,legacy,xpyriment,osweb,1.3.13,0,enter,enter,enter,,38411,46566,38411,,2,legacy,860,1600,24,900,24,-8,-8,1600,1645974460387,1024,2,48000,-16,experiment,p5sarrshacol2.png,1,odd,Win32,79,158579,155574,78,79,281937,283446,276933,160105,276933,79,,,,,,visual_patterns,0,0,0,yes,1366
undefined,undefined,undefined,undefined,white,no,Mozilla,Netscape,5.0 (Windows),xpyriment,legacy,legacy,0,uniform,0,0,0,0,24,24,24,0,0,13,13,13,13,13,0,13,0,,,,,,0,,27-01-22,27-01-22,16:06:55,Sun Feb 27 2022 16:06:55 GMT+0100 (közép-európai téli idő),The main experiment item,yes,0,0,C:/Users/rrics/Documents/!!ResearchBMECOGSCI/gnet,0,0,0,prototype3.png,no,mono,no,18,no,black,no,no,768,1151,3.5.6,legacy,xpyriment,osweb,1.3.13,0,enter,enter,enter,,38411,46566,38411,,2,legacy,860,1600,24,900,24,-8,-8,1600,1645974460387,1024,2,48000,-16,experiment,p8sarr1.png,1,odd,Win32,79,158579,155574,78,79,288469,289978,283467,160105,283467,79,,,,,,visual_patterns,0,0,0,yes,1366
undefined,undefined,undefined,undefined,white,no,Mozilla,Netscape,5.0 (Windows),xpyriment,legacy,legacy,0,uniform,0,0,0,0,24,24,24,0,0,14,14,14,14,14,0,14,0,,,,,,0,,27-01-22,27-01-22,16:06:55,Sun Feb 27 2022 16:06:55 GMT+0100 (közép-európai téli idő),The main experiment item,yes,0,0,C:/Users/rrics/Documents/!!ResearchBMECOGSCI/gnet,0,0,0,prototype3.png,no,mono,no,18,no,black,no,no,768,1151,3.5.6,legacy,xpyriment,osweb,1.3.13,0,enter,enter,enter,,38411,46566,38411,,2,legacy,860,1600,24,900,24,-8,-8,1600,1645974460387,1024,2,48000,-16,experiment,p3sarrcol1.png,1,odd,Win32,79,158579,155574,78,79,294992,296494,289999,160105,289999,79,,,,,,visual_patterns,0,0,0,yes,1366
undefined,undefined,undefined,undefined,white,no,Mozilla,Netscape,5.0 (Windows),xpyriment,legacy,legacy,0,uniform,0,0,0,0,24,24,24,0,0,15,15,15,15,15,0,15,0,,,,,,0,,27-01-22,27-01-22,16:06:55,Sun Feb 27 2022 16:06:55 GMT+0100 (közép-európai téli idő),The main experiment item,yes,0,0,C:/Users/rrics/Documents/!!ResearchBMECOGSCI/gnet,0,0,0,prototype3.png,no,mono,no,18,no,black,no,no,768,1151,3.5.6,legacy,xpyriment,osweb,1.3.13,0,enter,enter,enter,,38411,46566,38411,,2,legacy,860,1600,24,900,24,-8,-8,1600,1645974460387,1024,2,48000,-16,experiment,prototype1.png,1,odd,Win32,79,158579,155574,78,79,301518,303026,296514,160105,296514,79,,,,,,visual_patterns,0,0,0,yes,1366
undefined,undefined,undefined,undefined,white,no,Mozilla,Netscape,5.0 (Windows),xpyriment,legacy,legacy,0,uniform,0,0,0,0,24,24,24,0,0,16,16,16,16,16,0,16,0,,,,,,0,,27-01-22,27-01-22,16:06:55,Sun Feb 27 2022 16:06:55 GMT+0100 (közép-európai téli idő),The main experiment item,yes,0,0,C:/Users/rrics/Documents/!!ResearchBMECOGSCI/gnet,0,0,0,prototype3.png,no,mono,no,18,no,black,no,no,768,1151,3.5.6,legacy,xpyriment,osweb,1.3.13,0,enter,enter,enter,,38411,46566,38411,,2,legacy,860,1600,24,900,24,-8,-8,1600,1645974460387,1024,2,48000,-16,experiment,p2sarr2.png,1,odd,Win32,79,158579,155574,78,79,308039,309542,303046,160105,303046,79,,,,,,visual_patterns,0,0,0,yes,1366
undefined,undefined,undefined,undefined,white,no,Mozilla,Netscape,5.0 (Windows),xpyriment,legacy,legacy,0,uniform,0,0,0,0,24,24,24,0,0,17,17,17,17,17,0,17,0,,,,,,0,,27-01-22,27-01-22,16:06:55,Sun Feb 27 2022 16:06:55 GMT+0100 (közép-európai téli idő),The main experiment item,yes,0,0,C:/Users/rrics/Documents/!!ResearchBMECOGSCI/gnet,0,0,0,prototype3.png,no,mono,no,18,no,black,no,no,768,1151,3.5.6,legacy,xpyriment,osweb,1.3.13,0,enter,enter,enter,,38411,46566,38411,,2,legacy,860,1600,24,900,24,-8,-8,1600,1645974460387,1024,2,48000,-16,experiment,p3sarrsha2.png,1,odd,Win32,79,158579,155574,78,79,314556,316058,309566,160105,309566,79,,,,,,visual_patterns,0,0,0,yes,1366
undefined,undefined,undefined,undefined,white,no,Mozilla,Netscape,5.0 (Windows),xpyriment,legacy,legacy,0,uniform,0,0,0,0,24,24,24,0,0,18,18,18,18,18,0,18,0,,,,,,0,,27-01-22,27-01-22,16:06:55,Sun Feb 27 2022 16:06:55 GMT+0100 (közép-európai téli idő),The main experiment item,yes,0,0,C:/Users/rrics/Documents/!!ResearchBMECOGSCI/gnet,0,0,0,prototype3.png,no,mono,no,18,no,black,no,no,768,1151,3.5.6,legacy,xpyriment,osweb,1.3.13,0,enter,enter,enter,,38411,46566,38411,,2,legacy,860,1600,24,900,24,-8,-8,1600,1645974460387,1024,2,48000,-16,experiment,prototype4.png,1,odd,Win32,79,158579,155574,78,79,321066,322574,316078,160105,316078,79,,,,,,visual_patterns,0,0,0,yes,1366
undefined,undefined,undefined,undefined,white,no,Mozilla,Netscape,5.0 (Windows),xpyriment,legacy,legacy,0,uniform,0,0,0,0,24,24,24,0,0,19,19,19,19,19,0,19,0,,,,,,0,,27-01-22,27-01-22,16:06:55,Sun Feb 27 2022 16:06:55 GMT+0100 (közép-európai téli idő),The main experiment item,yes,0,0,C:/Users/rrics/Documents/!!ResearchBMECOGSCI/gnet,0,0,0,prototype3.png,no,mono,no,18,no,black,no,no,768,1151,3.5.6,legacy,xpyriment,osweb,1.3.13,0,enter,enter,enter,,38411,46566,38411,,2,legacy,860,1600,24,900,24,-8,-8,1600,1645974460387,1024,2,48000,-16,experiment,p3sarrsha1.png,1,odd,Win32,79,158579,155574,78,79,327592,329107,322600,160105,322599,79,,,,,,visual_patterns,0,0,0,yes,1366
undefined,undefined,undefined,undefined,white,no,Mozilla,Netscape,5.0 (Windows),xpyriment,legacy,legacy,0,uniform,0,0,0,0,24,24,24,0,0,20,20,20,20,20,0,20,0,,,,,,0,,27-01-22,27-01-22,16:06:55,Sun Feb 27 2022 16:06:55 GMT+0100 (közép-európai téli idő),The main experiment item,yes,0,0,C:/Users/rrics/Documents/!!ResearchBMECOGSCI/gnet,0,0,0,prototype3.png,no,mono,no,18,no,black,no,no,768,1151,3.5.6,legacy,xpyriment,osweb,1.3.13,0,enter,enter,enter,,38411,46566,38411,,2,legacy,860,1600,24,900,24,-8,-8,1600,1645974460387,1024,2,48000,-16,experiment,prototype2.png,1,odd,Win32,79,158579,155574,78,79,334118,335623,329131,160105,329131,79,,,,,,visual_patterns,0,0,0,yes,1366
undefined,undefined,undefined,undefined,white,no,Mozilla,Netscape,5.0 (Windows),xpyriment,legacy,legacy,0,uniform,0,0,0,0,24,24,24,0,0,21,21,21,21,21,0,21,0,,,,,,0,,27-01-22,27-01-22,16:06:55,Sun Feb 27 2022 16:06:55 GMT+0100 (közép-európai téli idő),The main experiment item,yes,0,0,C:/Users/rrics/Documents/!!ResearchBMECOGSCI/gnet,0,0,0,prototype3.png,no,mono,no,18,no,black,no,no,768,1151,3.5.6,legacy,xpyriment,osweb,1.3.13,0,enter,enter,enter,,38411,46566,38411,,2,legacy,860,1600,24,900,24,-8,-8,1600,1645974460387,1024,2,48000,-16,experiment,p4sarrcol2.png,1,odd,Win32,79,158579,155574,78,79,340638,342155,335651,160105,335651,79,,,,,,visual_patterns,0,0,0,yes,1366
undefined,undefined,undefined,undefined,white,no,Mozilla,Netscape,5.0 (Windows),xpyriment,legacy,legacy,0,uniform,0,0,0,0,24,24,24,0,0,22,22,22,22,22,0,22,0,,,,,,0,,27-01-22,27-01-22,16:06:55,Sun Feb 27 2022 16:06:55 GMT+0100 (közép-európai téli idő),The main experiment item,yes,0,0,C:/Users/rrics/Documents/!!ResearchBMECOGSCI/gnet,0,0,0,prototype3.png,no,mono,no,18,no,black,no,no,768,1151,3.5.6,legacy,xpyriment,osweb,1.3.13,0,enter,enter,enter,,38411,46566,38411,,2,legacy,860,1600,24,900,24,-8,-8,1600,1645974460387,1024,2,48000,-16,experiment,p5sarrshacol1.png,1,odd,Win32,79,158579,155574,78,79,347188,348704,342186,160105,342186,79,,,,,,visual_patterns,0,0,0,yes,1366
undefined,undefined,undefined,undefined,white,no,Mozilla,Netscape,5.0 (Windows),xpyriment,legacy,legacy,0,uniform,0,0,0,0,24,24,24,0,0,23,23,23,23,23,0,23,0,,,,,,0,,27-01-22,27-01-22,16:06:55,Sun Feb 27 2022 16:06:55 GMT+0100 (közép-európai téli idő),The main experiment item,yes,0,0,C:/Users/rrics/Documents/!!ResearchBMECOGSCI/gnet,0,0,0,prototype3.png,no,mono,no,18,no,black,no,no,768,1151,3.5.6,legacy,xpyriment,osweb,1.3.13,0,enter,enter,enter,,38411,46566,38411,,2,legacy,860,1600,24,900,24,-8,-8,1600,1645974460387,1024,2,48000,-16,experiment,prototype2.png,1,odd,Win32,79,158579,155574,78,79,353719,355237,348727,160105,348727,79,,,,,,visual_patterns,0,0,0,yes,1366
undefined,undefined,undefined,undefined,white,no,Mozilla,Netscape,5.0 (Windows),xpyriment,legacy,legacy,0,uniform,0,0,0,0,24,24,24,0,0,24,24,24,24,24,0,24,0,,,,,,0,,27-01-22,27-01-22,16:06:55,Sun Feb 27 2022 16:06:55 GMT+0100 (közép-európai téli idő),The main experiment item,yes,0,0,C:/Users/rrics/Documents/!!ResearchBMECOGSCI/gnet,0,0,0,prototype3.png,no,mono,no,18,no,black,no,no,768,1151,3.5.6,legacy,xpyriment,osweb,1.3.13,0,enter,enter,enter,,38411,46566,38411,,2,legacy,860,1600,24,900,24,-8,-8,1600,1645974460387,1024,2,48000,-16,experiment,p4sarrsha2.png,1,odd,Win32,79,158579,155574,78,79,360248,361753,355260,160105,355260,79,,,,,,visual_patterns,0,0,0,yes,1366
undefined,undefined,undefined,undefined,white,no,Mozilla,Netscape,5.0 (Windows),xpyriment,legacy,legacy,0,uniform,0,0,0,0,24,24,24,0,0,25,25,25,25,25,0,25,0,,,,,,0,,27-01-22,27-01-22,16:06:55,Sun Feb 27 2022 16:06:55 GMT+0100 (közép-európai téli idő),The main experiment item,yes,0,0,C:/Users/rrics/Documents/!!ResearchBMECOGSCI/gnet,0,0,0,prototype3.png,no,mono,no,18,no,black,no,no,768,1151,3.5.6,legacy,xpyriment,osweb,1.3.13,0,enter,enter,enter,,38411,46566,38411,,2,legacy,860,1600,24,900,24,-8,-8,1600,1645974460387,1024,2,48000,-16,experiment,p9sarr1.png,1,odd,Win32,79,158579,155574,78,79,366768,368285,361774,160105,361774,79,,,,,,visual_patterns,0,0,0,yes,1366
undefined,undefined,undefined,undefined,white,no,Mozilla,Netscape,5.0 (Windows),xpyriment,legacy,legacy,0,uniform,0,0,0,0,24,24,24,0,0,26,26,26,26,26,0,26,0,,,,,,0,,27-01-22,27-01-22,16:06:55,Sun Feb 27 2022 16:06:55 GMT+0100 (közép-európai téli idő),The main experiment item,yes,0,0,C:/Users/rrics/Documents/!!ResearchBMECOGSCI/gnet,0,0,0,prototype3.png,no,mono,no,18,no,black,no,no,768,1151,3.5.6,legacy,xpyriment,osweb,1.3.13,0,enter,enter,enter,,38411,46566,38411,,2,legacy,860,1600,24,900,24,-8,-8,1600,1645974460387,1024,2,48000,-16,experiment,prototype1.png,1,odd,Win32,79,158579,155574,78,79,373296,374801,368304,160105,368304,79,,,,,,visual_patterns,0,0,0,yes,1366
undefined,undefined,undefined,undefined,white,no,Mozilla,Netscape,5.0 (Windows),xpyriment,legacy,legacy,0,uniform,0,0,0,0,24,24,24,0,0,27,27,27,27,27,0,27,0,,,,,,0,,27-01-22,27-01-22,16:06:55,Sun Feb 27 2022 16:06:55 GMT+0100 (közép-európai téli idő),The main experiment item,yes,0,0,C:/Users/rrics/Documents/!!ResearchBMECOGSCI/gnet,0,0,0,prototype3.png,no,mono,no,18,no,black,no,no,768,1151,3.5.6,legacy,xpyriment,osweb,1.3.13,0,enter,enter,enter,,38411,46566,38411,,2,legacy,860,1600,24,900,24,-8,-8,1600,1645974460387,1024,2,48000,-16,experiment,p4sarrcol1.png,1,odd,Win32,79,158579,155574,78,79,379827,381333,374825,160105,374825,79,,,,,,visual_patterns,0,0,0,yes,1366
undefined,undefined,undefined,undefined,white,no,Mozilla,Netscape,5.0 (Windows),xpyriment,legacy,legacy,0,uniform,0,0,0,0,24,24,24,0,0,28,28,28,28,28,0,28,0,,,,,,0,,27-01-22,27-01-22,16:06:55,Sun Feb 27 2022 16:06:55 GMT+0100 (közép-európai téli idő),The main experiment item,yes,0,0,C:/Users/rrics/Documents/!!ResearchBMECOGSCI/gnet,0,0,0,prototype3.png,no,mono,no,18,no,black,no,no,768,1151,3.5.6,legacy,xpyriment,osweb,1.3.13,0,enter,enter,enter,,38411,46566,38411,,2,legacy,860,1600,24,900,24,-8,-8,1600,1645974460387,1024,2,48000,-16,experiment,prototype4.png,1,odd,Win32,79,158579,155574,78,79,386353,387866,381351,160105,381351,79,,,,,,visual_patterns,0,0,0,yes,1366
undefined,undefined,undefined,undefined,white,no,Mozilla,Netscape,5.0 (Windows),xpyriment,legacy,legacy,0,uniform,0,0,0,0,24,24,24,0,0,29,29,29,29,29,0,29,0,,,,,,0,,27-01-22,27-01-22,16:06:55,Sun Feb 27 2022 16:06:55 GMT+0100 (közép-európai téli idő),The main experiment item,yes,0,0,C:/Users/rrics/Documents/!!ResearchBMECOGSCI/gnet,0,0,0,prototype3.png,no,mono,no,18,no,black,no,no,768,1151,3.5.6,legacy,xpyriment,osweb,1.3.13,0,enter,enter,enter,,38411,46566,38411,,2,legacy,860,1600,24,900,24,-8,-8,1600,1645974460387,1024,2,48000,-16,experiment,prototype5.png,1,odd,Win32,79,158579,155574,78,79,392891,394398,387890,160105,387890,79,,,,,,visual_patterns,0,0,0,yes,1366
undefined,undefined,undefined,undefined,white,no,Mozilla,Netscape,5.0 (Windows),xpyriment,legacy,legacy,0,uniform,0,0,0,0,24,24,24,0,0,30,30,30,30,30,0,30,0,,,,,,0,,27-01-22,27-01-22,16:06:55,Sun Feb 27 2022 16:06:55 GMT+0100 (közép-európai téli idő),The main experiment item,yes,0,0,C:/Users/rrics/Documents/!!ResearchBMECOGSCI/gnet,0,0,0,prototype3.png,no,mono,no,18,no,black,no,no,768,1151,3.5.6,legacy,xpyriment,osweb,1.3.13,0,enter,enter,enter,,38411,46566,38411,,2,legacy,860,1600,24,900,24,-8,-8,1600,1645974460387,1024,2,48000,-16,experiment,p5sarrcol2.png,1,odd,Win32,79,158579,155574,78,79,399417,400931,394428,160105,394428,79,,,,,,visual_patterns,0,0,0,yes,1366
undefined,undefined,undefined,undefined,white,no,Mozilla,Netscape,5.0 (Windows),xpyriment,legacy,legacy,0,uniform,0,0,0,0,24,24,24,0,0,31,31,31,31,31,0,31,0,,,,,,0,,27-01-22,27-01-22,16:06:55,Sun Feb 27 2022 16:06:55 GMT+0100 (közép-európai téli idő),The main experiment item,yes,0,0,C:/Users/rrics/Documents/!!ResearchBMECOGSCI/gnet,0,0,0,prototype3.png,no,mono,no,18,no,black,no,no,768,1151,3.5.6,legacy,xpyriment,osweb,1.3.13,0,enter,enter,enter,,38411,46566,38411,,2,legacy,860,1600,24,900,24,-8,-8,1600,1645974460387,1024,2,48000,-16,experiment,p2sarrsha2.png,1,odd,Win32,79,158579,155574,78,79,405947,407464,400960,160105,400960,79,,,,,,visual_patterns,0,0,0,yes,1366
undefined,undefined,undefined,undefined,white,no,Mozilla,Netscape,5.0 (Windows),xpyriment,legacy,legacy,0,uniform,0,0,0,0,24,24,24,0,0,32,32,32,32,32,0,32,0,,,,,,0,,27-01-22,27-01-22,16:06:55,Sun Feb 27 2022 16:06:55 GMT+0100 (közép-európai téli idő),The main experiment item,yes,0,0,C:/Users/rrics/Documents/!!ResearchBMECOGSCI/gnet,0,0,0,prototype3.png,no,mono,no,18,no,black,no,no,768,1151,3.5.6,legacy,xpyriment,osweb,1.3.13,0,enter,enter,enter,,38411,46566,38411,,2,legacy,860,1600,24,900,24,-8,-8,1600,1645974460387,1024,2,48000,-16,experiment,p5sarr1.png,1,odd,Win32,79,158579,155574,78,79,412480,413996,407489,160105,407489,79,,,,,,visual_patterns,0,0,0,yes,1366
undefined,undefined,undefined,undefined,white,no,Mozilla,Netscape,5.0 (Windows),xpyriment,legacy,legacy,0,uniform,0,0,0,0,24,24,24,0,0,33,33,33,33,33,0,33,0,,,,,,0,,27-01-22,27-01-22,16:06:55,Sun Feb 27 2022 16:06:55 GMT+0100 (közép-európai téli idő),The main experiment item,yes,0,0,C:/Users/rrics/Documents/!!ResearchBMECOGSCI/gnet,0,0,0,prototype3.png,no,mono,no,18,no,black,no,no,768,1151,3.5.6,legacy,xpyriment,osweb,1.3.13,0,enter,enter,enter,,38411,46566,38411,,2,legacy,860,1600,24,900,24,-8,-8,1600,1645974460387,1024,2,48000,-16,experiment,p3sarrshacol1.png,1,odd,Win32,79,158579,155574,78,79,419019,420529,414019,160105,414019,79,,,,,,visual_patterns,0,0,0,yes,1366
undefined,undefined,undefined,undefined,white,no,Mozilla,Netscape,5.0 (Windows),xpyriment,legacy,legacy,0,uniform,0,0,0,0,24,24,24,0,0,34,34,34,34,34,0,34,0,,,,,,0,,27-01-22,27-01-22,16:06:55,Sun Feb 27 2022 16:06:55 GMT+0100 (közép-európai téli idő),The main experiment item,yes,0,0,C:/Users/rrics/Documents/!!ResearchBMECOGSCI/gnet,0,0,0,prototype3.png,no,mono,no,18,no,black,no,no,768,1151,3.5.6,legacy,xpyriment,osweb,1.3.13,0,enter,enter,enter,,38411,46566,38411,,2,legacy,860,1600,24,900,24,-8,-8,1600,1645974460387,1024,2,48000,-16,experiment,prototype1.png,1,odd,Win32,79,158579,155574,78,79,425543,427045,420547,160105,420547,79,,,,,,visual_patterns,0,0,0,yes,1366
undefined,undefined,undefined,undefined,white,no,Mozilla,Netscape,5.0 (Windows),xpyriment,legacy,legacy,0,uniform,0,0,0,0,24,24,24,0,0,35,35,35,35,35,0,35,0,,,,,,0,,27-01-22,27-01-22,16:06:55,Sun Feb 27 2022 16:06:55 GMT+0100 (közép-európai téli idő),The main experiment item,yes,0,0,C:/Users/rrics/Documents/!!ResearchBMECOGSCI/gnet,0,0,0,prototype3.png,no,mono,no,18,no,black,no,no,768,1151,3.5.6,legacy,xpyriment,osweb,1.3.13,0,enter,enter,enter,,38411,46566,38411,,2,legacy,860,1600,24,900,24,-8,-8,1600,1645974460387,1024,2,48000,-16,experiment,p4sarrshacol1.png,1,odd,Win32,79,158579,155574,78,79,432069,433577,427068,160105,427068,79,,,,,,visual_patterns,0,0,0,yes,1366
undefined,undefined,undefined,undefined,white,no,Mozilla,Netscape,5.0 (Windows),xpyriment,legacy,legacy,0,uniform,0,0,0,0,24,24,24,0,0,36,36,36,36,36,0,36,0,,,,,,0,,27-01-22,27-01-22,16:06:55,Sun Feb 27 2022 16:06:55 GMT+0100 (közép-európai téli idő),The main experiment item,yes,0,0,C:/Users/rrics/Documents/!!ResearchBMECOGSCI/gnet,0,0,0,prototype3.png,no,mono,no,18,no,black,no,no,768,1151,3.5.6,legacy,xpyriment,osweb,1.3.13,0,enter,enter,enter,,38411,46566,38411,,2,legacy,860,1600,24,900,24,-8,-8,1600,1645974460387,1024,2,48000,-16,experiment,prototype3.png,1,odd,Win32,79,158579,155574,78,79,438606,440110,433603,160105,433603,79,,,,,,visual_patterns,0,0,0,yes,1366
undefined,undefined,undefined,undefined,white,no,Mozilla,Netscape,5.0 (Windows),xpyriment,legacy,legacy,0,uniform,0,0,0,0,24,24,24,0,0,37,37,37,37,37,0,37,0,,,,,,0,,27-01-22,27-01-22,16:06:55,Sun Feb 27 2022 16:06:55 GMT+0100 (közép-európai téli idő),The main experiment item,yes,0,0,C:/Users/rrics/Documents/!!ResearchBMECOGSCI/gnet,0,0,0,prototype3.png,no,mono,no,18,no,black,no,no,768,1151,3.5.6,legacy,xpyriment,osweb,1.3.13,0,enter,enter,enter,,38411,46566,38411,,2,legacy,860,1600,24,900,24,-8,-8,1600,1645974460387,1024,2,48000,-16,experiment,prototype3.png,1,odd,Win32,79,158579,155574,78,79,445129,446642,440127,160105,440127,79,,,,,,visual_patterns,0,0,0,yes,1366
undefined,undefined,undefined,undefined,white,no,Mozilla,Netscape,5.0 (Windows),xpyriment,legacy,legacy,0,uniform,0,0,0,0,24,24,24,0,0,38,38,38,38,38,0,38,0,,,,,,0,,27-01-22,27-01-22,16:06:55,Sun Feb 27 2022 16:06:55 GMT+0100 (közép-európai téli idő),The main experiment item,yes,0,0,C:/Users/rrics/Documents/!!ResearchBMECOGSCI/gnet,0,0,0,prototype3.png,no,mono,no,18,no,black,no,no,768,1151,3.5.6,legacy,xpyriment,osweb,1.3.13,0,enter,enter,enter,,38411,46566,38411,,2,legacy,860,1600,24,900,24,-8,-8,1600,1645974460387,1024,2,48000,-16,experiment,p7sarr1.png,1,odd,Win32,79,158579,155574,78,79,451664,453175,446663,160105,446662,79,,,,,,visual_patterns,0,0,0,yes,1366
undefined,undefined,undefined,undefined,white,no,Mozilla,Netscape,5.0 (Windows),xpyriment,legacy,legacy,0,uniform,0,0,0,0,24,24,24,0,0,39,39,39,39,39,0,39,0,,,,,,0,,27-01-22,27-01-22,16:06:55,Sun Feb 27 2022 16:06:55 GMT+0100 (közép-európai téli idő),The main experiment item,yes,0,0,C:/Users/rrics/Documents/!!ResearchBMECOGSCI/gnet,0,0,0,prototype3.png,no,mono,no,18,no,black,no,no,768,1151,3.5.6,legacy,xpyriment,osweb,1.3.13,0,enter,enter,enter,,38411,46566,38411,,2,legacy,860,1600,24,900,24,-8,-8,1600,1645974460387,1024,2,48000,-16,experiment,p1sarrsha1.png,1,odd,Win32,79,158579,155574,78,79,458188,459691,453195,160105,453195,79,,,,,,visual_patterns,0,0,0,yes,1366
undefined,undefined,undefined,undefined,white,no,Mozilla,Netscape,5.0 (Windows),xpyriment,legacy,legacy,0,uniform,0,0,0,0,24,24,24,0,0,40,40,40,40,40,0,40,0,,,,,,0,,27-01-22,27-01-22,16:06:55,Sun Feb 27 2022 16:06:55 GMT+0100 (közép-európai téli idő),The main experiment item,yes,0,0,C:/Users/rrics/Documents/!!ResearchBMECOGSCI/gnet,0,0,0,prototype3.png,no,mono,no,18,no,black,no,no,768,1151,3.5.6,legacy,xpyriment,osweb,1.3.13,0,enter,enter,enter,,38411,46566,38411,,2,legacy,860,1600,24,900,24,-8,-8,1600,1645974460387,1024,2,48000,-16,experiment,prototype5.png,1,odd,Win32,79,158579,155574,78,79,464707,466223,459706,160105,459706,79,,,,,,visual_patterns,0,0,0,yes,1366
undefined,undefined,undefined,undefined,white,no,Mozilla,Netscape,5.0 (Windows),xpyriment,legacy,legacy,0,uniform,0,0,0,0,24,24,24,0,0,41,41,41,41,41,0,41,0,,,,,,0,,27-01-22,27-01-22,16:06:55,Sun Feb 27 2022 16:06:55 GMT+0100 (közép-európai téli idő),The main experiment item,yes,0,0,C:/Users/rrics/Documents/!!ResearchBMECOGSCI/gnet,0,0,0,prototype3.png,no,mono,no,18,no,black,no,no,768,1151,3.5.6,legacy,xpyriment,osweb,1.3.13,0,enter,enter,enter,,38411,46566,38411,,2,legacy,860,1600,24,900,24,-8,-8,1600,1645974460387,1024,2,48000,-16,experiment,p3sarrshacol2.png,1,odd,Win32,79,158579,155574,78,79,471236,472739,466243,160105,466243,79,,,,,,visual_patterns,0,0,0,yes,1366
undefined,undefined,undefined,undefined,white,no,Mozilla,Netscape,5.0 (Windows),xpyriment,legacy,legacy,0,uniform,0,0,0,0,24,24,24,0,0,42,42,42,42,42,0,42,0,,,,,,0,,27-01-22,27-01-22,16:06:55,Sun Feb 27 2022 16:06:55 GMT+0100 (közép-európai téli idő),The main experiment item,yes,0,0,C:/Users/rrics/Documents/!!ResearchBMECOGSCI/gnet,0,0,0,prototype3.png,no,mono,no,18,no,black,no,no,768,1151,3.5.6,legacy,xpyriment,osweb,1.3.13,0,enter,enter,enter,,38411,46566,38411,,2,legacy,860,1600,24,900,24,-8,-8,1600,1645974460387,1024,2,48000,-16,experiment,p3sarrcol2.png,1,odd,Win32,79,158579,155574,78,79,477762,479271,472759,160105,472759,79,,,,,,visual_patterns,0,0,0,yes,1366
undefined,undefined,undefined,undefined,white,no,Mozilla,Netscape,5.0 (Windows),xpyriment,legacy,legacy,0,uniform,0,0,0,0,24,24,24,0,0,43,43,43,43,43,0,43,0,,,,,,0,,27-01-22,27-01-22,16:06:55,Sun Feb 27 2022 16:06:55 GMT+0100 (közép-európai téli idő),The main experiment item,yes,0,0,C:/Users/rrics/Documents/!!ResearchBMECOGSCI/gnet,0,0,0,prototype3.png,no,mono,no,18,no,black,no,no,768,1151,3.5.6,legacy,xpyriment,osweb,1.3.13,0,enter,enter,enter,,38411,46566,38411,,2,legacy,860,1600,24,900,24,-8,-8,1600,1645974460387,1024,2,48000,-16,experiment,p3sarr2.png,1,odd,Win32,79,158579,155574,78,79,484286,485788,479293,160105,479293,79,,,,,,visual_patterns,0,0,0,yes,1366
undefined,undefined,undefined,undefined,white,no,Mozilla,Netscape,5.0 (Windows),xpyriment,legacy,legacy,0,uniform,0,0,0,0,24,24,24,0,0,44,44,44,44,44,0,44,0,,,,,,0,,27-01-22,27-01-22,16:06:55,Sun Feb 27 2022 16:06:55 GMT+0100 (közép-európai téli idő),The main experiment item,yes,0,0,C:/Users/rrics/Documents/!!ResearchBMECOGSCI/gnet,0,0,0,prototype3.png,no,mono,no,18,no,black,no,no,768,1151,3.5.6,legacy,xpyriment,osweb,1.3.13,0,enter,enter,enter,,38411,46566,38411,,2,legacy,860,1600,24,900,24,-8,-8,1600,1645974460387,1024,2,48000,-16,experiment,p2sarrsha1.png,1,odd,Win32,79,158579,155574,78,79,490802,492303,485808,160105,485808,79,,,,,,visual_patterns,0,0,0,yes,1366
undefined,undefined,undefined,undefined,white,no,Mozilla,Netscape,5.0 (Windows),xpyriment,legacy,legacy,0,uniform,0,0,0,0,24,24,24,0,0,45,45,45,45,45,0,45,0,,,,,,0,,27-01-22,27-01-22,16:06:55,Sun Feb 27 2022 16:06:55 GMT+0100 (közép-európai téli idő),The main experiment item,yes,0,0,C:/Users/rrics/Documents/!!ResearchBMECOGSCI/gnet,0,0,0,prototype3.png,no,mono,no,18,no,black,no,no,768,1151,3.5.6,legacy,xpyriment,osweb,1.3.13,0,enter,enter,enter,,38411,46566,38411,,2,legacy,860,1600,24,900,24,-8,-8,1600,1645974460387,1024,2,48000,-16,experiment,p4sarrsha1.png,1,odd,Win32,79,158579,155574,78,79,497313,498819,492326,160105,492326,79,,,,,,visual_patterns,0,0,0,yes,1366
undefined,undefined,undefined,undefined,white,no,Mozilla,Netscape,5.0 (Windows),xpyriment,legacy,legacy,0,uniform,0,0,0,0,24,24,24,0,0,46,46,46,46,46,0,46,0,,,,,,0,,27-01-22,27-01-22,16:06:55,Sun Feb 27 2022 16:06:55 GMT+0100 (közép-európai téli idő),The main experiment item,yes,0,0,C:/Users/rrics/Documents/!!ResearchBMECOGSCI/gnet,0,0,0,prototype3.png,no,mono,no,18,no,black,no,no,768,1151,3.5.6,legacy,xpyriment,osweb,1.3.13,0,enter,enter,enter,,38411,46566,38411,,2,legacy,860,1600,24,900,24,-8,-8,1600,1645974460387,1024,2,48000,-16,experiment,p1sarrcol1.png,1,odd,Win32,79,158579,155574,78,79,503838,505352,498843,160105,498843,79,,,,,,visual_patterns,0,0,0,yes,1366
undefined,undefined,undefined,undefined,white,no,Mozilla,Netscape,5.0 (Windows),xpyriment,legacy,legacy,0,uniform,0,0,0,0,24,24,24,0,0,47,47,47,47,47,0,47,0,,,,,,0,,27-01-22,27-01-22,16:06:55,Sun Feb 27 2022 16:06:55 GMT+0100 (közép-európai téli idő),The main experiment item,yes,0,0,C:/Users/rrics/Documents/!!ResearchBMECOGSCI/gnet,0,0,0,prototype3.png,no,mono,no,18,no,black,no,no,768,1151,3.5.6,legacy,xpyriment,osweb,1.3.13,0,enter,enter,enter,,38411,46566,38411,,2,legacy,860,1600,24,900,24,-8,-8,1600,1645974460387,1024,2,48000,-16,experiment,p1sarrsha2.png,1,odd,Win32,79,158579,155574,78,79,510365,511868,505374,160105,505374,79,,,,,,visual_patterns,0,0,0,yes,1366
undefined,undefined,undefined,undefined,white,no,Mozilla,Netscape,5.0 (Windows),xpyriment,legacy,legacy,0,uniform,0,0,0,0,24,24,24,0,0,48,48,48,48,48,0,48,0,,,,,,0,,27-01-22,27-01-22,16:06:55,Sun Feb 27 2022 16:06:55 GMT+0100 (közép-európai téli idő),The main experiment item,yes,0,0,C:/Users/rrics/Documents/!!ResearchBMECOGSCI/gnet,0,0,0,prototype3.png,no,mono,no,18,no,black,no,no,768,1151,3.5.6,legacy,xpyriment,osweb,1.3.13,0,enter,enter,enter,,38411,46566,38411,,2,legacy,860,1600,24,900,24,-8,-8,1600,1645974460387,1024,2,48000,-16,experiment,p7sarr2.png,1,odd,Win32,79,158579,155574,78,79,516878,518384,511892,160105,511892,79,,,,,,visual_patterns,0,0,0,yes,1366
undefined,undefined,undefined,undefined,white,no,Mozilla,Netscape,5.0 (Windows),xpyriment,legacy,legacy,0,uniform,0,0,0,0,24,24,24,0,0,49,49,49,49,49,0,49,0,,,,,,0,,27-01-22,27-01-22,16:06:55,Sun Feb 27 2022 16:06:55 GMT+0100 (közép-európai téli idő),The main experiment item,yes,0,0,C:/Users/rrics/Documents/!!ResearchBMECOGSCI/gnet,0,0,0,prototype3.png,no,mono,no,18,no,black,no,no,768,1151,3.5.6,legacy,xpyriment,osweb,1.3.13,0,enter,enter,enter,,38411,46566,38411,,2,legacy,860,1600,24,900,24,-8,-8,1600,1645974460387,1024,2,48000,-16,experiment,p4sarr1.png,1,odd,Win32,79,158579,155574,78,79,523408,524916,518412,160105,518412,79,,,,,,visual_patterns,0,0,0,yes,1366
undefined,undefined,undefined,undefined,white,no,Mozilla,Netscape,5.0 (Windows),xpyriment,legacy,legacy,0,uniform,0,0,0,0,24,24,24,0,0,50,50,50,50,50,0,50,0,,,,,,0,,27-01-22,27-01-22,16:06:55,Sun Feb 27 2022 16:06:55 GMT+0100 (közép-európai téli idő),The main experiment item,yes,0,0,C:/Users/rrics/Documents/!!ResearchBMECOGSCI/gnet,0,0,0,prototype3.png,no,mono,no,18,no,black,no,no,768,1151,3.5.6,legacy,xpyriment,osweb,1.3.13,0,enter,enter,enter,,38411,46566,38411,,2,legacy,860,1600,24,900,24,-8,-8,1600,1645974460387,1024,2,48000,-16,experiment,p10sarr1.png,1,odd,Win32,79,158579,155574,78,79,529937,531448,524942,160105,524942,79,,,,,,visual_patterns,0,0,0,yes,1366
undefined,undefined,undefined,undefined,white,no,Mozilla,Netscape,5.0 (Windows),xpyriment,legacy,legacy,0,uniform,0,0,0,0,24,24,24,0,0,51,51,51,51,51,0,51,0,,,,,,0,,27-01-22,27-01-22,16:06:55,Sun Feb 27 2022 16:06:55 GMT+0100 (közép-európai téli idő),The main experiment item,yes,0,0,C:/Users/rrics/Documents/!!ResearchBMECOGSCI/gnet,0,0,0,prototype3.png,no,mono,no,18,no,black,no,no,768,1151,3.5.6,legacy,xpyriment,osweb,1.3.13,0,enter,enter,enter,,38411,46566,38411,,2,legacy,860,1600,24,900,24,-8,-8,1600,1645974460387,1024,2,48000,-16,experiment,prototype3.png,1,odd,Win32,79,158579,155574,78,79,536461,537964,531471,160105,531470,79,,,,,,visual_patterns,0,0,0,yes,1366
undefined,undefined,undefined,undefined,white,no,Mozilla,Netscape,5.0 (Windows),xpyriment,legacy,legacy,0,uniform,0,0,0,0,24,24,24,0,0,52,52,52,52,52,0,52,0,,,,,,0,,27-01-22,27-01-22,16:06:55,Sun Feb 27 2022 16:06:55 GMT+0100 (közép-európai téli idő),The main experiment item,yes,0,0,C:/Users/rrics/Documents/!!ResearchBMECOGSCI/gnet,0,0,0,prototype3.png,no,mono,no,18,no,black,no,no,768,1151,3.5.6,legacy,xpyriment,osweb,1.3.13,0,enter,enter,enter,,38411,46566,38411,,2,legacy,860,1600,24,900,24,-8,-8,1600,1645974460387,1024,2,48000,-16,experiment,p1sarr1.png,1,odd,Win32,79,158579,155574,78,79,542978,544480,537987,160105,537987,79,,,,,,visual_patterns,0,0,0,yes,1366
undefined,undefined,undefined,undefined,white,no,Mozilla,Netscape,5.0 (Windows),xpyriment,legacy,legacy,0,uniform,0,0,0,0,24,24,24,0,0,53,53,53,53,53,0,53,0,,,,,,0,,27-01-22,27-01-22,16:06:55,Sun Feb 27 2022 16:06:55 GMT+0100 (közép-európai téli idő),The main experiment item,yes,0,0,C:/Users/rrics/Documents/!!ResearchBMECOGSCI/gnet,0,0,0,prototype3.png,no,mono,no,18,no,black,no,no,768,1151,3.5.6,legacy,xpyriment,osweb,1.3.13,0,enter,enter,enter,,38411,46566,38411,,2,legacy,860,1600,24,900,24,-8,-8,1600,1645974460387,1024,2,48000,-16,experiment,p1sarrcol2.png,1,odd,Win32,79,158579,155574,78,79,549503,551013,544502,160105,544502,79,,,,,,visual_patterns,0,0,0,yes,1366
undefined,undefined,undefined,undefined,white,no,Mozilla,Netscape,5.0 (Windows),xpyriment,legacy,legacy,0,uniform,0,0,0,0,24,24,24,0,0,54,54,54,54,54,0,54,0,,,,,,0,,27-01-22,27-01-22,16:06:55,Sun Feb 27 2022 16:06:55 GMT+0100 (közép-európai téli idő),The main experiment item,yes,0,0,C:/Users/rrics/Documents/!!ResearchBMECOGSCI/gnet,0,0,0,prototype3.png,no,mono,no,18,no,black,no,no,768,1151,3.5.6,legacy,xpyriment,osweb,1.3.13,0,enter,enter,enter,,38411,46566,38411,,2,legacy,860,1600,24,900,24,-8,-8,1600,1645974460387,1024,2,48000,-16,experiment,p2sarrcol2.png,1,odd,Win32,79,158579,155574,78,79,556027,557528,551035,160105,551035,79,,,,,,visual_patterns,0,0,0,yes,1366
undefined,undefined,undefined,undefined,white,no,Mozilla,Netscape,5.0 (Windows),xpyriment,legacy,legacy,0,uniform,0,0,0,0,24,24,24,0,0,55,55,55,55,55,0,55,0,,,,,,0,,27-01-22,27-01-22,16:06:55,Sun Feb 27 2022 16:06:55 GMT+0100 (közép-európai téli idő),The main experiment item,yes,0,0,C:/Users/rrics/Documents/!!ResearchBMECOGSCI/gnet,0,0,0,prototype3.png,no,mono,no,18,no,black,no,no,768,1151,3.5.6,legacy,xpyriment,osweb,1.3.13,0,enter,enter,enter,,38411,46566,38411,,2,legacy,860,1600,24,900,24,-8,-8,1600,1645974460387,1024,2,48000,-16,experiment,prototype4.png,1,odd,Win32,79,158579,155574,78,79,562553,564061,557550,160105,557550,79,,,,,,visual_patterns,0,0,0,yes,1366
undefined,undefined,undefined,undefined,white,no,Mozilla,Netscape,5.0 (Windows),xpyriment,legacy,legacy,0,uniform,0,0,0,0,24,24,24,0,0,56,56,56,56,56,0,56,0,,,,,,0,,27-01-22,27-01-22,16:06:55,Sun Feb 27 2022 16:06:55 GMT+0100 (közép-európai téli idő),The main experiment item,yes,0,0,C:/Users/rrics/Documents/!!ResearchBMECOGSCI/gnet,0,0,0,prototype3.png,no,mono,no,18,no,black,no,no,768,1151,3.5.6,legacy,xpyriment,osweb,1.3.13,0,enter,enter,enter,,38411,46566,38411,,2,legacy,860,1600,24,900,24,-8,-8,1600,1645974460387,1024,2,48000,-16,experiment,p2sarrshacol1.png,1,odd,Win32,79,158579,155574,78,79,569077,570594,564081,160105,564081,79,,,,,,visual_patterns,0,0,0,yes,1366
undefined,undefined,undefined,undefined,white,no,Mozilla,Netscape,5.0 (Windows),xpyriment,legacy,legacy,0,uniform,0,0,0,0,24,24,24,0,0,57,57,57,57,57,0,57,0,,,,,,0,,27-01-22,27-01-22,16:06:55,Sun Feb 27 2022 16:06:55 GMT+0100 (közép-európai téli idő),The main experiment item,yes,0,0,C:/Users/rrics/Documents/!!ResearchBMECOGSCI/gnet,0,0,0,prototype3.png,no,mono,no,18,no,black,no,no,768,1151,3.5.6,legacy,xpyriment,osweb,1.3.13,0,enter,enter,enter,,38411,46566,38411,,2,legacy,860,1600,24,900,24,-8,-8,1600,1645974460387,1024,2,48000,-16,experiment,prototype5.png,1,odd,Win32,79,158579,155574,78,79,575620,577126,570616,160105,570616,79,,,,,,visual_patterns,0,0,0,yes,1366
undefined,undefined,undefined,undefined,white,no,Mozilla,Netscape,5.0 (Windows),xpyriment,legacy,legacy,0,uniform,0,0,0,0,24,24,24,0,0,58,58,58,58,58,0,58,0,,,,,,0,,27-01-22,27-01-22,16:06:55,Sun Feb 27 2022 16:06:55 GMT+0100 (közép-európai téli idő),The main experiment item,yes,0,0,C:/Users/rrics/Documents/!!ResearchBMECOGSCI/gnet,0,0,0,prototype3.png,no,mono,no,18,no,black,no,no,768,1151,3.5.6,legacy,xpyriment,osweb,1.3.13,0,enter,enter,enter,,38411,46566,38411,,2,legacy,860,1600,24,900,24,-8,-8,1600,1645974460387,1024,2,48000,-16,experiment,prototype2.png,1,odd,Win32,79,158579,155574,78,79,582157,583658,577154,160105,577154,79,,,,,,visual_patterns,0,0,0,yes,1366
undefined,undefined,undefined,undefined,white,no,Mozilla,Netscape,5.0 (Windows),xpyriment,legacy,legacy,0,uniform,0,0,0,0,24,24,24,0,0,59,59,59,59,59,0,59,0,,,,,,0,,27-01-22,27-01-22,16:06:55,Sun Feb 27 2022 16:06:55 GMT+0100 (közép-európai téli idő),The main experiment item,yes,0,0,C:/Users/rrics/Documents/!!ResearchBMECOGSCI/gnet,0,0,0,prototype3.png,no,mono,no,18,no,black,no,no,768,1151,3.5.6,legacy,xpyriment,osweb,1.3.13,0,enter,enter,enter,,38411,46566,38411,,2,legacy,860,1600,24,900,24,-8,-8,1600,1645974460387,1024,2,48000,-16,experiment,prototype5.png,1,odd,Win32,79,158579,155574,78,79,588684,590191,583681,160105,583681,79,,,,,,visual_patterns,0,0,0,yes,1366
undefined,undefined,undefined,undefined,white,no,Mozilla,Netscape,5.0 (Windows),xpyriment,legacy,legacy,0,uniform,0,0,0,0,24,24,24,0,0,60,60,60,60,60,0,60,0,,,,,,0,,27-01-22,27-01-22,16:06:55,Sun Feb 27 2022 16:06:55 GMT+0100 (közép-európai téli idő),The main experiment item,yes,0,0,C:/Users/rrics/Documents/!!ResearchBMECOGSCI/gnet,0,0,0,prototype3.png,no,mono,no,18,no,black,no,no,768,1151,3.5.6,legacy,xpyriment,osweb,1.3.13,0,enter,enter,enter,,38411,46566,38411,,2,legacy,860,1600,24,900,24,-8,-8,1600,1645974460387,1024,2,48000,-16,experiment,p1sarrshacol2.png,1,odd,Win32,79,158579,155574,78,79,595213,596724,590215,160105,590215,79,,,,,,visual_patterns,0,0,0,yes,1366
undefined,undefined,undefined,undefined,white,no,Mozilla,Netscape,5.0 (Windows),xpyriment,legacy,legacy,0,uniform,0,0,0,0,24,24,24,0,0,61,61,61,61,61,0,61,0,,,,,,0,,27-01-22,27-01-22,16:06:55,Sun Feb 27 2022 16:06:55 GMT+0100 (közép-európai téli idő),The main experiment item,yes,0,0,C:/Users/rrics/Documents/!!ResearchBMECOGSCI/gnet,0,0,0,prototype3.png,no,mono,no,18,no,black,no,no,768,1151,3.5.6,legacy,xpyriment,osweb,1.3.13,0,enter,enter,enter,,38411,46566,38411,,2,legacy,860,1600,24,900,24,-8,-8,1600,1645974460387,1024,2,48000,-16,experiment,p2sarrcol1.png,1,odd,Win32,79,158579,155574,78,79,601745,603256,596746,160105,596746,79,,,,,,visual_patterns,0,0,0,yes,1366
undefined,undefined,undefined,undefined,white,no,Mozilla,Netscape,5.0 (Windows),xpyriment,legacy,legacy,0,uniform,0,0,0,0,24,24,24,0,0,62,62,62,62,62,0,62,0,,,,,,0,,27-01-22,27-01-22,16:06:55,Sun Feb 27 2022 16:06:55 GMT+0100 (közép-európai téli idő),The main experiment item,yes,0,0,C:/Users/rrics/Documents/!!ResearchBMECOGSCI/gnet,0,0,0,prototype3.png,no,mono,no,18,no,black,no,no,768,1151,3.5.6,legacy,xpyriment,osweb,1.3.13,0,enter,enter,enter,,38411,46566,38411,,2,legacy,860,1600,24,900,24,-8,-8,1600,1645974460387,1024,2,48000,-16,experiment,p5sarr2.png,1,odd,Win32,79,158579,155574,78,79,608274,609788,603278,160105,603278,79,,,,,,visual_patterns,0,0,0,yes,1366
undefined,undefined,undefined,undefined,white,no,Mozilla,Netscape,5.0 (Windows),xpyriment,legacy,legacy,0,uniform,0,0,0,0,24,24,24,0,0,63,63,63,63,63,0,63,0,,,,,,0,,27-01-22,27-01-22,16:06:55,Sun Feb 27 2022 16:06:55 GMT+0100 (közép-európai téli idő),The main experiment item,yes,0,0,C:/Users/rrics/Documents/!!ResearchBMECOGSCI/gnet,0,0,0,prototype3.png,no,mono,no,18,no,black,no,no,768,1151,3.5.6,legacy,xpyriment,osweb,1.3.13,0,enter,enter,enter,,38411,46566,38411,,2,legacy,860,1600,24,900,24,-8,-8,1600,1645974460387,1024,2,48000,-16,experiment,p10sarr2.png,1,odd,Win32,79,158579,155574,78,79,614804,616305,609812,160105,609812,79,,,,,,visual_patterns,0,0,0,yes,1366
undefined,undefined,undefined,undefined,white,no,Mozilla,Netscape,5.0 (Windows),xpyriment,legacy,legacy,0,uniform,0,0,0,0,24,24,24,0,0,64,64,64,64,64,0,64,0,,,,,,0,,27-01-22,27-01-22,16:06:55,Sun Feb 27 2022 16:06:55 GMT+0100 (közép-európai téli idő),The main experiment item,yes,0,0,C:/Users/rrics/Documents/!!ResearchBMECOGSCI/gnet,0,0,0,prototype3.png,no,mono,no,18,no,black,no,no,768,1151,3.5.6,legacy,xpyriment,osweb,1.3.13,0,enter,enter,enter,,38411,46566,38411,,2,legacy,860,1600,24,900,24,-8,-8,1600,1645974460387,1024,2,48000,-16,experiment,prototype1.png,1,odd,Win32,79,158579,155574,78,79,621316,622821,616325,160105,616325,79,,,,,,visual_patterns,0,0,0,yes,1366
undefined,undefined,undefined,undefined,white,no,Mozilla,Netscape,5.0 (Windows),xpyriment,legacy,legacy,0,uniform,0,0,0,0,24,24,24,0,0,65,65,65,65,65,0,65,0,,,,,,0,,27-01-22,27-01-22,16:06:55,Sun Feb 27 2022 16:06:55 GMT+0100 (közép-európai téli idő),The main experiment item,yes,0,0,C:/Users/rrics/Documents/!!ResearchBMECOGSCI/gnet,0,0,0,prototype3.png,no,mono,no,18,no,black,no,no,768,1151,3.5.6,legacy,xpyriment,osweb,1.3.13,0,enter,enter,enter,,38411,46566,38411,,2,legacy,860,1600,24,900,24,-8,-8,1600,1645974460387,1024,2,48000,-16,experiment,prototype4.png,1,odd,Win32,79,158579,155574,78,79,627831,629336,622838,160105,622838,79,,,,,,visual_patterns,0,0,0,yes,1366
undefined,undefined,undefined,undefined,white,no,Mozilla,Netscape,5.0 (Windows),xpyriment,legacy,legacy,0,uniform,0,0,0,0,24,24,24,0,0,66,66,66,66,66,0,66,0,,,,,,0,,27-01-22,27-01-22,16:06:55,Sun Feb 27 2022 16:06:55 GMT+0100 (közép-európai téli idő),The main experiment item,yes,0,0,C:/Users/rrics/Documents/!!ResearchBMECOGSCI/gnet,0,0,0,prototype3.png,no,mono,no,18,no,black,no,no,768,1151,3.5.6,legacy,xpyriment,osweb,1.3.13,0,enter,enter,enter,,38411,46566,38411,,2,legacy,860,1600,24,900,24,-8,-8,1600,1645974460387,1024,2,48000,-16,experiment,p2sarrshacol2.png,1,odd,Win32,79,158579,155574,78,79,634356,635868,629358,160105,629358,79,,,,,,visual_patterns,0,0,0,yes,1366
undefined,undefined,undefined,undefined,white,no,Mozilla,Netscape,5.0 (Windows),xpyriment,legacy,legacy,0,uniform,0,0,0,0,24,24,24,0,0,67,67,67,67,67,0,67,0,,,,,,0,,27-01-22,27-01-22,16:06:55,Sun Feb 27 2022 16:06:55 GMT+0100 (közép-európai téli idő),The main experiment item,yes,0,0,C:/Users/rrics/Documents/!!ResearchBMECOGSCI/gnet,0,0,0,prototype3.png,no,mono,no,18,no,black,no,no,768,1151,3.5.6,legacy,xpyriment,osweb,1.3.13,0,enter,enter,enter,,38411,46566,38411,,2,legacy,860,1600,24,900,24,-8,-8,1600,1645974460387,1024,2,48000,-16,experiment,p1sarr2.png,1,odd,Win32,79,158579,155574,78,79,640880,642384,635891,160105,635891,79,,,,,,visual_patterns,0,0,0,yes,1366
undefined,undefined,undefined,undefined,white,no,Mozilla,Netscape,5.0 (Windows),xpyriment,legacy,legacy,0,uniform,0,0,0,0,24,24,24,0,0,68,68,68,68,68,0,68,0,,,,,,0,,27-01-22,27-01-22,16:06:55,Sun Feb 27 2022 16:06:55 GMT+0100 (közép-európai téli idő),The main experiment item,yes,0,0,C:/Users/rrics/Documents/!!ResearchBMECOGSCI/gnet,0,0,0,prototype3.png,no,mono,no,18,no,black,no,no,768,1151,3.5.6,legacy,xpyriment,osweb,1.3.13,0,enter,enter,enter,,38411,46566,38411,,2,legacy,860,1600,24,900,24,-8,-8,1600,1645974460387,1024,2,48000,-16,experiment,p6sarr2.png,1,odd,Win32,79,158579,155574,78,79,647405,648917,642409,160105,642409,79,,,,,,visual_patterns,0,0,0,yes,1366
undefined,undefined,undefined,undefined,white,no,Mozilla,Netscape,5.0 (Windows),xpyriment,legacy,legacy,0,uniform,0,0,0,0,24,24,24,0,0,69,69,69,69,69,0,69,0,,,,,,0,,27-01-22,27-01-22,16:06:55,Sun Feb 27 2022 16:06:55 GMT+0100 (közép-európai téli idő),The main experiment item,yes,0,0,C:/Users/rrics/Documents/!!ResearchBMECOGSCI/gnet,0,0,0,prototype3.png,no,mono,no,18,no,black,no,no,768,1151,3.5.6,legacy,xpyriment,osweb,1.3.13,0,enter,enter,enter,,38411,46566,38411,,2,legacy,860,1600,24,900,24,-8,-8,1600,1645974460387,1024,2,48000,-16,experiment,prototype2.png,1,odd,Win32,79,158579,155574,78,79,653935,655450,648934,160105,648934,79,,,,,,visual_patterns,0,0,0,yes,1366
undefined,undefined,undefined,undefined,white,no,Mozilla,Netscape,5.0 (Windows),xpyriment,legacy,legacy,0,uniform,0,0,0,0,24,24,24,0,0,70,70,70,70,70,0,70,0,,,,,,0,,27-01-22,27-01-22,16:06:55,Sun Feb 27 2022 16:06:55 GMT+0100 (közép-európai téli idő),The main experiment item,yes,0,0,C:/Users/rrics/Documents/!!ResearchBMECOGSCI/gnet,0,0,0,prototype3.png,no,mono,no,18,no,black,no,no,768,1151,3.5.6,legacy,xpyriment,osweb,1.3.13,0,enter,enter,enter,,38411,46566,38411,,2,legacy,860,1600,24,900,24,-8,-8,1600,1645974460387,1024,2,48000,-16,experiment,p1sarrshacol1.png,1,odd,Win32,79,158579,155574,78,79,660467,661983,655470,160105,655470,79,,,,,,visual_patterns,0,0,0,yes,1366
undefined,undefined,undefined,undefined,white,no,Mozilla,Netscape,5.0 (Windows),xpyriment,legacy,legacy,0,uniform,0,0,0,0,24,24,24,0,0,71,71,71,71,71,0,71,0,,,,,,0,,27-01-22,27-01-22,16:06:55,Sun Feb 27 2022 16:06:55 GMT+0100 (közép-európai téli idő),The main experiment item,yes,0,0,C:/Users/rrics/Documents/!!ResearchBMECOGSCI/gnet,0,0,0,prototype3.png,no,mono,no,18,no,black,no,no,768,1151,3.5.6,legacy,xpyriment,osweb,1.3.13,0,enter,enter,enter,,38411,46566,38411,,2,legacy,860,1600,24,900,24,-8,-8,1600,1645974460387,1024,2,48000,-16,experiment,prototype1.png,1,odd,Win32,79,158579,155574,78,79,666989,668498,661998,160105,661998,79,,,,,,visual_patterns,0,0,0,yes,1366
undefined,undefined,undefined,undefined,white,no,Mozilla,Netscape,5.0 (Windows),xpyriment,legacy,legacy,0,uniform,0,0,0,0,24,24,24,0,0,72,72,72,72,72,0,72,0,,,,,,0,,27-01-22,27-01-22,16:06:55,Sun Feb 27 2022 16:06:55 GMT+0100 (közép-európai téli idő),The main experiment item,yes,0,0,C:/Users/rrics/Documents/!!ResearchBMECOGSCI/gnet,0,0,0,prototype3.png,no,mono,no,18,no,black,no,no,768,1151,3.5.6,legacy,xpyriment,osweb,1.3.13,0,enter,enter,enter,,38411,46566,38411,,2,legacy,860,1600,24,900,24,-8,-8,1600,1645974460387,1024,2,48000,-16,experiment,prototype5.png,1,odd,Win32,79,158579,155574,78,79,673508,675014,668520,160105,668519,79,,,,,,visual_patterns,0,0,0,yes,1366
undefined,undefined,undefined,undefined,white,no,Mozilla,Netscape,5.0 (Windows),xpyriment,legacy,legacy,0,uniform,0,0,0,0,24,24,24,0,0,73,73,73,73,73,0,73,0,,,,,,0,,27-01-22,27-01-22,16:06:55,Sun Feb 27 2022 16:06:55 GMT+0100 (közép-európai téli idő),The main experiment item,yes,0,0,C:/Users/rrics/Documents/!!ResearchBMECOGSCI/gnet,0,0,0,prototype3.png,no,mono,no,18,no,black,no,no,768,1151,3.5.6,legacy,xpyriment,osweb,1.3.13,0,enter,enter,enter,,38411,46566,38411,,2,legacy,860,1600,24,900,24,-8,-8,1600,1645974460387,1024,2,48000,-16,experiment,prototype3.png,1,odd,Win32,79,158579,155574,78,79,680036,681546,675034,160105,675034,79,,,,,,visual_patterns,0,0,0,yes,1366
undefined,undefined,undefined,undefined,white,no,Mozilla,Netscape,5.0 (Windows),xpyriment,legacy,legacy,0,uniform,0,0,0,0,24,24,24,0,0,74,74,74,74,74,0,74,0,,,,,,0,,27-01-22,27-01-22,16:06:55,Sun Feb 27 2022 16:06:55 GMT+0100 (közép-európai téli idő),The main experiment item,yes,0,0,C:/Users/rrics/Documents/!!ResearchBMECOGSCI/gnet,0,0,0,prototype3.png,no,mono,no,18,no,black,no,no,768,1151,3.5.6,legacy,xpyriment,osweb,1.3.13,0,enter,enter,enter,,38411,46566,38411,,2,legacy,860,1600,24,900,24,-8,-8,1600,1645974460387,1024,2,48000,-16,experiment,prototype2.png,1,odd,Win32,79,158579,155574,78,79,686554,688062,681564,160105,681564,79,,,,,,visual_patterns,0,0,0,yes,1366
undefined,undefined,undefined,undefined,white,no,Mozilla,Netscape,5.0 (Windows),xpyriment,legacy,legacy,0,uniform,0,0,0,0,24,24,24,0,0,74,74,74,74,74,0,74,0,0,0,0,0,0,0,0,27-01-22,27-01-22,16:06:55,Sun Feb 27 2022 16:06:55 GMT+0100 (közép-európai téli idő),The main experiment item,yes,0,0,C:/Users/rrics/Documents/!!ResearchBMECOGSCI/gnet,0,0,0,prototype3.png,no,mono,no,18,no,black,no,no,768,1151,3.5.6,legacy,xpyriment,osweb,1.3.13,0,right,enter,enter,right,33584,46566,38411,33584,2,legacy,860,1600,24,900,24,-8,-8,1600,1645974460387,1024,2,48000,-16,experiment,p5sarrsha3.png,1,odd,Win32,79,158579,155574,78,79,686554,688062,681564,160105,681564,79,724701,726208,721703,688075,721703,visual_patterns,0,0,0,yes,1366
undefined,undefined,undefined,undefined,white,no,Mozilla,Netscape,5.0 (Windows),xpyriment,legacy,legacy,0,uniform,0,0,0,0,24,24,24,0,0,74,74,74,74,74,0,74,0,1,1,1,1,1,0,1,27-01-22,27-01-22,16:06:55,Sun Feb 27 2022 16:06:55 GMT+0100 (közép-európai téli idő),The main experiment item,yes,0,0,C:/Users/rrics/Documents/!!ResearchBMECOGSCI/gnet,0,0,0,prototype3.png,no,mono,no,18,no,black,no,no,768,1151,3.5.6,legacy,xpyriment,osweb,1.3.13,0,right,enter,enter,right,33584,46566,38411,33584,2,legacy,860,1600,24,900,24,-8,-8,1600,1645974460387,1024,2,48000,-16,experiment,p2sarrshacol1.png,1,odd,Win32,79,158579,155574,78,79,686554,688062,681564,160105,681564,79,729225,730740,726236,688075,726236,visual_patterns,0,0,0,yes,1366
undefined,undefined,undefined,undefined,white,no,Mozilla,Netscape,5.0 (Windows),xpyriment,legacy,legacy,0,uniform,0,0,0,0,24,24,24,0,0,74,74,74,74,74,0,74,0,2,2,2,2,2,0,2,27-01-22,27-01-22,16:06:55,Sun Feb 27 2022 16:06:55 GMT+0100 (közép-európai téli idő),The main experiment item,yes,0,0,C:/Users/rrics/Documents/!!ResearchBMECOGSCI/gnet,0,0,0,prototype3.png,no,mono,no,18,no,black,no,no,768,1151,3.5.6,legacy,xpyriment,osweb,1.3.13,0,right,enter,enter,right,33584,46566,38411,33584,2,legacy,860,1600,24,900,24,-8,-8,1600,1645974460387,1024,2,48000,-16,experiment,p4sarr4.png,1,odd,Win32,79,158579,155574,78,79,686554,688062,681564,160105,681564,79,733765,735273,730775,688075,730775,visual_patterns,0,0,0,yes,1366
undefined,undefined,undefined,undefined,white,no,Mozilla,Netscape,5.0 (Windows),xpyriment,legacy,legacy,0,uniform,0,0,0,0,24,24,24,0,0,74,74,74,74,74,0,74,0,3,3,3,3,3,0,3,27-01-22,27-01-22,16:06:55,Sun Feb 27 2022 16:06:55 GMT+0100 (közép-európai téli idő),The main experiment item,yes,0,0,C:/Users/rrics/Documents/!!ResearchBMECOGSCI/gnet,0,0,0,prototype3.png,no,mono,no,18,no,black,no,no,768,1151,3.5.6,legacy,xpyriment,osweb,1.3.13,0,right,enter,enter,right,33584,46566,38411,33584,2,legacy,860,1600,24,900,24,-8,-8,1600,1645974460387,1024,2,48000,-16,experiment,p5sarrsha2.png,1,odd,Win32,79,158579,155574,78,79,686554,688062,681564,160105,681564,79,738292,739806,735305,688075,735304,visual_patterns,0,0,0,yes,1366
undefined,undefined,undefined,undefined,white,no,Mozilla,Netscape,5.0 (Windows),xpyriment,legacy,legacy,0,uniform,0,0,0,0,24,24,24,0,0,74,74,74,74,74,0,74,0,4,4,4,4,4,0,4,27-01-22,27-01-22,16:06:55,Sun Feb 27 2022 16:06:55 GMT+0100 (közép-európai téli idő),The main experiment item,yes,0,0,C:/Users/rrics/Documents/!!ResearchBMECOGSCI/gnet,0,0,0,prototype3.png,no,mono,no,18,no,black,no,no,768,1151,3.5.6,legacy,xpyriment,osweb,1.3.13,0,right,enter,enter,right,33584,46566,38411,33584,2,legacy,860,1600,24,900,24,-8,-8,1600,1645974460387,1024,2,48000,-16,experiment,p7sarr2.png,1,odd,Win32,79,158579,155574,78,79,686554,688062,681564,160105,681564,79,742835,744339,739834,688075,739834,visual_patterns,0,0,0,yes,1366
undefined,undefined,undefined,undefined,white,no,Mozilla,Netscape,5.0 (Windows),xpyriment,legacy,legacy,0,uniform,0,0,0,0,24,24,24,0,0,74,74,74,74,74,0,74,0,5,5,5,5,5,0,5,27-01-22,27-01-22,16:06:55,Sun Feb 27 2022 16:06:55 GMT+0100 (közép-európai téli idő),The main experiment item,yes,0,0,C:/Users/rrics/Documents/!!ResearchBMECOGSCI/gnet,0,0,0,prototype3.png,no,mono,no,18,no,black,no,no,768,1151,3.5.6,legacy,xpyriment,osweb,1.3.13,0,right,enter,enter,right,33584,46566,38411,33584,2,legacy,860,1600,24,900,24,-8,-8,1600,1645974460387,1024,2,48000,-16,experiment,p1sarrsha4.png,1,odd,Win32,79,158579,155574,78,79,686554,688062,681564,160105,681564,79,747357,748872,744366,688075,744366,visual_patterns,0,0,0,yes,1366
undefined,undefined,undefined,undefined,white,no,Mozilla,Netscape,5.0 (Windows),xpyriment,legacy,legacy,0,uniform,0,0,0,0,24,24,24,0,0,74,74,74,74,74,0,74,0,6,6,6,6,6,0,6,27-01-22,27-01-22,16:06:55,Sun Feb 27 2022 16:06:55 GMT+0100 (közép-európai téli idő),The main experiment item,yes,0,0,C:/Users/rrics/Documents/!!ResearchBMECOGSCI/gnet,0,0,0,prototype3.png,no,mono,no,18,no,black,no,no,768,1151,3.5.6,legacy,xpyriment,osweb,1.3.13,0,right,enter,enter,right,33584,46566,38411,33584,2,legacy,860,1600,24,900,24,-8,-8,1600,1645974460387,1024,2,48000,-16,experiment,p3sarrcol2.png,1,odd,Win32,79,158579,155574,78,79,686554,688062,681564,160105,681564,79,751891,753405,748897,688075,748897,visual_patterns,0,0,0,yes,1366
undefined,undefined,undefined,undefined,white,no,Mozilla,Netscape,5.0 (Windows),xpyriment,legacy,legacy,0,uniform,0,0,0,0,24,24,24,0,0,74,74,74,74,74,0,74,0,7,7,7,7,7,0,7,27-01-22,27-01-22,16:06:55,Sun Feb 27 2022 16:06:55 GMT+0100 (közép-európai téli idő),The main experiment item,yes,0,0,C:/Users/rrics/Documents/!!ResearchBMECOGSCI/gnet,0,0,0,prototype3.png,no,mono,no,18,no,black,no,no,768,1151,3.5.6,legacy,xpyriment,osweb,1.3.13,0,right,enter,enter,right,33584,46566,38411,33584,2,legacy,860,1600,24,900,24,-8,-8,1600,1645974460387,1024,2,48000,-16,experiment,p3sarrcol3.png,1,odd,Win32,79,158579,155574,78,79,686554,688062,681564,160105,681564,79,756420,757921,753431,688075,753430,visual_patterns,0,0,0,yes,1366
undefined,undefined,undefined,undefined,white,no,Mozilla,Netscape,5.0 (Windows),xpyriment,legacy,legacy,0,uniform,0,0,0,0,24,24,24,0,0,74,74,74,74,74,0,74,0,8,8,8,8,8,0,8,27-01-22,27-01-22,16:06:55,Sun Feb 27 2022 16:06:55 GMT+0100 (közép-európai téli idő),The main experiment item,yes,0,0,C:/Users/rrics/Documents/!!ResearchBMECOGSCI/gnet,0,0,0,prototype3.png,no,mono,no,18,no,black,no,no,768,1151,3.5.6,legacy,xpyriment,osweb,1.3.13,0,right,enter,enter,right,33584,46566,38411,33584,2,legacy,860,1600,24,900,24,-8,-8,1600,1645974460387,1024,2,48000,-16,experiment,p1sarrsha1.png,1,odd,Win32,79,158579,155574,78,79,686554,688062,681564,160105,681564,79,760935,762437,757944,688075,757944,visual_patterns,0,0,0,yes,1366
undefined,undefined,undefined,undefined,white,no,Mozilla,Netscape,5.0 (Windows),xpyriment,legacy,legacy,0,uniform,0,0,0,0,24,24,24,0,0,74,74,74,74,74,0,74,0,9,9,9,9,9,0,9,27-01-22,27-01-22,16:06:55,Sun Feb 27 2022 16:06:55 GMT+0100 (közép-európai téli idő),The main experiment item,yes,0,0,C:/Users/rrics/Documents/!!ResearchBMECOGSCI/gnet,0,0,0,prototype3.png,no,mono,no,18,no,black,no,no,768,1151,3.5.6,legacy,xpyriment,osweb,1.3.13,0,right,enter,enter,right,33584,46566,38411,33584,2,legacy,860,1600,24,900,24,-8,-8,1600,1645974460387,1024,2,48000,-16,experiment,p4sarr1.png,1,odd,Win32,79,158579,155574,78,79,686554,688062,681564,160105,681564,79,765454,766970,762459,688075,762459,visual_patterns,0,0,0,yes,1366
undefined,undefined,undefined,undefined,white,no,Mozilla,Netscape,5.0 (Windows),xpyriment,legacy,legacy,0,uniform,0,0,0,0,24,24,24,0,0,74,74,74,74,74,0,74,0,10,10,10,10,10,0,10,27-01-22,27-01-22,16:06:55,Sun Feb 27 2022 16:06:55 GMT+0100 (közép-európai téli idő),The main experiment item,yes,0,0,C:/Users/rrics/Documents/!!ResearchBMECOGSCI/gnet,0,0,0,prototype3.png,no,mono,no,18,no,black,no,no,768,1151,3.5.6,legacy,xpyriment,osweb,1.3.13,0,right,enter,enter,right,33584,46566,38411,33584,2,legacy,860,1600,24,900,24,-8,-8,1600,1645974460387,1024,2,48000,-16,experiment,p9sarr2.png,1,odd,Win32,79,158579,155574,78,79,686554,688062,681564,160105,681564,79,769993,771503,766992,688075,766992,visual_patterns,0,0,0,yes,1366
undefined,undefined,undefined,undefined,white,no,Mozilla,Netscape,5.0 (Windows),xpyriment,legacy,legacy,0,uniform,0,0,0,0,24,24,24,0,0,74,74,74,74,74,0,74,0,11,11,11,11,11,0,11,27-01-22,27-01-22,16:06:55,Sun Feb 27 2022 16:06:55 GMT+0100 (közép-európai téli idő),The main experiment item,yes,0,0,C:/Users/rrics/Documents/!!ResearchBMECOGSCI/gnet,0,0,0,prototype3.png,no,mono,no,18,no,black,no,no,768,1151,3.5.6,legacy,xpyriment,osweb,1.3.13,0,right,enter,enter,right,33584,46566,38411,33584,2,legacy,860,1600,24,900,24,-8,-8,1600,1645974460387,1024,2,48000,-16,experiment,p1sarr2.png,1,odd,Win32,79,158579,155574,78,79,686554,688062,681564,160105,681564,79,774514,776019,771527,688075,771527,visual_patterns,0,0,0,yes,1366
undefined,undefined,undefined,undefined,white,no,Mozilla,Netscape,5.0 (Windows),xpyriment,legacy,legacy,0,uniform,0,0,0,0,24,24,24,0,0,74,74,74,74,74,0,74,0,12,12,12,12,12,0,12,27-01-22,27-01-22,16:06:55,Sun Feb 27 2022 16:06:55 GMT+0100 (közép-európai téli idő),The main experiment item,yes,0,0,C:/Users/rrics/Documents/!!ResearchBMECOGSCI/gnet,0,0,0,prototype3.png,no,mono,no,18,no,black,no,no,768,1151,3.5.6,legacy,xpyriment,osweb,1.3.13,0,right,enter,enter,right,33584,46566,38411,33584,2,legacy,860,1600,24,900,24,-8,-8,1600,1645974460387,1024,2,48000,-16,experiment,p3sarrcol4.png,1,odd,Win32,79,158579,155574,78,79,686554,688062,681564,160105,681564,79,779033,780535,776042,688075,776042,visual_patterns,0,0,0,yes,1366
undefined,undefined,undefined,undefined,white,no,Mozilla,Netscape,5.0 (Windows),xpyriment,legacy,legacy,0,uniform,0,0,0,0,24,24,24,0,0,74,74,74,74,74,0,74,0,13,13,13,13,13,0,13,27-01-22,27-01-22,16:06:55,Sun Feb 27 2022 16:06:55 GMT+0100 (közép-európai téli idő),The main experiment item,yes,0,0,C:/Users/rrics/Documents/!!ResearchBMECOGSCI/gnet,0,0,0,prototype3.png,no,mono,no,18,no,black,no,no,768,1151,3.5.6,legacy,xpyriment,osweb,1.3.13,0,right,enter,enter,right,33584,46566,38411,33584,2,legacy,860,1600,24,900,24,-8,-8,1600,1645974460387,1024,2,48000,-16,experiment,p2sarrshacol2.png,1,odd,Win32,79,158579,155574,78,79,686554,688062,681564,160105,681564,79,783561,785067,780559,688075,780559,visual_patterns,0,0,0,yes,1366
undefined,undefined,undefined,undefined,white,no,Mozilla,Netscape,5.0 (Windows),xpyriment,legacy,legacy,0,uniform,0,0,0,0,24,24,24,0,0,74,74,74,74,74,0,74,0,14,14,14,14,14,0,14,27-01-22,27-01-22,16:06:55,Sun Feb 27 2022 16:06:55 GMT+0100 (közép-európai téli idő),The main experiment item,yes,0,0,C:/Users/rrics/Documents/!!ResearchBMECOGSCI/gnet,0,0,0,prototype3.png,no,mono,no,18,no,black,no,no,768,1151,3.5.6,legacy,xpyriment,osweb,1.3.13,0,right,enter,enter,right,33584,46566,38411,33584,2,legacy,860,1600,24,900,24,-8,-8,1600,1645974460387,1024,2,48000,-16,experiment,p6sarr1.png,1,odd,Win32,79,158579,155574,78,79,686554,688062,681564,160105,681564,79,788085,789600,785090,688075,785090,visual_patterns,0,0,0,yes,1366
undefined,undefined,undefined,undefined,white,no,Mozilla,Netscape,5.0 (Windows),xpyriment,legacy,legacy,0,uniform,0,0,0,0,24,24,24,0,0,74,74,74,74,74,0,74,0,15,15,15,15,15,0,15,27-01-22,27-01-22,16:06:55,Sun Feb 27 2022 16:06:55 GMT+0100 (közép-európai téli idő),The main experiment item,yes,0,0,C:/Users/rrics/Documents/!!ResearchBMECOGSCI/gnet,0,0,0,prototype3.png,no,mono,no,18,no,black,no,no,768,1151,3.5.6,legacy,xpyriment,osweb,1.3.13,0,right,enter,enter,right,33584,46566,38411,33584,2,legacy,860,1600,24,900,24,-8,-8,1600,1645974460387,1024,2,48000,-16,experiment,p4sarrshacol3.png,1,odd,Win32,79,158579,155574,78,79,686554,688062,681564,160105,681564,79,792629,794133,789633,688075,789633,visual_patterns,0,0,0,yes,1366
undefined,undefined,undefined,undefined,white,no,Mozilla,Netscape,5.0 (Windows),xpyriment,legacy,legacy,0,uniform,0,0,0,0,24,24,24,0,0,74,74,74,74,74,0,74,0,16,16,16,16,16,0,16,27-01-22,27-01-22,16:06:55,Sun Feb 27 2022 16:06:55 GMT+0100 (közép-európai téli idő),The main experiment item,yes,0,0,C:/Users/rrics/Documents/!!ResearchBMECOGSCI/gnet,0,0,0,prototype3.png,no,mono,no,18,no,black,no,no,768,1151,3.5.6,legacy,xpyriment,osweb,1.3.13,0,right,enter,enter,right,33584,46566,38411,33584,2,legacy,860,1600,24,900,24,-8,-8,1600,1645974460387,1024,2,48000,-16,experiment,p4sarrshacol4.png,1,odd,Win32,79,158579,155574,78,79,686554,688062,681564,160105,681564,79,797161,798666,794161,688075,794161,visual_patterns,0,0,0,yes,1366
undefined,undefined,undefined,undefined,white,no,Mozilla,Netscape,5.0 (Windows),xpyriment,legacy,legacy,0,uniform,0,0,0,0,24,24,24,0,0,74,74,74,74,74,0,74,0,17,17,17,17,17,0,17,27-01-22,27-01-22,16:06:55,Sun Feb 27 2022 16:06:55 GMT+0100 (közép-európai téli idő),The main experiment item,yes,0,0,C:/Users/rrics/Documents/!!ResearchBMECOGSCI/gnet,0,0,0,prototype3.png,no,mono,no,18,no,black,no,no,768,1151,3.5.6,legacy,xpyriment,osweb,1.3.13,0,right,enter,enter,right,33584,46566,38411,33584,2,legacy,860,1600,24,900,24,-8,-8,1600,1645974460387,1024,2,48000,-16,experiment,p2sarrcol1.png,1,odd,Win32,79,158579,155574,78,79,686554,688062,681564,160105,681564,79,801688,803199,798691,688075,798691,visual_patterns,0,0,0,yes,1366
undefined,undefined,undefined,undefined,white,no,Mozilla,Netscape,5.0 (Windows),xpyriment,legacy,legacy,0,uniform,0,0,0,0,24,24,24,0,0,74,74,74,74,74,0,74,0,18,18,18,18,18,0,18,27-01-22,27-01-22,16:06:55,Sun Feb 27 2022 16:06:55 GMT+0100 (közép-európai téli idő),The main experiment item,yes,0,0,C:/Users/rrics/Documents/!!ResearchBMECOGSCI/gnet,0,0,0,prototype3.png,no,mono,no,18,no,black,no,no,768,1151,3.5.6,legacy,xpyriment,osweb,1.3.13,0,right,enter,enter,right,33584,46566,38411,33584,2,legacy,860,1600,24,900,24,-8,-8,1600,1645974460387,1024,2,48000,-16,experiment,p1sarr4.png,1,odd,Win32,79,158579,155574,78,79,686554,688062,681564,160105,681564,79,806213,807715,803225,688075,803225,visual_patterns,0,0,0,yes,1366
undefined,undefined,undefined,undefined,white,no,Mozilla,Netscape,5.0 (Windows),xpyriment,legacy,legacy,0,uniform,0,0,0,0,24,24,24,0,0,74,74,74,74,74,0,74,0,19,19,19,19,19,0,19,27-01-22,27-01-22,16:06:55,Sun Feb 27 2022 16:06:55 GMT+0100 (közép-európai téli idő),The main experiment item,yes,0,0,C:/Users/rrics/Documents/!!ResearchBMECOGSCI/gnet,0,0,0,prototype3.png,no,mono,no,18,no,black,no,no,768,1151,3.5.6,legacy,xpyriment,osweb,1.3.13,0,right,enter,enter,right,33584,46566,38411,33584,2,legacy,860,1600,24,900,24,-8,-8,1600,1645974460387,1024,2,48000,-16,experiment,p10sarr1.png,1,odd,Win32,79,158579,155574,78,79,686554,688062,681564,160105,681564,79,810731,812247,807739,688075,807739,visual_patterns,0,0,0,yes,1366
undefined,undefined,undefined,undefined,white,no,Mozilla,Netscape,5.0 (Windows),xpyriment,legacy,legacy,0,uniform,0,0,0,0,24,24,24,0,0,74,74,74,74,74,0,74,0,20,20,20,20,20,0,20,27-01-22,27-01-22,16:06:55,Sun Feb 27 2022 16:06:55 GMT+0100 (közép-európai téli idő),The main experiment item,yes,0,0,C:/Users/rrics/Documents/!!ResearchBMECOGSCI/gnet,0,0,0,prototype3.png,no,mono,no,18,no,black,no,no,768,1151,3.5.6,legacy,xpyriment,osweb,1.3.13,0,right,enter,enter,right,33584,46566,38411,33584,2,legacy,860,1600,24,900,24,-8,-8,1600,1645974460387,1024,2,48000,-16,experiment,p8sarr3.png,1,odd,Win32,79,158579,155574,78,79,686554,688062,681564,160105,681564,79,815273,816780,812272,688075,812272,visual_patterns,0,0,0,yes,1366
undefined,undefined,undefined,undefined,white,no,Mozilla,Netscape,5.0 (Windows),xpyriment,legacy,legacy,0,uniform,0,0,0,0,24,24,24,0,0,74,74,74,74,74,0,74,0,21,21,21,21,21,0,21,27-01-22,27-01-22,16:06:55,Sun Feb 27 2022 16:06:55 GMT+0100 (közép-európai téli idő),The main experiment item,yes,0,0,C:/Users/rrics/Documents/!!ResearchBMECOGSCI/gnet,0,0,0,prototype3.png,no,mono,no,18,no,black,no,no,768,1151,3.5.6,legacy,xpyriment,osweb,1.3.13,0,right,enter,enter,right,33584,46566,38411,33584,2,legacy,860,1600,24,900,24,-8,-8,1600,1645974460387,1024,2,48000,-16,experiment,p9sarr4.png,1,odd,Win32,79,158579,155574,78,79,686554,688062,681564,160105,681564,79,819805,821313,816804,688075,816804,visual_patterns,0,0,0,yes,1366
undefined,undefined,undefined,undefined,white,no,Mozilla,Netscape,5.0 (Windows),xpyriment,legacy,legacy,0,uniform,0,0,0,0,24,24,24,0,0,74,74,74,74,74,0,74,0,22,22,22,22,22,0,22,27-01-22,27-01-22,16:06:55,Sun Feb 27 2022 16:06:55 GMT+0100 (közép-európai téli idő),The main experiment item,yes,0,0,C:/Users/rrics/Documents/!!ResearchBMECOGSCI/gnet,0,0,0,prototype3.png,no,mono,no,18,no,black,no,no,768,1151,3.5.6,legacy,xpyriment,osweb,1.3.13,0,right,enter,enter,right,33584,46566,38411,33584,2,legacy,860,1600,24,900,24,-8,-8,1600,1645974460387,1024,2,48000,-16,experiment,p5sarrcol2.png,1,odd,Win32,79,158579,155574,78,79,686554,688062,681564,160105,681564,79,824332,825846,821335,688075,821335,visual_patterns,0,0,0,yes,1366
undefined,undefined,undefined,undefined,white,no,Mozilla,Netscape,5.0 (Windows),xpyriment,legacy,legacy,0,uniform,0,0,0,0,24,24,24,0,0,74,74,74,74,74,0,74,0,23,23,23,23,23,0,23,27-01-22,27-01-22,16:06:55,Sun Feb 27 2022 16:06:55 GMT+0100 (közép-európai téli idő),The main experiment item,yes,0,0,C:/Users/rrics/Documents/!!ResearchBMECOGSCI/gnet,0,0,0,prototype3.png,no,mono,no,18,no,black,no,no,768,1151,3.5.6,legacy,xpyriment,osweb,1.3.13,0,right,enter,enter,right,33584,46566,38411,33584,2,legacy,860,1600,24,900,24,-8,-8,1600,1645974460387,1024,2,48000,-16,experiment,p7sarr4.png,1,odd,Win32,79,158579,155574,78,79,686554,688062,681564,160105,681564,79,828870,830378,825879,688075,825879,visual_patterns,0,0,0,yes,1366
undefined,undefined,undefined,undefined,white,no,Mozilla,Netscape,5.0 (Windows),xpyriment,legacy,legacy,0,uniform,0,0,0,0,24,24,24,0,0,74,74,74,74,74,0,74,0,24,24,24,24,24,0,24,27-01-22,27-01-22,16:06:55,Sun Feb 27 2022 16:06:55 GMT+0100 (közép-európai téli idő),The main experiment item,yes,0,0,C:/Users/rrics/Documents/!!ResearchBMECOGSCI/gnet,0,0,0,prototype3.png,no,mono,no,18,no,black,no,no,768,1151,3.5.6,legacy,xpyriment,osweb,1.3.13,0,right,enter,enter,right,33584,46566,38411,33584,2,legacy,860,1600,24,900,24,-8,-8,1600,1645974460387,1024,2,48000,-16,experiment,p3sarrsha3.png,1,odd,Win32,79,158579,155574,78,79,686554,688062,681564,160105,681564,79,833394,834895,830402,688075,830402,visual_patterns,0,0,0,yes,1366
undefined,undefined,undefined,undefined,white,no,Mozilla,Netscape,5.0 (Windows),xpyriment,legacy,legacy,0,uniform,0,0,0,0,24,24,24,0,0,74,74,74,74,74,0,74,0,25,25,25,25,25,0,25,27-01-22,27-01-22,16:06:55,Sun Feb 27 2022 16:06:55 GMT+0100 (közép-európai téli idő),The main experiment item,yes,0,0,C:/Users/rrics/Documents/!!ResearchBMECOGSCI/gnet,0,0,0,prototype3.png,no,mono,no,18,no,black,no,no,768,1151,3.5.6,legacy,xpyriment,osweb,1.3.13,0,right,enter,enter,right,33584,46566,38411,33584,2,legacy,860,1600,24,900,24,-8,-8,1600,1645974460387,1024,2,48000,-16,experiment,p8sarr4.png,1,odd,Win32,79,158579,155574,78,79,686554,688062,681564,160105,681564,79,837912,839428,834919,688075,834919,visual_patterns,0,0,0,yes,1366
undefined,undefined,undefined,undefined,white,no,Mozilla,Netscape,5.0 (Windows),xpyriment,legacy,legacy,0,uniform,0,0,0,0,24,24,24,0,0,74,74,74,74,74,0,74,0,26,26,26,26,26,0,26,27-01-22,27-01-22,16:06:55,Sun Feb 27 2022 16:06:55 GMT+0100 (közép-európai téli idő),The main experiment item,yes,0,0,C:/Users/rrics/Documents/!!ResearchBMECOGSCI/gnet,0,0,0,prototype3.png,no,mono,no,18,no,black,no,no,768,1151,3.5.6,legacy,xpyriment,osweb,1.3.13,0,right,enter,enter,right,33584,46566,38411,33584,2,legacy,860,1600,24,900,24,-8,-8,1600,1645974460387,1024,2,48000,-16,experiment,p2sarrshacol4.png,1,odd,Win32,79,158579,155574,78,79,686554,688062,681564,160105,681564,79,842448,843960,839448,688075,839448,visual_patterns,0,0,0,yes,1366
undefined,undefined,undefined,undefined,white,no,Mozilla,Netscape,5.0 (Windows),xpyriment,legacy,legacy,0,uniform,0,0,0,0,24,24,24,0,0,74,74,74,74,74,0,74,0,27,27,27,27,27,0,27,27-01-22,27-01-22,16:06:55,Sun Feb 27 2022 16:06:55 GMT+0100 (közép-európai téli idő),The main experiment item,yes,0,0,C:/Users/rrics/Documents/!!ResearchBMECOGSCI/gnet,0,0,0,prototype3.png,no,mono,no,18,no,black,no,no,768,1151,3.5.6,legacy,xpyriment,osweb,1.3.13,0,right,enter,enter,right,33584,46566,38411,33584,2,legacy,860,1600,24,900,24,-8,-8,1600,1645974460387,1024,2,48000,-16,experiment,p4sarrshacol1.png,1,odd,Win32,79,158579,155574,78,79,686554,688062,681564,160105,681564,79,846976,848493,843983,688075,843983,visual_patterns,0,0,0,yes,1366
undefined,undefined,undefined,undefined,white,no,Mozilla,Netscape,5.0 (Windows),xpyriment,legacy,legacy,0,uniform,0,0,0,0,24,24,24,0,0,74,74,74,74,74,0,74,0,28,28,28,28,28,0,28,27-01-22,27-01-22,16:06:55,Sun Feb 27 2022 16:06:55 GMT+0100 (közép-európai téli idő),The main experiment item,yes,0,0,C:/Users/rrics/Documents/!!ResearchBMECOGSCI/gnet,0,0,0,prototype3.png,no,mono,no,18,no,black,no,no,768,1151,3.5.6,legacy,xpyriment,osweb,1.3.13,0,right,enter,enter,right,33584,46566,38411,33584,2,legacy,860,1600,24,900,24,-8,-8,1600,1645974460387,1024,2,48000,-16,experiment,p1sarrshacol3.png,1,odd,Win32,79,158579,155574,78,79,686554,688062,681564,160105,681564,79,851514,853026,848517,688075,848517,visual_patterns,0,0,0,yes,1366
undefined,undefined,undefined,undefined,white,no,Mozilla,Netscape,5.0 (Windows),xpyriment,legacy,legacy,0,uniform,0,0,0,0,24,24,24,0,0,74,74,74,74,74,0,74,0,29,29,29,29,29,0,29,27-01-22,27-01-22,16:06:55,Sun Feb 27 2022 16:06:55 GMT+0100 (közép-európai téli idő),The main experiment item,yes,0,0,C:/Users/rrics/Documents/!!ResearchBMECOGSCI/gnet,0,0,0,prototype3.png,no,mono,no,18,no,black,no,no,768,1151,3.5.6,legacy,xpyriment,osweb,1.3.13,0,right,enter,enter,right,33584,46566,38411,33584,2,legacy,860,1600,24,900,24,-8,-8,1600,1645974460387,1024,2,48000,-16,experiment,p2sarrsha1.png,1,odd,Win32,79,158579,155574,78,79,686554,688062,681564,160105,681564,79,856044,857558,853050,688075,853050,visual_patterns,0,0,0,yes,1366
undefined,undefined,undefined,undefined,white,no,Mozilla,Netscape,5.0 (Windows),xpyriment,legacy,legacy,0,uniform,0,0,0,0,24,24,24,0,0,74,74,74,74,74,0,74,0,30,30,30,30,30,0,30,27-01-22,27-01-22,16:06:55,Sun Feb 27 2022 16:06:55 GMT+0100 (közép-európai téli idő),The main experiment item,yes,0,0,C:/Users/rrics/Documents/!!ResearchBMECOGSCI/gnet,0,0,0,prototype3.png,no,mono,no,18,no,black,no,no,768,1151,3.5.6,legacy,xpyriment,osweb,1.3.13,0,right,enter,enter,right,33584,46566,38411,33584,2,legacy,860,1600,24,900,24,-8,-8,1600,1645974460387,1024,2,48000,-16,experiment,p3sarr2.png,1,odd,Win32,79,158579,155574,78,79,686554,688062,681564,160105,681564,79,860579,862091,857581,688075,857581,visual_patterns,0,0,0,yes,1366
undefined,undefined,undefined,undefined,white,no,Mozilla,Netscape,5.0 (Windows),xpyriment,legacy,legacy,0,uniform,0,0,0,0,24,24,24,0,0,74,74,74,74,74,0,74,0,31,31,31,31,31,0,31,27-01-22,27-01-22,16:06:55,Sun Feb 27 2022 16:06:55 GMT+0100 (közép-európai téli idő),The main experiment item,yes,0,0,C:/Users/rrics/Documents/!!ResearchBMECOGSCI/gnet,0,0,0,prototype3.png,no,mono,no,18,no,black,no,no,768,1151,3.5.6,legacy,xpyriment,osweb,1.3.13,0,right,enter,enter,right,33584,46566,38411,33584,2,legacy,860,1600,24,900,24,-8,-8,1600,1645974460387,1024,2,48000,-16,experiment,p3sarrshacol3.png,1,odd,Win32,79,158579,155574,78,79,686554,688062,681564,160105,681564,79,865107,866624,862120,688075,862120,visual_patterns,0,0,0,yes,1366
undefined,undefined,undefined,undefined,white,no,Mozilla,Netscape,5.0 (Windows),xpyriment,legacy,legacy,0,uniform,0,0,0,0,24,24,24,0,0,74,74,74,74,74,0,74,0,32,32,32,32,32,0,32,27-01-22,27-01-22,16:06:55,Sun Feb 27 2022 16:06:55 GMT+0100 (közép-európai téli idő),The main experiment item,yes,0,0,C:/Users/rrics/Documents/!!ResearchBMECOGSCI/gnet,0,0,0,prototype3.png,no,mono,no,18,no,black,no,no,768,1151,3.5.6,legacy,xpyriment,osweb,1.3.13,0,right,enter,enter,right,33584,46566,38411,33584,2,legacy,860,1600,24,900,24,-8,-8,1600,1645974460387,1024,2,48000,-16,experiment,p2sarrcol4.png,1,odd,Win32,79,158579,155574,78,79,686554,688062,681564,160105,681564,79,869638,871140,866646,688075,866645,visual_patterns,0,0,0,yes,1366
undefined,undefined,undefined,undefined,white,no,Mozilla,Netscape,5.0 (Windows),xpyriment,legacy,legacy,0,uniform,0,0,0,0,24,24,24,0,0,74,74,74,74,74,0,74,0,33,33,33,33,33,0,33,27-01-22,27-01-22,16:06:55,Sun Feb 27 2022 16:06:55 GMT+0100 (közép-európai téli idő),The main experiment item,yes,0,0,C:/Users/rrics/Documents/!!ResearchBMECOGSCI/gnet,0,0,0,prototype3.png,no,mono,no,18,no,black,no,no,768,1151,3.5.6,legacy,xpyriment,osweb,1.3.13,0,right,enter,enter,right,33584,46566,38411,33584,2,legacy,860,1600,24,900,24,-8,-8,1600,1645974460387,1024,2,48000,-16,experiment,p5sarrcol1.png,1,odd,Win32,79,158579,155574,78,79,686554,688062,681564,160105,681564,79,874161,875673,871163,688075,871163,visual_patterns,0,0,0,yes,1366
undefined,undefined,undefined,undefined,white,no,Mozilla,Netscape,5.0 (Windows),xpyriment,legacy,legacy,0,uniform,0,0,0,0,24,24,24,0,0,74,74,74,74,74,0,74,0,34,34,34,34,34,0,34,27-01-22,27-01-22,16:06:55,Sun Feb 27 2022 16:06:55 GMT+0100 (közép-európai téli idő),The main experiment item,yes,0,0,C:/Users/rrics/Documents/!!ResearchBMECOGSCI/gnet,0,0,0,prototype3.png,no,mono,no,18,no,black,no,no,768,1151,3.5.6,legacy,xpyriment,osweb,1.3.13,0,right,enter,enter,right,33584,46566,38411,33584,2,legacy,860,1600,24,900,24,-8,-8,1600,1645974460387,1024,2,48000,-16,experiment,p8sarr2.png,1,odd,Win32,79,158579,155574,78,79,686554,688062,681564,160105,681564,79,878706,880223,875705,688075,875705,visual_patterns,0,0,0,yes,1366
undefined,undefined,undefined,undefined,white,no,Mozilla,Netscape,5.0 (Windows),xpyriment,legacy,legacy,0,uniform,0,0,0,0,24,24,24,0,0,74,74,74,74,74,0,74,0,35,35,35,35,35,0,35,27-01-22,27-01-22,16:06:55,Sun Feb 27 2022 16:06:55 GMT+0100 (közép-európai téli idő),The main experiment item,yes,0,0,C:/Users/rrics/Documents/!!ResearchBMECOGSCI/gnet,0,0,0,prototype3.png,no,mono,no,18,no,black,no,no,768,1151,3.5.6,legacy,xpyriment,osweb,1.3.13,0,right,enter,enter,right,33584,46566,38411,33584,2,legacy,860,1600,24,900,24,-8,-8,1600,1645974460387,1024,2,48000,-16,experiment,p5sarr3.png,1,odd,Win32,79,158579,155574,78,79,686554,688062,681564,160105,681564,79,883245,884755,880251,688075,880251,visual_patterns,0,0,0,yes,1366
undefined,undefined,undefined,undefined,white,no,Mozilla,Netscape,5.0 (Windows),xpyriment,legacy,legacy,0,uniform,0,0,0,0,24,24,24,0,0,74,74,74,74,74,0,74,0,36,36,36,36,36,0,36,27-01-22,27-01-22,16:06:55,Sun Feb 27 2022 16:06:55 GMT+0100 (közép-európai téli idő),The main experiment item,yes,0,0,C:/Users/rrics/Documents/!!ResearchBMECOGSCI/gnet,0,0,0,prototype3.png,no,mono,no,18,no,black,no,no,768,1151,3.5.6,legacy,xpyriment,osweb,1.3.13,0,right,enter,enter,right,33584,46566,38411,33584,2,legacy,860,1600,24,900,24,-8,-8,1600,1645974460387,1024,2,48000,-16,experiment,p7sarr1.png,1,odd,Win32,79,158579,155574,78,79,686554,688062,681564,160105,681564,79,887780,889288,884781,688075,884781,visual_patterns,0,0,0,yes,1366
undefined,undefined,undefined,undefined,white,no,Mozilla,Netscape,5.0 (Windows),xpyriment,legacy,legacy,0,uniform,0,0,0,0,24,24,24,0,0,74,74,74,74,74,0,74,0,37,37,37,37,37,0,37,27-01-22,27-01-22,16:06:55,Sun Feb 27 2022 16:06:55 GMT+0100 (közép-európai téli idő),The main experiment item,yes,0,0,C:/Users/rrics/Documents/!!ResearchBMECOGSCI/gnet,0,0,0,prototype3.png,no,mono,no,18,no,black,no,no,768,1151,3.5.6,legacy,xpyriment,osweb,1.3.13,0,right,enter,enter,right,33584,46566,38411,33584,2,legacy,860,1600,24,900,24,-8,-8,1600,1645974460387,1024,2,48000,-16,experiment,p1sarrcol4.png,1,odd,Win32,79,158579,155574,78,79,686554,688062,681564,160105,681564,79,892311,893821,889314,688075,889314,visual_patterns,0,0,0,yes,1366
undefined,undefined,undefined,undefined,white,no,Mozilla,Netscape,5.0 (Windows),xpyriment,legacy,legacy,0,uniform,0,0,0,0,24,24,24,0,0,74,74,74,74,74,0,74,0,38,38,38,38,38,0,38,27-01-22,27-01-22,16:06:55,Sun Feb 27 2022 16:06:55 GMT+0100 (közép-európai téli idő),The main experiment item,yes,0,0,C:/Users/rrics/Documents/!!ResearchBMECOGSCI/gnet,0,0,0,prototype3.png,no,mono,no,18,no,black,no,no,768,1151,3.5.6,legacy,xpyriment,osweb,1.3.13,0,right,enter,enter,right,33584,46566,38411,33584,2,legacy,860,1600,24,900,24,-8,-8,1600,1645974460387,1024,2,48000,-16,experiment,p3sarrsha4.png,1,odd,Win32,79,158579,155574,78,79,686554,688062,681564,160105,681564,79,896838,898353,893845,688075,893845,visual_patterns,0,0,0,yes,1366
undefined,undefined,undefined,undefined,white,no,Mozilla,Netscape,5.0 (Windows),xpyriment,legacy,legacy,0,uniform,0,0,0,0,24,24,24,0,0,74,74,74,74,74,0,74,0,39,39,39,39,39,0,39,27-01-22,27-01-22,16:06:55,Sun Feb 27 2022 16:06:55 GMT+0100 (közép-európai téli idő),The main experiment item,yes,0,0,C:/Users/rrics/Documents/!!ResearchBMECOGSCI/gnet,0,0,0,prototype3.png,no,mono,no,18,no,black,no,no,768,1151,3.5.6,legacy,xpyriment,osweb,1.3.13,0,right,enter,enter,right,33584,46566,38411,33584,2,legacy,860,1600,24,900,24,-8,-8,1600,1645974460387,1024,2,48000,-16,experiment,p3sarr1.png,1,odd,Win32,79,158579,155574,78,79,686554,688062,681564,160105,681564,79,901380,902886,898379,688075,898379,visual_patterns,0,0,0,yes,1366
undefined,undefined,undefined,undefined,white,no,Mozilla,Netscape,5.0 (Windows),xpyriment,legacy,legacy,0,uniform,0,0,0,0,24,24,24,0,0,74,74,74,74,74,0,74,0,40,40,40,40,40,0,40,27-01-22,27-01-22,16:06:55,Sun Feb 27 2022 16:06:55 GMT+0100 (közép-európai téli idő),The main experiment item,yes,0,0,C:/Users/rrics/Documents/!!ResearchBMECOGSCI/gnet,0,0,0,prototype3.png,no,mono,no,18,no,black,no,no,768,1151,3.5.6,legacy,xpyriment,osweb,1.3.13,0,right,enter,enter,right,33584,46566,38411,33584,2,legacy,860,1600,24,900,24,-8,-8,1600,1645974460387,1024,2,48000,-16,experiment,p2sarrsha3.png,1,odd,Win32,79,158579,155574,78,79,686554,688062,681564,160105,681564,79,905910,907418,902911,688075,902911,visual_patterns,0,0,0,yes,1366
undefined,undefined,undefined,undefined,white,no,Mozilla,Netscape,5.0 (Windows),xpyriment,legacy,legacy,0,uniform,0,0,0,0,24,24,24,0,0,74,74,74,74,74,0,74,0,41,41,41,41,41,0,41,27-01-22,27-01-22,16:06:55,Sun Feb 27 2022 16:06:55 GMT+0100 (közép-európai téli idő),The main experiment item,yes,0,0,C:/Users/rrics/Documents/!!ResearchBMECOGSCI/gnet,0,0,0,prototype3.png,no,mono,no,18,no,black,no,no,768,1151,3.5.6,legacy,xpyriment,osweb,1.3.13,0,right,enter,enter,right,33584,46566,38411,33584,2,legacy,860,1600,24,900,24,-8,-8,1600,1645974460387,1024,2,48000,-16,experiment,p9sarr3.png,1,odd,Win32,79,158579,155574,78,79,686554,688062,681564,160105,681564,79,910442,911952,907442,688075,907442,visual_patterns,0,0,0,yes,1366
undefined,undefined,undefined,undefined,white,no,Mozilla,Netscape,5.0 (Windows),xpyriment,legacy,legacy,0,uniform,0,0,0,0,24,24,24,0,0,74,74,74,74,74,0,74,0,42,42,42,42,42,0,42,27-01-22,27-01-22,16:06:55,Sun Feb 27 2022 16:06:55 GMT+0100 (közép-európai téli idő),The main experiment item,yes,0,0,C:/Users/rrics/Documents/!!ResearchBMECOGSCI/gnet,0,0,0,prototype3.png,no,mono,no,18,no,black,no,no,768,1151,3.5.6,legacy,xpyriment,osweb,1.3.13,0,right,enter,enter,right,33584,46566,38411,33584,2,legacy,860,1600,24,900,24,-8,-8,1600,1645974460387,1024,2,48000,-16,experiment,p10sarr4.png,1,odd,Win32,79,158579,155574,78,79,686554,688062,681564,160105,681564,79,914969,916485,911974,688075,911974,visual_patterns,0,0,0,yes,1366
undefined,undefined,undefined,undefined,white,no,Mozilla,Netscape,5.0 (Windows),xpyriment,legacy,legacy,0,uniform,0,0,0,0,24,24,24,0,0,74,74,74,74,74,0,74,0,43,43,43,43,43,0,43,27-01-22,27-01-22,16:06:55,Sun Feb 27 2022 16:06:55 GMT+0100 (közép-európai téli idő),The main experiment item,yes,0,0,C:/Users/rrics/Documents/!!ResearchBMECOGSCI/gnet,0,0,0,prototype3.png,no,mono,no,18,no,black,no,no,768,1151,3.5.6,legacy,xpyriment,osweb,1.3.13,0,right,enter,enter,right,33584,46566,38411,33584,2,legacy,860,1600,24,900,24,-8,-8,1600,1645974460387,1024,2,48000,-16,experiment,p4sarrcol1.png,1,odd,Win32,79,158579,155574,78,79,686554,688062,681564,160105,681564,79,919501,921017,916508,688075,916508,visual_patterns,0,0,0,yes,1366
undefined,undefined,undefined,undefined,white,no,Mozilla,Netscape,5.0 (Windows),xpyriment,legacy,legacy,0,uniform,0,0,0,0,24,24,24,0,0,74,74,74,74,74,0,74,0,44,44,44,44,44,0,44,27-01-22,27-01-22,16:06:55,Sun Feb 27 2022 16:06:55 GMT+0100 (közép-európai téli idő),The main experiment item,yes,0,0,C:/Users/rrics/Documents/!!ResearchBMECOGSCI/gnet,0,0,0,prototype3.png,no,mono,no,18,no,black,no,no,768,1151,3.5.6,legacy,xpyriment,osweb,1.3.13,0,right,enter,enter,right,33584,46566,38411,33584,2,legacy,860,1600,24,900,24,-8,-8,1600,1645974460387,1024,2,48000,-16,experiment,p5sarrshacol4.png,1,odd,Win32,79,158579,155574,78,79,686554,688062,681564,160105,681564,79,924038,925550,921040,688075,921040,visual_patterns,0,0,0,yes,1366
undefined,undefined,undefined,undefined,white,no,Mozilla,Netscape,5.0 (Windows),xpyriment,legacy,legacy,0,uniform,0,0,0,0,24,24,24,0,0,74,74,74,74,74,0,74,0,45,45,45,45,45,0,45,27-01-22,27-01-22,16:06:55,Sun Feb 27 2022 16:06:55 GMT+0100 (közép-európai téli idő),The main experiment item,yes,0,0,C:/Users/rrics/Documents/!!ResearchBMECOGSCI/gnet,0,0,0,prototype3.png,no,mono,no,18,no,black,no,no,768,1151,3.5.6,legacy,xpyriment,osweb,1.3.13,0,right,enter,enter,right,33584,46566,38411,33584,2,legacy,860,1600,24,900,24,-8,-8,1600,1645974460387,1024,2,48000,-16,experiment,p3sarr3.png,1,odd,Win32,79,158579,155574,78,79,686554,688062,681564,160105,681564,79,928567,930083,925572,688075,925572,visual_patterns,0,0,0,yes,1366
undefined,undefined,undefined,undefined,white,no,Mozilla,Netscape,5.0 (Windows),xpyriment,legacy,legacy,0,uniform,0,0,0,0,24,24,24,0,0,74,74,74,74,74,0,74,0,46,46,46,46,46,0,46,27-01-22,27-01-22,16:06:55,Sun Feb 27 2022 16:06:55 GMT+0100 (közép-európai téli idő),The main experiment item,yes,0,0,C:/Users/rrics/Documents/!!ResearchBMECOGSCI/gnet,0,0,0,prototype3.png,no,mono,no,18,no,black,no,no,768,1151,3.5.6,legacy,xpyriment,osweb,1.3.13,0,right,enter,enter,right,33584,46566,38411,33584,2,legacy,860,1600,24,900,24,-8,-8,1600,1645974460387,1024,2,48000,-16,experiment,p2sarr3.png,1,odd,Win32,79,158579,155574,78,79,686554,688062,681564,160105,681564,79,933104,934616,930106,688075,930105,visual_patterns,0,0,0,yes,1366
undefined,undefined,undefined,undefined,white,no,Mozilla,Netscape,5.0 (Windows),xpyriment,legacy,legacy,0,uniform,0,0,0,0,24,24,24,0,0,74,74,74,74,74,0,74,0,47,47,47,47,47,0,47,27-01-22,27-01-22,16:06:55,Sun Feb 27 2022 16:06:55 GMT+0100 (közép-európai téli idő),The main experiment item,yes,0,0,C:/Users/rrics/Documents/!!ResearchBMECOGSCI/gnet,0,0,0,prototype3.png,no,mono,no,18,no,black,no,no,768,1151,3.5.6,legacy,xpyriment,osweb,1.3.13,0,right,enter,enter,right,33584,46566,38411,33584,2,legacy,860,1600,24,900,24,-8,-8,1600,1645974460387,1024,2,48000,-16,experiment,p4sarr2.png,1,odd,Win32,79,158579,155574,78,79,686554,688062,681564,160105,681564,79,937646,939149,934648,688075,934648,visual_patterns,0,0,0,yes,1366
undefined,undefined,undefined,undefined,white,no,Mozilla,Netscape,5.0 (Windows),xpyriment,legacy,legacy,0,uniform,0,0,0,0,24,24,24,0,0,74,74,74,74,74,0,74,0,48,48,48,48,48,0,48,27-01-22,27-01-22,16:06:55,Sun Feb 27 2022 16:06:55 GMT+0100 (közép-európai téli idő),The main experiment item,yes,0,0,C:/Users/rrics/Documents/!!ResearchBMECOGSCI/gnet,0,0,0,prototype3.png,no,mono,no,18,no,black,no,no,768,1151,3.5.6,legacy,xpyriment,osweb,1.3.13,0,right,enter,enter,right,33584,46566,38411,33584,2,legacy,860,1600,24,900,24,-8,-8,1600,1645974460387,1024,2,48000,-16,experiment,p2sarrshacol3.png,1,odd,Win32,79,158579,155574,78,79,686554,688062,681564,160105,681564,79,942169,943681,939178,688075,939178,visual_patterns,0,0,0,yes,1366
undefined,undefined,undefined,undefined,white,no,Mozilla,Netscape,5.0 (Windows),xpyriment,legacy,legacy,0,uniform,0,0,0,0,24,24,24,0,0,74,74,74,74,74,0,74,0,49,49,49,49,49,0,49,27-01-22,27-01-22,16:06:55,Sun Feb 27 2022 16:06:55 GMT+0100 (közép-európai téli idő),The main experiment item,yes,0,0,C:/Users/rrics/Documents/!!ResearchBMECOGSCI/gnet,0,0,0,prototype3.png,no,mono,no,18,no,black,no,no,768,1151,3.5.6,legacy,xpyriment,osweb,1.3.13,0,right,enter,enter,right,33584,46566,38411,33584,2,legacy,860,1600,24,900,24,-8,-8,1600,1645974460387,1024,2,48000,-16,experiment,p2sarrcol2.png,1,odd,Win32,79,158579,155574,78,79,686554,688062,681564,160105,681564,79,946703,948213,943708,688075,943707,visual_patterns,0,0,0,yes,1366
undefined,undefined,undefined,undefined,white,no,Mozilla,Netscape,5.0 (Windows),xpyriment,legacy,legacy,0,uniform,0,0,0,0,24,24,24,0,0,74,74,74,74,74,0,74,0,50,50,50,50,50,0,50,27-01-22,27-01-22,16:06:55,Sun Feb 27 2022 16:06:55 GMT+0100 (közép-európai téli idő),The main experiment item,yes,0,0,C:/Users/rrics/Documents/!!ResearchBMECOGSCI/gnet,0,0,0,prototype3.png,no,mono,no,18,no,black,no,no,768,1151,3.5.6,legacy,xpyriment,osweb,1.3.13,0,right,enter,enter,right,33584,46566,38411,33584,2,legacy,860,1600,24,900,24,-8,-8,1600,1645974460387,1024,2,48000,-16,experiment,p4sarrsha3.png,1,odd,Win32,79,158579,155574,78,79,686554,688062,681564,160105,681564,79,951230,952746,948243,688075,948243,visual_patterns,0,0,0,yes,1366
undefined,undefined,undefined,undefined,white,no,Mozilla,Netscape,5.0 (Windows),xpyriment,legacy,legacy,0,uniform,0,0,0,0,24,24,24,0,0,74,74,74,74,74,0,74,0,51,51,51,51,51,0,51,27-01-22,27-01-22,16:06:55,Sun Feb 27 2022 16:06:55 GMT+0100 (közép-európai téli idő),The main experiment item,yes,0,0,C:/Users/rrics/Documents/!!ResearchBMECOGSCI/gnet,0,0,0,prototype3.png,no,mono,no,18,no,black,no,no,768,1151,3.5.6,legacy,xpyriment,osweb,1.3.13,0,right,enter,enter,right,33584,46566,38411,33584,2,legacy,860,1600,24,900,24,-8,-8,1600,1645974460387,1024,2,48000,-16,experiment,p4sarrsha1.png,1,odd,Win32,79,158579,155574,78,79,686554,688062,681564,160105,681564,79,955774,957279,952771,688075,952771,visual_patterns,0,0,0,yes,1366
undefined,undefined,undefined,undefined,white,no,Mozilla,Netscape,5.0 (Windows),xpyriment,legacy,legacy,0,uniform,0,0,0,0,24,24,24,0,0,74,74,74,74,74,0,74,0,52,52,52,52,52,0,52,27-01-22,27-01-22,16:06:55,Sun Feb 27 2022 16:06:55 GMT+0100 (közép-európai téli idő),The main experiment item,yes,0,0,C:/Users/rrics/Documents/!!ResearchBMECOGSCI/gnet,0,0,0,prototype3.png,no,mono,no,18,no,black,no,no,768,1151,3.5.6,legacy,xpyriment,osweb,1.3.13,0,right,enter,enter,right,33584,46566,38411,33584,2,legacy,860,1600,24,900,24,-8,-8,1600,1645974460387,1024,2,48000,-16,experiment,p5sarrshacol3.png,1,odd,Win32,79,158579,155574,78,79,686554,688062,681564,160105,681564,79,960304,961813,957305,688075,957305,visual_patterns,0,0,0,yes,1366
undefined,undefined,undefined,undefined,white,no,Mozilla,Netscape,5.0 (Windows),xpyriment,legacy,legacy,0,uniform,0,0,0,0,24,24,24,0,0,74,74,74,74,74,0,74,0,53,53,53,53,53,0,53,27-01-22,27-01-22,16:06:55,Sun Feb 27 2022 16:06:55 GMT+0100 (közép-európai téli idő),The main experiment item,yes,0,0,C:/Users/rrics/Documents/!!ResearchBMECOGSCI/gnet,0,0,0,prototype3.png,no,mono,no,18,no,black,no,no,768,1151,3.5.6,legacy,xpyriment,osweb,1.3.13,0,right,enter,enter,right,33584,46566,38411,33584,2,legacy,860,1600,24,900,24,-8,-8,1600,1645974460387,1024,2,48000,-16,experiment,p5sarrshacol2.png,1,odd,Win32,79,158579,155574,78,79,686554,688062,681564,160105,681564,79,964829,966345,961836,688075,961836,visual_patterns,0,0,0,yes,1366
undefined,undefined,undefined,undefined,white,no,Mozilla,Netscape,5.0 (Windows),xpyriment,legacy,legacy,0,uniform,0,0,0,0,24,24,24,0,0,74,74,74,74,74,0,74,0,54,54,54,54,54,0,54,27-01-22,27-01-22,16:06:55,Sun Feb 27 2022 16:06:55 GMT+0100 (közép-európai téli idő),The main experiment item,yes,0,0,C:/Users/rrics/Documents/!!ResearchBMECOGSCI/gnet,0,0,0,prototype3.png,no,mono,no,18,no,black,no,no,768,1151,3.5.6,legacy,xpyriment,osweb,1.3.13,0,right,enter,enter,right,33584,46566,38411,33584,2,legacy,860,1600,24,900,24,-8,-8,1600,1645974460387,1024,2,48000,-16,experiment,p1sarrsha3.png,1,odd,Win32,79,158579,155574,78,79,686554,688062,681564,160105,681564,79,969366,970877,966368,688075,966368,visual_patterns,0,0,0,yes,1366
undefined,undefined,undefined,undefined,white,no,Mozilla,Netscape,5.0 (Windows),xpyriment,legacy,legacy,0,uniform,0,0,0,0,24,24,24,0,0,74,74,74,74,74,0,74,0,55,55,55,55,55,0,55,27-01-22,27-01-22,16:06:55,Sun Feb 27 2022 16:06:55 GMT+0100 (közép-európai téli idő),The main experiment item,yes,0,0,C:/Users/rrics/Documents/!!ResearchBMECOGSCI/gnet,0,0,0,prototype3.png,no,mono,no,18,no,black,no,no,768,1151,3.5.6,legacy,xpyriment,osweb,1.3.13,0,right,enter,enter,right,33584,46566,38411,33584,2,legacy,860,1600,24,900,24,-8,-8,1600,1645974460387,1024,2,48000,-16,experiment,p3sarrshacol2.png,1,odd,Win32,79,158579,155574,78,79,686554,688062,681564,160105,681564,79,973898,975411,970902,688075,970902,visual_patterns,0,0,0,yes,1366
undefined,undefined,undefined,undefined,white,no,Mozilla,Netscape,5.0 (Windows),xpyriment,legacy,legacy,0,uniform,0,0,0,0,24,24,24,0,0,74,74,74,74,74,0,74,0,56,56,56,56,56,0,56,27-01-22,27-01-22,16:06:55,Sun Feb 27 2022 16:06:55 GMT+0100 (közép-európai téli idő),The main experiment item,yes,0,0,C:/Users/rrics/Documents/!!ResearchBMECOGSCI/gnet,0,0,0,prototype3.png,no,mono,no,18,no,black,no,no,768,1151,3.5.6,legacy,xpyriment,osweb,1.3.13,0,right,enter,enter,right,33584,46566,38411,33584,2,legacy,860,1600,24,900,24,-8,-8,1600,1645974460387,1024,2,48000,-16,experiment,p10sarr2.png,1,odd,Win32,79,158579,155574,78,79,686554,688062,681564,160105,681564,79,978424,979927,975434,688075,975434,visual_patterns,0,0,0,yes,1366
undefined,undefined,undefined,undefined,white,no,Mozilla,Netscape,5.0 (Windows),xpyriment,legacy,legacy,0,uniform,0,0,0,0,24,24,24,0,0,74,74,74,74,74,0,74,0,57,57,57,57,57,0,57,27-01-22,27-01-22,16:06:55,Sun Feb 27 2022 16:06:55 GMT+0100 (közép-európai téli idő),The main experiment item,yes,0,0,C:/Users/rrics/Documents/!!ResearchBMECOGSCI/gnet,0,0,0,prototype3.png,no,mono,no,18,no,black,no,no,768,1151,3.5.6,legacy,xpyriment,osweb,1.3.13,0,right,enter,enter,right,33584,46566,38411,33584,2,legacy,860,1600,24,900,24,-8,-8,1600,1645974460387,1024,2,48000,-16,experiment,p5sarrcol3.png,1,odd,Win32,79,158579,155574,78,79,686554,688062,681564,160105,681564,79,982951,984459,979950,688075,979950,visual_patterns,0,0,0,yes,1366
undefined,undefined,undefined,undefined,white,no,Mozilla,Netscape,5.0 (Windows),xpyriment,legacy,legacy,0,uniform,0,0,0,0,24,24,24,0,0,74,74,74,74,74,0,74,0,58,58,58,58,58,0,58,27-01-22,27-01-22,16:06:55,Sun Feb 27 2022 16:06:55 GMT+0100 (közép-európai téli idő),The main experiment item,yes,0,0,C:/Users/rrics/Documents/!!ResearchBMECOGSCI/gnet,0,0,0,prototype3.png,no,mono,no,18,no,black,no,no,768,1151,3.5.6,legacy,xpyriment,osweb,1.3.13,0,right,enter,enter,right,33584,46566,38411,33584,2,legacy,860,1600,24,900,24,-8,-8,1600,1645974460387,1024,2,48000,-16,experiment,p5sarr4.png,1,odd,Win32,79,158579,155574,78,79,686554,688062,681564,160105,681564,79,987484,988992,984481,688075,984481,visual_patterns,0,0,0,yes,1366
undefined,undefined,undefined,undefined,white,no,Mozilla,Netscape,5.0 (Windows),xpyriment,legacy,legacy,0,uniform,0,0,0,0,24,24,24,0,0,74,74,74,74,74,0,74,0,59,59,59,59,59,0,59,27-01-22,27-01-22,16:06:55,Sun Feb 27 2022 16:06:55 GMT+0100 (közép-európai téli idő),The main experiment item,yes,0,0,C:/Users/rrics/Documents/!!ResearchBMECOGSCI/gnet,0,0,0,prototype3.png,no,mono,no,18,no,black,no,no,768,1151,3.5.6,legacy,xpyriment,osweb,1.3.13,0,right,enter,enter,right,33584,46566,38411,33584,2,legacy,860,1600,24,900,24,-8,-8,1600,1645974460387,1024,2,48000,-16,experiment,p3sarrsha1.png,1,odd,Win32,79,158579,155574,78,79,686554,688062,681564,160105,681564,79,992013,993525,989015,688075,989015,visual_patterns,0,0,0,yes,1366
undefined,undefined,undefined,undefined,white,no,Mozilla,Netscape,5.0 (Windows),xpyriment,legacy,legacy,0,uniform,0,0,0,0,24,24,24,0,0,74,74,74,74,74,0,74,0,60,60,60,60,60,0,60,27-01-22,27-01-22,16:06:55,Sun Feb 27 2022 16:06:55 GMT+0100 (közép-európai téli idő),The main experiment item,yes,0,0,C:/Users/rrics/Documents/!!ResearchBMECOGSCI/gnet,0,0,0,prototype3.png,no,mono,no,18,no,black,no,no,768,1151,3.5.6,legacy,xpyriment,osweb,1.3.13,0,right,enter,enter,right,33584,46566,38411,33584,2,legacy,860,1600,24,900,24,-8,-8,1600,1645974460387,1024,2,48000,-16,experiment,p5sarr1.png,1,odd,Win32,79,158579,155574,78,79,686554,688062,681564,160105,681564,79,996539,998041,993548,688075,993548,visual_patterns,0,0,0,yes,1366
undefined,undefined,undefined,undefined,white,no,Mozilla,Netscape,5.0 (Windows),xpyriment,legacy,legacy,0,uniform,0,0,0,0,24,24,24,0,0,74,74,74,74,74,0,74,0,61,61,61,61,61,0,61,27-01-22,27-01-22,16:06:55,Sun Feb 27 2022 16:06:55 GMT+0100 (közép-európai téli idő),The main experiment item,yes,0,0,C:/Users/rrics/Documents/!!ResearchBMECOGSCI/gnet,0,0,0,prototype3.png,no,mono,no,18,no,black,no,no,768,1151,3.5.6,legacy,xpyriment,osweb,1.3.13,0,right,enter,enter,right,33584,46566,38411,33584,2,legacy,860,1600,24,900,24,-8,-8,1600,1645974460387,1024,2,48000,-16,experiment,p1sarrcol2.png,1,odd,Win32,79,158579,155574,78,79,686554,688062,681564,160105,681564,79,1001066,1002574,998065,688075,998065,visual_patterns,0,0,0,yes,1366
undefined,undefined,undefined,undefined,white,no,Mozilla,Netscape,5.0 (Windows),xpyriment,legacy,legacy,0,uniform,0,0,0,0,24,24,24,0,0,74,74,74,74,74,0,74,0,62,62,62,62,62,0,62,27-01-22,27-01-22,16:06:55,Sun Feb 27 2022 16:06:55 GMT+0100 (közép-európai téli idő),The main experiment item,yes,0,0,C:/Users/rrics/Documents/!!ResearchBMECOGSCI/gnet,0,0,0,prototype3.png,no,mono,no,18,no,black,no,no,768,1151,3.5.6,legacy,xpyriment,osweb,1.3.13,0,right,enter,enter,right,33584,46566,38411,33584,2,legacy,860,1600,24,900,24,-8,-8,1600,1645974460387,1024,2,48000,-16,experiment,p6sarr4.png,1,odd,Win32,79,158579,155574,78,79,686554,688062,681564,160105,681564,79,1005600,1007107,1002597,688075,1002597,visual_patterns,0,0,0,yes,1366
undefined,undefined,undefined,undefined,white,no,Mozilla,Netscape,5.0 (Windows),xpyriment,legacy,legacy,0,uniform,0,0,0,0,24,24,24,0,0,74,74,74,74,74,0,74,0,63,63,63,63,63,0,63,27-01-22,27-01-22,16:06:55,Sun Feb 27 2022 16:06:55 GMT+0100 (közép-európai téli idő),The main experiment item,yes,0,0,C:/Users/rrics/Documents/!!ResearchBMECOGSCI/gnet,0,0,0,prototype3.png,no,mono,no,18,no,black,no,no,768,1151,3.5.6,legacy,xpyriment,osweb,1.3.13,0,right,enter,enter,right,33584,46566,38411,33584,2,legacy,860,1600,24,900,24,-8,-8,1600,1645974460387,1024,2,48000,-16,experiment,p6sarr3.png,1,odd,Win32,79,158579,155574,78,79,686554,688062,681564,160105,681564,79,1010124,1011639,1007131,688075,1007131,visual_patterns,0,0,0,yes,1366
undefined,undefined,undefined,undefined,white,no,Mozilla,Netscape,5.0 (Windows),xpyriment,legacy,legacy,0,uniform,0,0,0,0,24,24,24,0,0,74,74,74,74,74,0,74,0,64,64,64,64,64,0,64,27-01-22,27-01-22,16:06:55,Sun Feb 27 2022 16:06:55 GMT+0100 (közép-európai téli idő),The main experiment item,yes,0,0,C:/Users/rrics/Documents/!!ResearchBMECOGSCI/gnet,0,0,0,prototype3.png,no,mono,no,18,no,black,no,no,768,1151,3.5.6,legacy,xpyriment,osweb,1.3.13,0,right,enter,enter,right,33584,46566,38411,33584,2,legacy,860,1600,24,900,24,-8,-8,1600,1645974460387,1024,2,48000,-16,experiment,p4sarr3.png,1,odd,Win32,79,158579,155574,78,79,686554,688062,681564,160105,681564,79,1014652,1016156,1011662,688075,1011662,visual_patterns,0,0,0,yes,1366
