acc,accuracy,average_response_time,avg_rt,background,bidi,browser_codename,browser_name,browser_version,canvas_backend,clock_backend,color_backend,compensation,coordinates,count_end,count_experiment,count_osweb,count_prestudy,count_prestudy_isi,count_prestudy_sequence,count_prestudy_stimpres,count_start,count_study,count_study_coroutines,count_study_isi,count_study_logger,count_study_response,count_study_sequence,count_study_start,count_study_stimpres,count_test,count_test_coroutines,count_test_isi,count_test_logger,count_test_response,count_test_sequence,count_test_start,count_test_stimpres,date_startdate,date_startdateUTC,date_starttime,datetime,description,disable_garbage_collection,experiment_debug,experiment_parameters,experiment_path,experiment_pilot,experiment_taskname,experiment_taskversion,fampict,font_bold,font_family,font_italic,font_size,font_underline,foreground,form_clicks,fullscreen,height,jatosStudyResultId,jatosVersion,keyboard_backend,mouse_backend,opensesame_codename,opensesame_version,repeat_cycle,response,response_start,response_study_start,response_test_start,response_time,response_time_start,response_time_study_start,response_time_test_start,round_decimals,sampler_backend,screen_availableHeight,screen_availableWidth,screen_colorDepth,screen_height,screen_pixelDepth,screen_screenX,screen_screenY,screen_width,sessionid,sound_buf_size,sound_channels,sound_freq,sound_sample_size,start,stim,subject_nr,subject_parity,system_os,time_prestudy,time_prestudy_isi,time_prestudy_stimpres,time_start,time_study,time_study_isi,time_study_logger,time_study_response,time_study_start,time_study_stimpres,time_test,time_test_isi,time_test_logger,time_test_response,time_test_start,time_test_stimpres,title,total_correct,total_response_time,total_responses,uniform_coordinates,width
undefined,undefined,undefined,undefined,white,no,Mozilla,Netscape,"5.0 (Windows NT 10.0; Win64; x64) AppleWebKit/537.36 (KHTML, like Gecko) Chrome/98.0.4758.102 Safari/537.36",xpyriment,legacy,legacy,0,uniform,0,0,0,0,24,24,24,0,0,0,0,0,0,0,0,0,0,,,,,,0,,27-01-22,27-01-22,21:57:36,Sun Feb 27 2022 21:57:36 GMT+0100 (közép-európai téli idő),The main experiment item,yes,0,0,C:/Users/rrics/Documents/!!ResearchBMECOGSCI/gnet,0,0,0,prototype3.png,no,mono,no,18,no,black,no,no,768,1152,3.5.6,legacy,xpyriment,osweb,1.3.13,0,space,space,space,,14843,8426,14843,,2,legacy,824,1536,24,864,24,0,0,1536,1645995536241,1024,2,48000,-16,experiment,p6sarr1.png,0,even,Win32,94,120348,117332,93,94,141729,143231,136729,121866,136729,94,,,,,,visual_patterns,0,0,0,yes,1366
undefined,undefined,undefined,undefined,white,no,Mozilla,Netscape,"5.0 (Windows NT 10.0; Win64; x64) AppleWebKit/537.36 (KHTML, like Gecko) Chrome/98.0.4758.102 Safari/537.36",xpyriment,legacy,legacy,0,uniform,0,0,0,0,24,24,24,0,0,1,1,1,1,1,0,1,0,,,,,,0,,27-01-22,27-01-22,21:57:36,Sun Feb 27 2022 21:57:36 GMT+0100 (közép-európai téli idő),The main experiment item,yes,0,0,C:/Users/rrics/Documents/!!ResearchBMECOGSCI/gnet,0,0,0,prototype3.png,no,mono,no,18,no,black,no,no,768,1152,3.5.6,legacy,xpyriment,osweb,1.3.13,0,space,space,space,,14843,8426,14843,,2,legacy,824,1536,24,864,24,0,0,1536,1645995536241,1024,2,48000,-16,experiment,prototype3.png,0,even,Win32,94,120348,117332,93,94,148239,149747,143239,121866,143239,94,,,,,,visual_patterns,0,0,0,yes,1366
undefined,undefined,undefined,undefined,white,no,Mozilla,Netscape,"5.0 (Windows NT 10.0; Win64; x64) AppleWebKit/537.36 (KHTML, like Gecko) Chrome/98.0.4758.102 Safari/537.36",xpyriment,legacy,legacy,0,uniform,0,0,0,0,24,24,24,0,0,2,2,2,2,2,0,2,0,,,,,,0,,27-01-22,27-01-22,21:57:36,Sun Feb 27 2022 21:57:36 GMT+0100 (közép-európai téli idő),The main experiment item,yes,0,0,C:/Users/rrics/Documents/!!ResearchBMECOGSCI/gnet,0,0,0,prototype3.png,no,mono,no,18,no,black,no,no,768,1152,3.5.6,legacy,xpyriment,osweb,1.3.13,0,space,space,space,,14843,8426,14843,,2,legacy,824,1536,24,864,24,0,0,1536,1645995536241,1024,2,48000,-16,experiment,p3sarr1.png,0,even,Win32,94,120348,117332,93,94,154759,156264,149756,121866,149756,94,,,,,,visual_patterns,0,0,0,yes,1366
undefined,undefined,undefined,undefined,white,no,Mozilla,Netscape,"5.0 (Windows NT 10.0; Win64; x64) AppleWebKit/537.36 (KHTML, like Gecko) Chrome/98.0.4758.102 Safari/537.36",xpyriment,legacy,legacy,0,uniform,0,0,0,0,24,24,24,0,0,3,3,3,3,3,0,3,0,,,,,,0,,27-01-22,27-01-22,21:57:36,Sun Feb 27 2022 21:57:36 GMT+0100 (közép-európai téli idő),The main experiment item,yes,0,0,C:/Users/rrics/Documents/!!ResearchBMECOGSCI/gnet,0,0,0,prototype3.png,no,mono,no,18,no,black,no,no,768,1152,3.5.6,legacy,xpyriment,osweb,1.3.13,0,space,space,space,,14843,8426,14843,,2,legacy,824,1536,24,864,24,0,0,1536,1645995536241,1024,2,48000,-16,experiment,p9sarr2.png,0,even,Win32,94,120348,117332,93,94,161276,162781,156273,121866,156273,94,,,,,,visual_patterns,0,0,0,yes,1366
undefined,undefined,undefined,undefined,white,no,Mozilla,Netscape,"5.0 (Windows NT 10.0; Win64; x64) AppleWebKit/537.36 (KHTML, like Gecko) Chrome/98.0.4758.102 Safari/537.36",xpyriment,legacy,legacy,0,uniform,0,0,0,0,24,24,24,0,0,4,4,4,4,4,0,4,0,,,,,,0,,27-01-22,27-01-22,21:57:36,Sun Feb 27 2022 21:57:36 GMT+0100 (közép-európai téli idő),The main experiment item,yes,0,0,C:/Users/rrics/Documents/!!ResearchBMECOGSCI/gnet,0,0,0,prototype3.png,no,mono,no,18,no,black,no,no,768,1152,3.5.6,legacy,xpyriment,osweb,1.3.13,0,space,space,space,,14843,8426,14843,,2,legacy,824,1536,24,864,24,0,0,1536,1645995536241,1024,2,48000,-16,experiment,p4sarr2.png,0,even,Win32,94,120348,117332,93,94,167788,169298,162789,121866,162789,94,,,,,,visual_patterns,0,0,0,yes,1366
undefined,undefined,undefined,undefined,white,no,Mozilla,Netscape,"5.0 (Windows NT 10.0; Win64; x64) AppleWebKit/537.36 (KHTML, like Gecko) Chrome/98.0.4758.102 Safari/537.36",xpyriment,legacy,legacy,0,uniform,0,0,0,0,24,24,24,0,0,5,5,5,5,5,0,5,0,,,,,,0,,27-01-22,27-01-22,21:57:36,Sun Feb 27 2022 21:57:36 GMT+0100 (közép-európai téli idő),The main experiment item,yes,0,0,C:/Users/rrics/Documents/!!ResearchBMECOGSCI/gnet,0,0,0,prototype3.png,no,mono,no,18,no,black,no,no,768,1152,3.5.6,legacy,xpyriment,osweb,1.3.13,0,space,space,space,,14843,8426,14843,,2,legacy,824,1536,24,864,24,0,0,1536,1645995536241,1024,2,48000,-16,experiment,p4sarrshacol2.png,0,even,Win32,94,120348,117332,93,94,174304,175814,169306,121866,169306,94,,,,,,visual_patterns,0,0,0,yes,1366
undefined,undefined,undefined,undefined,white,no,Mozilla,Netscape,"5.0 (Windows NT 10.0; Win64; x64) AppleWebKit/537.36 (KHTML, like Gecko) Chrome/98.0.4758.102 Safari/537.36",xpyriment,legacy,legacy,0,uniform,0,0,0,0,24,24,24,0,0,6,6,6,6,6,0,6,0,,,,,,0,,27-01-22,27-01-22,21:57:36,Sun Feb 27 2022 21:57:36 GMT+0100 (közép-európai téli idő),The main experiment item,yes,0,0,C:/Users/rrics/Documents/!!ResearchBMECOGSCI/gnet,0,0,0,prototype3.png,no,mono,no,18,no,black,no,no,768,1152,3.5.6,legacy,xpyriment,osweb,1.3.13,0,space,space,space,,14843,8426,14843,,2,legacy,824,1536,24,864,24,0,0,1536,1645995536241,1024,2,48000,-16,experiment,p5sarrsha2.png,0,even,Win32,94,120348,117332,93,94,180822,182331,175822,121866,175822,94,,,,,,visual_patterns,0,0,0,yes,1366
undefined,undefined,undefined,undefined,white,no,Mozilla,Netscape,"5.0 (Windows NT 10.0; Win64; x64) AppleWebKit/537.36 (KHTML, like Gecko) Chrome/98.0.4758.102 Safari/537.36",xpyriment,legacy,legacy,0,uniform,0,0,0,0,24,24,24,0,0,7,7,7,7,7,0,7,0,,,,,,0,,27-01-22,27-01-22,21:57:36,Sun Feb 27 2022 21:57:36 GMT+0100 (közép-európai téli idő),The main experiment item,yes,0,0,C:/Users/rrics/Documents/!!ResearchBMECOGSCI/gnet,0,0,0,prototype3.png,no,mono,no,18,no,black,no,no,768,1152,3.5.6,legacy,xpyriment,osweb,1.3.13,0,space,space,space,,14843,8426,14843,,2,legacy,824,1536,24,864,24,0,0,1536,1645995536241,1024,2,48000,-16,experiment,p2sarr1.png,0,even,Win32,94,120348,117332,93,94,187338,188848,182340,121866,182340,94,,,,,,visual_patterns,0,0,0,yes,1366
undefined,undefined,undefined,undefined,white,no,Mozilla,Netscape,"5.0 (Windows NT 10.0; Win64; x64) AppleWebKit/537.36 (KHTML, like Gecko) Chrome/98.0.4758.102 Safari/537.36",xpyriment,legacy,legacy,0,uniform,0,0,0,0,24,24,24,0,0,8,8,8,8,8,0,8,0,,,,,,0,,27-01-22,27-01-22,21:57:36,Sun Feb 27 2022 21:57:36 GMT+0100 (közép-európai téli idő),The main experiment item,yes,0,0,C:/Users/rrics/Documents/!!ResearchBMECOGSCI/gnet,0,0,0,prototype3.png,no,mono,no,18,no,black,no,no,768,1152,3.5.6,legacy,xpyriment,osweb,1.3.13,0,space,space,space,,14843,8426,14843,,2,legacy,824,1536,24,864,24,0,0,1536,1645995536241,1024,2,48000,-16,experiment,prototype4.png,0,even,Win32,94,120348,117332,93,94,193867,195381,188865,121866,188864,94,,,,,,visual_patterns,0,0,0,yes,1366
undefined,undefined,undefined,undefined,white,no,Mozilla,Netscape,"5.0 (Windows NT 10.0; Win64; x64) AppleWebKit/537.36 (KHTML, like Gecko) Chrome/98.0.4758.102 Safari/537.36",xpyriment,legacy,legacy,0,uniform,0,0,0,0,24,24,24,0,0,9,9,9,9,9,0,9,0,,,,,,0,,27-01-22,27-01-22,21:57:36,Sun Feb 27 2022 21:57:36 GMT+0100 (közép-európai téli idő),The main experiment item,yes,0,0,C:/Users/rrics/Documents/!!ResearchBMECOGSCI/gnet,0,0,0,prototype3.png,no,mono,no,18,no,black,no,no,768,1152,3.5.6,legacy,xpyriment,osweb,1.3.13,0,space,space,space,,14843,8426,14843,,2,legacy,824,1536,24,864,24,0,0,1536,1645995536241,1024,2,48000,-16,experiment,p5sarrsha1.png,0,even,Win32,94,120348,117332,93,94,200389,201897,195389,121866,195389,94,,,,,,visual_patterns,0,0,0,yes,1366
undefined,undefined,undefined,undefined,white,no,Mozilla,Netscape,"5.0 (Windows NT 10.0; Win64; x64) AppleWebKit/537.36 (KHTML, like Gecko) Chrome/98.0.4758.102 Safari/537.36",xpyriment,legacy,legacy,0,uniform,0,0,0,0,24,24,24,0,0,10,10,10,10,10,0,10,0,,,,,,0,,27-01-22,27-01-22,21:57:36,Sun Feb 27 2022 21:57:36 GMT+0100 (közép-európai téli idő),The main experiment item,yes,0,0,C:/Users/rrics/Documents/!!ResearchBMECOGSCI/gnet,0,0,0,prototype3.png,no,mono,no,18,no,black,no,no,768,1152,3.5.6,legacy,xpyriment,osweb,1.3.13,0,space,space,space,,14843,8426,14843,,2,legacy,824,1536,24,864,24,0,0,1536,1645995536241,1024,2,48000,-16,experiment,p5sarrcol1.png,0,even,Win32,94,120348,117332,93,94,206905,208414,201906,121866,201905,94,,,,,,visual_patterns,0,0,0,yes,1366
undefined,undefined,undefined,undefined,white,no,Mozilla,Netscape,"5.0 (Windows NT 10.0; Win64; x64) AppleWebKit/537.36 (KHTML, like Gecko) Chrome/98.0.4758.102 Safari/537.36",xpyriment,legacy,legacy,0,uniform,0,0,0,0,24,24,24,0,0,11,11,11,11,11,0,11,0,,,,,,0,,27-01-22,27-01-22,21:57:36,Sun Feb 27 2022 21:57:36 GMT+0100 (közép-európai téli idő),The main experiment item,yes,0,0,C:/Users/rrics/Documents/!!ResearchBMECOGSCI/gnet,0,0,0,prototype3.png,no,mono,no,18,no,black,no,no,768,1152,3.5.6,legacy,xpyriment,osweb,1.3.13,0,space,space,space,,14843,8426,14843,,2,legacy,824,1536,24,864,24,0,0,1536,1645995536241,1024,2,48000,-16,experiment,p8sarr2.png,0,even,Win32,94,120348,117332,93,94,213423,214931,208422,121866,208422,94,,,,,,visual_patterns,0,0,0,yes,1366
undefined,undefined,undefined,undefined,white,no,Mozilla,Netscape,"5.0 (Windows NT 10.0; Win64; x64) AppleWebKit/537.36 (KHTML, like Gecko) Chrome/98.0.4758.102 Safari/537.36",xpyriment,legacy,legacy,0,uniform,0,0,0,0,24,24,24,0,0,12,12,12,12,12,0,12,0,,,,,,0,,27-01-22,27-01-22,21:57:36,Sun Feb 27 2022 21:57:36 GMT+0100 (közép-európai téli idő),The main experiment item,yes,0,0,C:/Users/rrics/Documents/!!ResearchBMECOGSCI/gnet,0,0,0,prototype3.png,no,mono,no,18,no,black,no,no,768,1152,3.5.6,legacy,xpyriment,osweb,1.3.13,0,space,space,space,,14843,8426,14843,,2,legacy,824,1536,24,864,24,0,0,1536,1645995536241,1024,2,48000,-16,experiment,p5sarrshacol2.png,0,even,Win32,94,120348,117332,93,94,219940,221448,214939,121866,214939,94,,,,,,visual_patterns,0,0,0,yes,1366
undefined,undefined,undefined,undefined,white,no,Mozilla,Netscape,"5.0 (Windows NT 10.0; Win64; x64) AppleWebKit/537.36 (KHTML, like Gecko) Chrome/98.0.4758.102 Safari/537.36",xpyriment,legacy,legacy,0,uniform,0,0,0,0,24,24,24,0,0,13,13,13,13,13,0,13,0,,,,,,0,,27-01-22,27-01-22,21:57:36,Sun Feb 27 2022 21:57:36 GMT+0100 (közép-európai téli idő),The main experiment item,yes,0,0,C:/Users/rrics/Documents/!!ResearchBMECOGSCI/gnet,0,0,0,prototype3.png,no,mono,no,18,no,black,no,no,768,1152,3.5.6,legacy,xpyriment,osweb,1.3.13,0,space,space,space,,14843,8426,14843,,2,legacy,824,1536,24,864,24,0,0,1536,1645995536241,1024,2,48000,-16,experiment,p8sarr1.png,0,even,Win32,94,120348,117332,93,94,226459,227964,221456,121866,221456,94,,,,,,visual_patterns,0,0,0,yes,1366
undefined,undefined,undefined,undefined,white,no,Mozilla,Netscape,"5.0 (Windows NT 10.0; Win64; x64) AppleWebKit/537.36 (KHTML, like Gecko) Chrome/98.0.4758.102 Safari/537.36",xpyriment,legacy,legacy,0,uniform,0,0,0,0,24,24,24,0,0,14,14,14,14,14,0,14,0,,,,,,0,,27-01-22,27-01-22,21:57:36,Sun Feb 27 2022 21:57:36 GMT+0100 (közép-európai téli idő),The main experiment item,yes,0,0,C:/Users/rrics/Documents/!!ResearchBMECOGSCI/gnet,0,0,0,prototype3.png,no,mono,no,18,no,black,no,no,768,1152,3.5.6,legacy,xpyriment,osweb,1.3.13,0,space,space,space,,14843,8426,14843,,2,legacy,824,1536,24,864,24,0,0,1536,1645995536241,1024,2,48000,-16,experiment,p3sarrcol1.png,0,even,Win32,94,120348,117332,93,94,232970,234481,227973,121866,227973,94,,,,,,visual_patterns,0,0,0,yes,1366
undefined,undefined,undefined,undefined,white,no,Mozilla,Netscape,"5.0 (Windows NT 10.0; Win64; x64) AppleWebKit/537.36 (KHTML, like Gecko) Chrome/98.0.4758.102 Safari/537.36",xpyriment,legacy,legacy,0,uniform,0,0,0,0,24,24,24,0,0,15,15,15,15,15,0,15,0,,,,,,0,,27-01-22,27-01-22,21:57:36,Sun Feb 27 2022 21:57:36 GMT+0100 (közép-európai téli idő),The main experiment item,yes,0,0,C:/Users/rrics/Documents/!!ResearchBMECOGSCI/gnet,0,0,0,prototype3.png,no,mono,no,18,no,black,no,no,768,1152,3.5.6,legacy,xpyriment,osweb,1.3.13,0,space,space,space,,14843,8426,14843,,2,legacy,824,1536,24,864,24,0,0,1536,1645995536241,1024,2,48000,-16,experiment,prototype1.png,0,even,Win32,94,120348,117332,93,94,239489,240998,234486,121866,234486,94,,,,,,visual_patterns,0,0,0,yes,1366
undefined,undefined,undefined,undefined,white,no,Mozilla,Netscape,"5.0 (Windows NT 10.0; Win64; x64) AppleWebKit/537.36 (KHTML, like Gecko) Chrome/98.0.4758.102 Safari/537.36",xpyriment,legacy,legacy,0,uniform,0,0,0,0,24,24,24,0,0,16,16,16,16,16,0,16,0,,,,,,0,,27-01-22,27-01-22,21:57:36,Sun Feb 27 2022 21:57:36 GMT+0100 (közép-európai téli idő),The main experiment item,yes,0,0,C:/Users/rrics/Documents/!!ResearchBMECOGSCI/gnet,0,0,0,prototype3.png,no,mono,no,18,no,black,no,no,768,1152,3.5.6,legacy,xpyriment,osweb,1.3.13,0,space,space,space,,14843,8426,14843,,2,legacy,824,1536,24,864,24,0,0,1536,1645995536241,1024,2,48000,-16,experiment,p2sarr2.png,0,even,Win32,94,120348,117332,93,94,246007,247516,241006,121866,241006,94,,,,,,visual_patterns,0,0,0,yes,1366
undefined,undefined,undefined,undefined,white,no,Mozilla,Netscape,"5.0 (Windows NT 10.0; Win64; x64) AppleWebKit/537.36 (KHTML, like Gecko) Chrome/98.0.4758.102 Safari/537.36",xpyriment,legacy,legacy,0,uniform,0,0,0,0,24,24,24,0,0,17,17,17,17,17,0,17,0,,,,,,0,,27-01-22,27-01-22,21:57:36,Sun Feb 27 2022 21:57:36 GMT+0100 (közép-európai téli idő),The main experiment item,yes,0,0,C:/Users/rrics/Documents/!!ResearchBMECOGSCI/gnet,0,0,0,prototype3.png,no,mono,no,18,no,black,no,no,768,1152,3.5.6,legacy,xpyriment,osweb,1.3.13,0,space,space,space,,14843,8426,14843,,2,legacy,824,1536,24,864,24,0,0,1536,1645995536241,1024,2,48000,-16,experiment,p3sarrsha2.png,0,even,Win32,94,120348,117332,93,94,252525,254031,247524,121866,247524,94,,,,,,visual_patterns,0,0,0,yes,1366
undefined,undefined,undefined,undefined,white,no,Mozilla,Netscape,"5.0 (Windows NT 10.0; Win64; x64) AppleWebKit/537.36 (KHTML, like Gecko) Chrome/98.0.4758.102 Safari/537.36",xpyriment,legacy,legacy,0,uniform,0,0,0,0,24,24,24,0,0,18,18,18,18,18,0,18,0,,,,,,0,,27-01-22,27-01-22,21:57:36,Sun Feb 27 2022 21:57:36 GMT+0100 (közép-európai téli idő),The main experiment item,yes,0,0,C:/Users/rrics/Documents/!!ResearchBMECOGSCI/gnet,0,0,0,prototype3.png,no,mono,no,18,no,black,no,no,768,1152,3.5.6,legacy,xpyriment,osweb,1.3.13,0,space,space,space,,14843,8426,14843,,2,legacy,824,1536,24,864,24,0,0,1536,1645995536241,1024,2,48000,-16,experiment,prototype4.png,0,even,Win32,94,120348,117332,93,94,259052,260564,254048,121866,254048,94,,,,,,visual_patterns,0,0,0,yes,1366
undefined,undefined,undefined,undefined,white,no,Mozilla,Netscape,"5.0 (Windows NT 10.0; Win64; x64) AppleWebKit/537.36 (KHTML, like Gecko) Chrome/98.0.4758.102 Safari/537.36",xpyriment,legacy,legacy,0,uniform,0,0,0,0,24,24,24,0,0,19,19,19,19,19,0,19,0,,,,,,0,,27-01-22,27-01-22,21:57:36,Sun Feb 27 2022 21:57:36 GMT+0100 (közép-európai téli idő),The main experiment item,yes,0,0,C:/Users/rrics/Documents/!!ResearchBMECOGSCI/gnet,0,0,0,prototype3.png,no,mono,no,18,no,black,no,no,768,1152,3.5.6,legacy,xpyriment,osweb,1.3.13,0,space,space,space,,14843,8426,14843,,2,legacy,824,1536,24,864,24,0,0,1536,1645995536241,1024,2,48000,-16,experiment,p3sarrsha1.png,0,even,Win32,94,120348,117332,93,94,265574,267081,260572,121866,260572,94,,,,,,visual_patterns,0,0,0,yes,1366
undefined,undefined,undefined,undefined,white,no,Mozilla,Netscape,"5.0 (Windows NT 10.0; Win64; x64) AppleWebKit/537.36 (KHTML, like Gecko) Chrome/98.0.4758.102 Safari/537.36",xpyriment,legacy,legacy,0,uniform,0,0,0,0,24,24,24,0,0,20,20,20,20,20,0,20,0,,,,,,0,,27-01-22,27-01-22,21:57:36,Sun Feb 27 2022 21:57:36 GMT+0100 (közép-európai téli idő),The main experiment item,yes,0,0,C:/Users/rrics/Documents/!!ResearchBMECOGSCI/gnet,0,0,0,prototype3.png,no,mono,no,18,no,black,no,no,768,1152,3.5.6,legacy,xpyriment,osweb,1.3.13,0,space,space,space,,14843,8426,14843,,2,legacy,824,1536,24,864,24,0,0,1536,1645995536241,1024,2,48000,-16,experiment,prototype2.png,0,even,Win32,94,120348,117332,93,94,272089,273598,267087,121866,267087,94,,,,,,visual_patterns,0,0,0,yes,1366
undefined,undefined,undefined,undefined,white,no,Mozilla,Netscape,"5.0 (Windows NT 10.0; Win64; x64) AppleWebKit/537.36 (KHTML, like Gecko) Chrome/98.0.4758.102 Safari/537.36",xpyriment,legacy,legacy,0,uniform,0,0,0,0,24,24,24,0,0,21,21,21,21,21,0,21,0,,,,,,0,,27-01-22,27-01-22,21:57:36,Sun Feb 27 2022 21:57:36 GMT+0100 (közép-európai téli idő),The main experiment item,yes,0,0,C:/Users/rrics/Documents/!!ResearchBMECOGSCI/gnet,0,0,0,prototype3.png,no,mono,no,18,no,black,no,no,768,1152,3.5.6,legacy,xpyriment,osweb,1.3.13,0,space,space,space,,14843,8426,14843,,2,legacy,824,1536,24,864,24,0,0,1536,1645995536241,1024,2,48000,-16,experiment,p4sarrcol2.png,0,even,Win32,94,120348,117332,93,94,278607,280114,273605,121866,273605,94,,,,,,visual_patterns,0,0,0,yes,1366
undefined,undefined,undefined,undefined,white,no,Mozilla,Netscape,"5.0 (Windows NT 10.0; Win64; x64) AppleWebKit/537.36 (KHTML, like Gecko) Chrome/98.0.4758.102 Safari/537.36",xpyriment,legacy,legacy,0,uniform,0,0,0,0,24,24,24,0,0,22,22,22,22,22,0,22,0,,,,,,0,,27-01-22,27-01-22,21:57:36,Sun Feb 27 2022 21:57:36 GMT+0100 (közép-európai téli idő),The main experiment item,yes,0,0,C:/Users/rrics/Documents/!!ResearchBMECOGSCI/gnet,0,0,0,prototype3.png,no,mono,no,18,no,black,no,no,768,1152,3.5.6,legacy,xpyriment,osweb,1.3.13,0,space,space,space,,14843,8426,14843,,2,legacy,824,1536,24,864,24,0,0,1536,1645995536241,1024,2,48000,-16,experiment,p5sarrshacol1.png,0,even,Win32,94,120348,117332,93,94,285121,286631,280122,121866,280122,94,,,,,,visual_patterns,0,0,0,yes,1366
undefined,undefined,undefined,undefined,white,no,Mozilla,Netscape,"5.0 (Windows NT 10.0; Win64; x64) AppleWebKit/537.36 (KHTML, like Gecko) Chrome/98.0.4758.102 Safari/537.36",xpyriment,legacy,legacy,0,uniform,0,0,0,0,24,24,24,0,0,23,23,23,23,23,0,23,0,,,,,,0,,27-01-22,27-01-22,21:57:36,Sun Feb 27 2022 21:57:36 GMT+0100 (közép-európai téli idő),The main experiment item,yes,0,0,C:/Users/rrics/Documents/!!ResearchBMECOGSCI/gnet,0,0,0,prototype3.png,no,mono,no,18,no,black,no,no,768,1152,3.5.6,legacy,xpyriment,osweb,1.3.13,0,space,space,space,,14843,8426,14843,,2,legacy,824,1536,24,864,24,0,0,1536,1645995536241,1024,2,48000,-16,experiment,prototype2.png,0,even,Win32,94,120348,117332,93,94,291639,293148,286637,121866,286637,94,,,,,,visual_patterns,0,0,0,yes,1366
undefined,undefined,undefined,undefined,white,no,Mozilla,Netscape,"5.0 (Windows NT 10.0; Win64; x64) AppleWebKit/537.36 (KHTML, like Gecko) Chrome/98.0.4758.102 Safari/537.36",xpyriment,legacy,legacy,0,uniform,0,0,0,0,24,24,24,0,0,24,24,24,24,24,0,24,0,,,,,,0,,27-01-22,27-01-22,21:57:36,Sun Feb 27 2022 21:57:36 GMT+0100 (közép-európai téli idő),The main experiment item,yes,0,0,C:/Users/rrics/Documents/!!ResearchBMECOGSCI/gnet,0,0,0,prototype3.png,no,mono,no,18,no,black,no,no,768,1152,3.5.6,legacy,xpyriment,osweb,1.3.13,0,space,space,space,,14843,8426,14843,,2,legacy,824,1536,24,864,24,0,0,1536,1645995536241,1024,2,48000,-16,experiment,p4sarrsha2.png,0,even,Win32,94,120348,117332,93,94,298157,299665,293155,121866,293155,94,,,,,,visual_patterns,0,0,0,yes,1366
undefined,undefined,undefined,undefined,white,no,Mozilla,Netscape,"5.0 (Windows NT 10.0; Win64; x64) AppleWebKit/537.36 (KHTML, like Gecko) Chrome/98.0.4758.102 Safari/537.36",xpyriment,legacy,legacy,0,uniform,0,0,0,0,24,24,24,0,0,25,25,25,25,25,0,25,0,,,,,,0,,27-01-22,27-01-22,21:57:36,Sun Feb 27 2022 21:57:36 GMT+0100 (közép-európai téli idő),The main experiment item,yes,0,0,C:/Users/rrics/Documents/!!ResearchBMECOGSCI/gnet,0,0,0,prototype3.png,no,mono,no,18,no,black,no,no,768,1152,3.5.6,legacy,xpyriment,osweb,1.3.13,0,space,space,space,,14843,8426,14843,,2,legacy,824,1536,24,864,24,0,0,1536,1645995536241,1024,2,48000,-16,experiment,p9sarr1.png,0,even,Win32,94,120348,117332,93,94,304672,306181,299674,121866,299674,94,,,,,,visual_patterns,0,0,0,yes,1366
undefined,undefined,undefined,undefined,white,no,Mozilla,Netscape,"5.0 (Windows NT 10.0; Win64; x64) AppleWebKit/537.36 (KHTML, like Gecko) Chrome/98.0.4758.102 Safari/537.36",xpyriment,legacy,legacy,0,uniform,0,0,0,0,24,24,24,0,0,26,26,26,26,26,0,26,0,,,,,,0,,27-01-22,27-01-22,21:57:36,Sun Feb 27 2022 21:57:36 GMT+0100 (közép-európai téli idő),The main experiment item,yes,0,0,C:/Users/rrics/Documents/!!ResearchBMECOGSCI/gnet,0,0,0,prototype3.png,no,mono,no,18,no,black,no,no,768,1152,3.5.6,legacy,xpyriment,osweb,1.3.13,0,space,space,space,,14843,8426,14843,,2,legacy,824,1536,24,864,24,0,0,1536,1645995536241,1024,2,48000,-16,experiment,prototype1.png,0,even,Win32,94,120348,117332,93,94,311188,312698,306187,121866,306187,94,,,,,,visual_patterns,0,0,0,yes,1366
undefined,undefined,undefined,undefined,white,no,Mozilla,Netscape,"5.0 (Windows NT 10.0; Win64; x64) AppleWebKit/537.36 (KHTML, like Gecko) Chrome/98.0.4758.102 Safari/537.36",xpyriment,legacy,legacy,0,uniform,0,0,0,0,24,24,24,0,0,27,27,27,27,27,0,27,0,,,,,,0,,27-01-22,27-01-22,21:57:36,Sun Feb 27 2022 21:57:36 GMT+0100 (közép-európai téli idő),The main experiment item,yes,0,0,C:/Users/rrics/Documents/!!ResearchBMECOGSCI/gnet,0,0,0,prototype3.png,no,mono,no,18,no,black,no,no,768,1152,3.5.6,legacy,xpyriment,osweb,1.3.13,0,space,space,space,,14843,8426,14843,,2,legacy,824,1536,24,864,24,0,0,1536,1645995536241,1024,2,48000,-16,experiment,p4sarrcol1.png,0,even,Win32,94,120348,117332,93,94,317703,319214,312706,121866,312706,94,,,,,,visual_patterns,0,0,0,yes,1366
undefined,undefined,undefined,undefined,white,no,Mozilla,Netscape,"5.0 (Windows NT 10.0; Win64; x64) AppleWebKit/537.36 (KHTML, like Gecko) Chrome/98.0.4758.102 Safari/537.36",xpyriment,legacy,legacy,0,uniform,0,0,0,0,24,24,24,0,0,28,28,28,28,28,0,28,0,,,,,,0,,27-01-22,27-01-22,21:57:36,Sun Feb 27 2022 21:57:36 GMT+0100 (közép-európai téli idő),The main experiment item,yes,0,0,C:/Users/rrics/Documents/!!ResearchBMECOGSCI/gnet,0,0,0,prototype3.png,no,mono,no,18,no,black,no,no,768,1152,3.5.6,legacy,xpyriment,osweb,1.3.13,0,space,space,space,,14843,8426,14843,,2,legacy,824,1536,24,864,24,0,0,1536,1645995536241,1024,2,48000,-16,experiment,prototype4.png,0,even,Win32,94,120348,117332,93,94,324234,325748,319231,121866,319231,94,,,,,,visual_patterns,0,0,0,yes,1366
undefined,undefined,undefined,undefined,white,no,Mozilla,Netscape,"5.0 (Windows NT 10.0; Win64; x64) AppleWebKit/537.36 (KHTML, like Gecko) Chrome/98.0.4758.102 Safari/537.36",xpyriment,legacy,legacy,0,uniform,0,0,0,0,24,24,24,0,0,29,29,29,29,29,0,29,0,,,,,,0,,27-01-22,27-01-22,21:57:36,Sun Feb 27 2022 21:57:36 GMT+0100 (közép-európai téli idő),The main experiment item,yes,0,0,C:/Users/rrics/Documents/!!ResearchBMECOGSCI/gnet,0,0,0,prototype3.png,no,mono,no,18,no,black,no,no,768,1152,3.5.6,legacy,xpyriment,osweb,1.3.13,0,space,space,space,,14843,8426,14843,,2,legacy,824,1536,24,864,24,0,0,1536,1645995536241,1024,2,48000,-16,experiment,prototype5.png,0,even,Win32,94,120348,117332,93,94,330755,332264,325753,121866,325753,94,,,,,,visual_patterns,0,0,0,yes,1366
undefined,undefined,undefined,undefined,white,no,Mozilla,Netscape,"5.0 (Windows NT 10.0; Win64; x64) AppleWebKit/537.36 (KHTML, like Gecko) Chrome/98.0.4758.102 Safari/537.36",xpyriment,legacy,legacy,0,uniform,0,0,0,0,24,24,24,0,0,30,30,30,30,30,0,30,0,,,,,,0,,27-01-22,27-01-22,21:57:36,Sun Feb 27 2022 21:57:36 GMT+0100 (közép-európai téli idő),The main experiment item,yes,0,0,C:/Users/rrics/Documents/!!ResearchBMECOGSCI/gnet,0,0,0,prototype3.png,no,mono,no,18,no,black,no,no,768,1152,3.5.6,legacy,xpyriment,osweb,1.3.13,0,space,space,space,,14843,8426,14843,,2,legacy,824,1536,24,864,24,0,0,1536,1645995536241,1024,2,48000,-16,experiment,p5sarrcol2.png,0,even,Win32,94,120348,117332,93,94,337275,338781,332272,121866,332272,94,,,,,,visual_patterns,0,0,0,yes,1366
undefined,undefined,undefined,undefined,white,no,Mozilla,Netscape,"5.0 (Windows NT 10.0; Win64; x64) AppleWebKit/537.36 (KHTML, like Gecko) Chrome/98.0.4758.102 Safari/537.36",xpyriment,legacy,legacy,0,uniform,0,0,0,0,24,24,24,0,0,31,31,31,31,31,0,31,0,,,,,,0,,27-01-22,27-01-22,21:57:36,Sun Feb 27 2022 21:57:36 GMT+0100 (közép-európai téli idő),The main experiment item,yes,0,0,C:/Users/rrics/Documents/!!ResearchBMECOGSCI/gnet,0,0,0,prototype3.png,no,mono,no,18,no,black,no,no,768,1152,3.5.6,legacy,xpyriment,osweb,1.3.13,0,space,space,space,,14843,8426,14843,,2,legacy,824,1536,24,864,24,0,0,1536,1645995536241,1024,2,48000,-16,experiment,p2sarrsha2.png,0,even,Win32,94,120348,117332,93,94,343787,345298,338789,121866,338789,94,,,,,,visual_patterns,0,0,0,yes,1366
undefined,undefined,undefined,undefined,white,no,Mozilla,Netscape,"5.0 (Windows NT 10.0; Win64; x64) AppleWebKit/537.36 (KHTML, like Gecko) Chrome/98.0.4758.102 Safari/537.36",xpyriment,legacy,legacy,0,uniform,0,0,0,0,24,24,24,0,0,32,32,32,32,32,0,32,0,,,,,,0,,27-01-22,27-01-22,21:57:36,Sun Feb 27 2022 21:57:36 GMT+0100 (közép-európai téli idő),The main experiment item,yes,0,0,C:/Users/rrics/Documents/!!ResearchBMECOGSCI/gnet,0,0,0,prototype3.png,no,mono,no,18,no,black,no,no,768,1152,3.5.6,legacy,xpyriment,osweb,1.3.13,0,space,space,space,,14843,8426,14843,,2,legacy,824,1536,24,864,24,0,0,1536,1645995536241,1024,2,48000,-16,experiment,p5sarr1.png,0,even,Win32,94,120348,117332,93,94,350304,351814,345306,121866,345306,94,,,,,,visual_patterns,0,0,0,yes,1366
undefined,undefined,undefined,undefined,white,no,Mozilla,Netscape,"5.0 (Windows NT 10.0; Win64; x64) AppleWebKit/537.36 (KHTML, like Gecko) Chrome/98.0.4758.102 Safari/537.36",xpyriment,legacy,legacy,0,uniform,0,0,0,0,24,24,24,0,0,33,33,33,33,33,0,33,0,,,,,,0,,27-01-22,27-01-22,21:57:36,Sun Feb 27 2022 21:57:36 GMT+0100 (közép-európai téli idő),The main experiment item,yes,0,0,C:/Users/rrics/Documents/!!ResearchBMECOGSCI/gnet,0,0,0,prototype3.png,no,mono,no,18,no,black,no,no,768,1152,3.5.6,legacy,xpyriment,osweb,1.3.13,0,space,space,space,,14843,8426,14843,,2,legacy,824,1536,24,864,24,0,0,1536,1645995536241,1024,2,48000,-16,experiment,p3sarrshacol1.png,0,even,Win32,94,120348,117332,93,94,356835,358347,351833,121866,351833,94,,,,,,visual_patterns,0,0,0,yes,1366
undefined,undefined,undefined,undefined,white,no,Mozilla,Netscape,"5.0 (Windows NT 10.0; Win64; x64) AppleWebKit/537.36 (KHTML, like Gecko) Chrome/98.0.4758.102 Safari/537.36",xpyriment,legacy,legacy,0,uniform,0,0,0,0,24,24,24,0,0,34,34,34,34,34,0,34,0,,,,,,0,,27-01-22,27-01-22,21:57:36,Sun Feb 27 2022 21:57:36 GMT+0100 (közép-európai téli idő),The main experiment item,yes,0,0,C:/Users/rrics/Documents/!!ResearchBMECOGSCI/gnet,0,0,0,prototype3.png,no,mono,no,18,no,black,no,no,768,1152,3.5.6,legacy,xpyriment,osweb,1.3.13,0,space,space,space,,14843,8426,14843,,2,legacy,824,1536,24,864,24,0,0,1536,1645995536241,1024,2,48000,-16,experiment,prototype1.png,0,even,Win32,94,120348,117332,93,94,363355,364864,358355,121866,358355,94,,,,,,visual_patterns,0,0,0,yes,1366
undefined,undefined,undefined,undefined,white,no,Mozilla,Netscape,"5.0 (Windows NT 10.0; Win64; x64) AppleWebKit/537.36 (KHTML, like Gecko) Chrome/98.0.4758.102 Safari/537.36",xpyriment,legacy,legacy,0,uniform,0,0,0,0,24,24,24,0,0,35,35,35,35,35,0,35,0,,,,,,0,,27-01-22,27-01-22,21:57:36,Sun Feb 27 2022 21:57:36 GMT+0100 (közép-európai téli idő),The main experiment item,yes,0,0,C:/Users/rrics/Documents/!!ResearchBMECOGSCI/gnet,0,0,0,prototype3.png,no,mono,no,18,no,black,no,no,768,1152,3.5.6,legacy,xpyriment,osweb,1.3.13,0,space,space,space,,14843,8426,14843,,2,legacy,824,1536,24,864,24,0,0,1536,1645995536241,1024,2,48000,-16,experiment,p4sarrshacol1.png,0,even,Win32,94,120348,117332,93,94,369870,371381,364872,121866,364872,94,,,,,,visual_patterns,0,0,0,yes,1366
undefined,undefined,undefined,undefined,white,no,Mozilla,Netscape,"5.0 (Windows NT 10.0; Win64; x64) AppleWebKit/537.36 (KHTML, like Gecko) Chrome/98.0.4758.102 Safari/537.36",xpyriment,legacy,legacy,0,uniform,0,0,0,0,24,24,24,0,0,36,36,36,36,36,0,36,0,,,,,,0,,27-01-22,27-01-22,21:57:36,Sun Feb 27 2022 21:57:36 GMT+0100 (közép-európai téli idő),The main experiment item,yes,0,0,C:/Users/rrics/Documents/!!ResearchBMECOGSCI/gnet,0,0,0,prototype3.png,no,mono,no,18,no,black,no,no,768,1152,3.5.6,legacy,xpyriment,osweb,1.3.13,0,space,space,space,,14843,8426,14843,,2,legacy,824,1536,24,864,24,0,0,1536,1645995536241,1024,2,48000,-16,experiment,prototype3.png,0,even,Win32,94,120348,117332,93,94,376390,377898,371388,121866,371388,94,,,,,,visual_patterns,0,0,0,yes,1366
undefined,undefined,undefined,undefined,white,no,Mozilla,Netscape,"5.0 (Windows NT 10.0; Win64; x64) AppleWebKit/537.36 (KHTML, like Gecko) Chrome/98.0.4758.102 Safari/537.36",xpyriment,legacy,legacy,0,uniform,0,0,0,0,24,24,24,0,0,37,37,37,37,37,0,37,0,,,,,,0,,27-01-22,27-01-22,21:57:36,Sun Feb 27 2022 21:57:36 GMT+0100 (közép-európai téli idő),The main experiment item,yes,0,0,C:/Users/rrics/Documents/!!ResearchBMECOGSCI/gnet,0,0,0,prototype3.png,no,mono,no,18,no,black,no,no,768,1152,3.5.6,legacy,xpyriment,osweb,1.3.13,0,space,space,space,,14843,8426,14843,,2,legacy,824,1536,24,864,24,0,0,1536,1645995536241,1024,2,48000,-16,experiment,prototype3.png,0,even,Win32,94,120348,117332,93,94,382907,384414,377903,121866,377903,94,,,,,,visual_patterns,0,0,0,yes,1366
undefined,undefined,undefined,undefined,white,no,Mozilla,Netscape,"5.0 (Windows NT 10.0; Win64; x64) AppleWebKit/537.36 (KHTML, like Gecko) Chrome/98.0.4758.102 Safari/537.36",xpyriment,legacy,legacy,0,uniform,0,0,0,0,24,24,24,0,0,38,38,38,38,38,0,38,0,,,,,,0,,27-01-22,27-01-22,21:57:36,Sun Feb 27 2022 21:57:36 GMT+0100 (közép-európai téli idő),The main experiment item,yes,0,0,C:/Users/rrics/Documents/!!ResearchBMECOGSCI/gnet,0,0,0,prototype3.png,no,mono,no,18,no,black,no,no,768,1152,3.5.6,legacy,xpyriment,osweb,1.3.13,0,space,space,space,,14843,8426,14843,,2,legacy,824,1536,24,864,24,0,0,1536,1645995536241,1024,2,48000,-16,experiment,p7sarr1.png,0,even,Win32,94,120348,117332,93,94,389423,390931,384423,121866,384423,94,,,,,,visual_patterns,0,0,0,yes,1366
undefined,undefined,undefined,undefined,white,no,Mozilla,Netscape,"5.0 (Windows NT 10.0; Win64; x64) AppleWebKit/537.36 (KHTML, like Gecko) Chrome/98.0.4758.102 Safari/537.36",xpyriment,legacy,legacy,0,uniform,0,0,0,0,24,24,24,0,0,39,39,39,39,39,0,39,0,,,,,,0,,27-01-22,27-01-22,21:57:36,Sun Feb 27 2022 21:57:36 GMT+0100 (közép-európai téli idő),The main experiment item,yes,0,0,C:/Users/rrics/Documents/!!ResearchBMECOGSCI/gnet,0,0,0,prototype3.png,no,mono,no,18,no,black,no,no,768,1152,3.5.6,legacy,xpyriment,osweb,1.3.13,0,space,space,space,,14843,8426,14843,,2,legacy,824,1536,24,864,24,0,0,1536,1645995536241,1024,2,48000,-16,experiment,p1sarrsha1.png,0,even,Win32,94,120348,117332,93,94,395938,397447,390939,121866,390939,94,,,,,,visual_patterns,0,0,0,yes,1366
undefined,undefined,undefined,undefined,white,no,Mozilla,Netscape,"5.0 (Windows NT 10.0; Win64; x64) AppleWebKit/537.36 (KHTML, like Gecko) Chrome/98.0.4758.102 Safari/537.36",xpyriment,legacy,legacy,0,uniform,0,0,0,0,24,24,24,0,0,40,40,40,40,40,0,40,0,,,,,,0,,27-01-22,27-01-22,21:57:36,Sun Feb 27 2022 21:57:36 GMT+0100 (közép-európai téli idő),The main experiment item,yes,0,0,C:/Users/rrics/Documents/!!ResearchBMECOGSCI/gnet,0,0,0,prototype3.png,no,mono,no,18,no,black,no,no,768,1152,3.5.6,legacy,xpyriment,osweb,1.3.13,0,space,space,space,,14843,8426,14843,,2,legacy,824,1536,24,864,24,0,0,1536,1645995536241,1024,2,48000,-16,experiment,prototype5.png,0,even,Win32,94,120348,117332,93,94,402454,403964,397453,121866,397453,94,,,,,,visual_patterns,0,0,0,yes,1366
undefined,undefined,undefined,undefined,white,no,Mozilla,Netscape,"5.0 (Windows NT 10.0; Win64; x64) AppleWebKit/537.36 (KHTML, like Gecko) Chrome/98.0.4758.102 Safari/537.36",xpyriment,legacy,legacy,0,uniform,0,0,0,0,24,24,24,0,0,41,41,41,41,41,0,41,0,,,,,,0,,27-01-22,27-01-22,21:57:36,Sun Feb 27 2022 21:57:36 GMT+0100 (közép-európai téli idő),The main experiment item,yes,0,0,C:/Users/rrics/Documents/!!ResearchBMECOGSCI/gnet,0,0,0,prototype3.png,no,mono,no,18,no,black,no,no,768,1152,3.5.6,legacy,xpyriment,osweb,1.3.13,0,space,space,space,,14843,8426,14843,,2,legacy,824,1536,24,864,24,0,0,1536,1645995536241,1024,2,48000,-16,experiment,p3sarrshacol2.png,0,even,Win32,94,120348,117332,93,94,408970,410481,403972,121866,403972,94,,,,,,visual_patterns,0,0,0,yes,1366
undefined,undefined,undefined,undefined,white,no,Mozilla,Netscape,"5.0 (Windows NT 10.0; Win64; x64) AppleWebKit/537.36 (KHTML, like Gecko) Chrome/98.0.4758.102 Safari/537.36",xpyriment,legacy,legacy,0,uniform,0,0,0,0,24,24,24,0,0,42,42,42,42,42,0,42,0,,,,,,0,,27-01-22,27-01-22,21:57:36,Sun Feb 27 2022 21:57:36 GMT+0100 (közép-európai téli idő),The main experiment item,yes,0,0,C:/Users/rrics/Documents/!!ResearchBMECOGSCI/gnet,0,0,0,prototype3.png,no,mono,no,18,no,black,no,no,768,1152,3.5.6,legacy,xpyriment,osweb,1.3.13,0,space,space,space,,14843,8426,14843,,2,legacy,824,1536,24,864,24,0,0,1536,1645995536241,1024,2,48000,-16,experiment,p3sarrcol2.png,0,even,Win32,94,120348,117332,93,94,415489,416997,410488,121866,410488,94,,,,,,visual_patterns,0,0,0,yes,1366
undefined,undefined,undefined,undefined,white,no,Mozilla,Netscape,"5.0 (Windows NT 10.0; Win64; x64) AppleWebKit/537.36 (KHTML, like Gecko) Chrome/98.0.4758.102 Safari/537.36",xpyriment,legacy,legacy,0,uniform,0,0,0,0,24,24,24,0,0,43,43,43,43,43,0,43,0,,,,,,0,,27-01-22,27-01-22,21:57:36,Sun Feb 27 2022 21:57:36 GMT+0100 (közép-európai téli idő),The main experiment item,yes,0,0,C:/Users/rrics/Documents/!!ResearchBMECOGSCI/gnet,0,0,0,prototype3.png,no,mono,no,18,no,black,no,no,768,1152,3.5.6,legacy,xpyriment,osweb,1.3.13,0,space,space,space,,14843,8426,14843,,2,legacy,824,1536,24,864,24,0,0,1536,1645995536241,1024,2,48000,-16,experiment,p3sarr2.png,0,even,Win32,94,120348,117332,93,94,422005,423514,417006,121866,417006,94,,,,,,visual_patterns,0,0,0,yes,1366
undefined,undefined,undefined,undefined,white,no,Mozilla,Netscape,"5.0 (Windows NT 10.0; Win64; x64) AppleWebKit/537.36 (KHTML, like Gecko) Chrome/98.0.4758.102 Safari/537.36",xpyriment,legacy,legacy,0,uniform,0,0,0,0,24,24,24,0,0,44,44,44,44,44,0,44,0,,,,,,0,,27-01-22,27-01-22,21:57:36,Sun Feb 27 2022 21:57:36 GMT+0100 (közép-európai téli idő),The main experiment item,yes,0,0,C:/Users/rrics/Documents/!!ResearchBMECOGSCI/gnet,0,0,0,prototype3.png,no,mono,no,18,no,black,no,no,768,1152,3.5.6,legacy,xpyriment,osweb,1.3.13,0,space,space,space,,14843,8426,14843,,2,legacy,824,1536,24,864,24,0,0,1536,1645995536241,1024,2,48000,-16,experiment,p2sarrsha1.png,0,even,Win32,94,120348,117332,93,94,428525,430031,423522,121866,423522,94,,,,,,visual_patterns,0,0,0,yes,1366
undefined,undefined,undefined,undefined,white,no,Mozilla,Netscape,"5.0 (Windows NT 10.0; Win64; x64) AppleWebKit/537.36 (KHTML, like Gecko) Chrome/98.0.4758.102 Safari/537.36",xpyriment,legacy,legacy,0,uniform,0,0,0,0,24,24,24,0,0,45,45,45,45,45,0,45,0,,,,,,0,,27-01-22,27-01-22,21:57:36,Sun Feb 27 2022 21:57:36 GMT+0100 (közép-európai téli idő),The main experiment item,yes,0,0,C:/Users/rrics/Documents/!!ResearchBMECOGSCI/gnet,0,0,0,prototype3.png,no,mono,no,18,no,black,no,no,768,1152,3.5.6,legacy,xpyriment,osweb,1.3.13,0,space,space,space,,14843,8426,14843,,2,legacy,824,1536,24,864,24,0,0,1536,1645995536241,1024,2,48000,-16,experiment,p4sarrsha1.png,0,even,Win32,94,120348,117332,93,94,435039,436547,430040,121866,430039,94,,,,,,visual_patterns,0,0,0,yes,1366
undefined,undefined,undefined,undefined,white,no,Mozilla,Netscape,"5.0 (Windows NT 10.0; Win64; x64) AppleWebKit/537.36 (KHTML, like Gecko) Chrome/98.0.4758.102 Safari/537.36",xpyriment,legacy,legacy,0,uniform,0,0,0,0,24,24,24,0,0,46,46,46,46,46,0,46,0,,,,,,0,,27-01-22,27-01-22,21:57:36,Sun Feb 27 2022 21:57:36 GMT+0100 (közép-európai téli idő),The main experiment item,yes,0,0,C:/Users/rrics/Documents/!!ResearchBMECOGSCI/gnet,0,0,0,prototype3.png,no,mono,no,18,no,black,no,no,768,1152,3.5.6,legacy,xpyriment,osweb,1.3.13,0,space,space,space,,14843,8426,14843,,2,legacy,824,1536,24,864,24,0,0,1536,1645995536241,1024,2,48000,-16,experiment,p1sarrcol1.png,0,even,Win32,94,120348,117332,93,94,441555,443064,436555,121866,436555,94,,,,,,visual_patterns,0,0,0,yes,1366
undefined,undefined,undefined,undefined,white,no,Mozilla,Netscape,"5.0 (Windows NT 10.0; Win64; x64) AppleWebKit/537.36 (KHTML, like Gecko) Chrome/98.0.4758.102 Safari/537.36",xpyriment,legacy,legacy,0,uniform,0,0,0,0,24,24,24,0,0,47,47,47,47,47,0,47,0,,,,,,0,,27-01-22,27-01-22,21:57:36,Sun Feb 27 2022 21:57:36 GMT+0100 (közép-európai téli idő),The main experiment item,yes,0,0,C:/Users/rrics/Documents/!!ResearchBMECOGSCI/gnet,0,0,0,prototype3.png,no,mono,no,18,no,black,no,no,768,1152,3.5.6,legacy,xpyriment,osweb,1.3.13,0,space,space,space,,14843,8426,14843,,2,legacy,824,1536,24,864,24,0,0,1536,1645995536241,1024,2,48000,-16,experiment,p1sarrsha2.png,0,even,Win32,94,120348,117332,93,94,448073,449581,443072,121866,443072,94,,,,,,visual_patterns,0,0,0,yes,1366
undefined,undefined,undefined,undefined,white,no,Mozilla,Netscape,"5.0 (Windows NT 10.0; Win64; x64) AppleWebKit/537.36 (KHTML, like Gecko) Chrome/98.0.4758.102 Safari/537.36",xpyriment,legacy,legacy,0,uniform,0,0,0,0,24,24,24,0,0,48,48,48,48,48,0,48,0,,,,,,0,,27-01-22,27-01-22,21:57:36,Sun Feb 27 2022 21:57:36 GMT+0100 (közép-európai téli idő),The main experiment item,yes,0,0,C:/Users/rrics/Documents/!!ResearchBMECOGSCI/gnet,0,0,0,prototype3.png,no,mono,no,18,no,black,no,no,768,1152,3.5.6,legacy,xpyriment,osweb,1.3.13,0,space,space,space,,14843,8426,14843,,2,legacy,824,1536,24,864,24,0,0,1536,1645995536241,1024,2,48000,-16,experiment,p7sarr2.png,0,even,Win32,94,120348,117332,93,94,454588,456097,449588,121866,449588,94,,,,,,visual_patterns,0,0,0,yes,1366
undefined,undefined,undefined,undefined,white,no,Mozilla,Netscape,"5.0 (Windows NT 10.0; Win64; x64) AppleWebKit/537.36 (KHTML, like Gecko) Chrome/98.0.4758.102 Safari/537.36",xpyriment,legacy,legacy,0,uniform,0,0,0,0,24,24,24,0,0,49,49,49,49,49,0,49,0,,,,,,0,,27-01-22,27-01-22,21:57:36,Sun Feb 27 2022 21:57:36 GMT+0100 (közép-európai téli idő),The main experiment item,yes,0,0,C:/Users/rrics/Documents/!!ResearchBMECOGSCI/gnet,0,0,0,prototype3.png,no,mono,no,18,no,black,no,no,768,1152,3.5.6,legacy,xpyriment,osweb,1.3.13,0,space,space,space,,14843,8426,14843,,2,legacy,824,1536,24,864,24,0,0,1536,1645995536241,1024,2,48000,-16,experiment,p4sarr1.png,0,even,Win32,94,120348,117332,93,94,461102,462616,456104,121866,456104,94,,,,,,visual_patterns,0,0,0,yes,1366
undefined,undefined,undefined,undefined,white,no,Mozilla,Netscape,"5.0 (Windows NT 10.0; Win64; x64) AppleWebKit/537.36 (KHTML, like Gecko) Chrome/98.0.4758.102 Safari/537.36",xpyriment,legacy,legacy,0,uniform,0,0,0,0,24,24,24,0,0,50,50,50,50,50,0,50,0,,,,,,0,,27-01-22,27-01-22,21:57:36,Sun Feb 27 2022 21:57:36 GMT+0100 (közép-európai téli idő),The main experiment item,yes,0,0,C:/Users/rrics/Documents/!!ResearchBMECOGSCI/gnet,0,0,0,prototype3.png,no,mono,no,18,no,black,no,no,768,1152,3.5.6,legacy,xpyriment,osweb,1.3.13,0,space,space,space,,14843,8426,14843,,2,legacy,824,1536,24,864,24,0,0,1536,1645995536241,1024,2,48000,-16,experiment,p10sarr1.png,0,even,Win32,94,120348,117332,93,94,467621,469131,462623,121866,462623,94,,,,,,visual_patterns,0,0,0,yes,1366
undefined,undefined,undefined,undefined,white,no,Mozilla,Netscape,"5.0 (Windows NT 10.0; Win64; x64) AppleWebKit/537.36 (KHTML, like Gecko) Chrome/98.0.4758.102 Safari/537.36",xpyriment,legacy,legacy,0,uniform,0,0,0,0,24,24,24,0,0,51,51,51,51,51,0,51,0,,,,,,0,,27-01-22,27-01-22,21:57:36,Sun Feb 27 2022 21:57:36 GMT+0100 (közép-európai téli idő),The main experiment item,yes,0,0,C:/Users/rrics/Documents/!!ResearchBMECOGSCI/gnet,0,0,0,prototype3.png,no,mono,no,18,no,black,no,no,768,1152,3.5.6,legacy,xpyriment,osweb,1.3.13,0,space,space,space,,14843,8426,14843,,2,legacy,824,1536,24,864,24,0,0,1536,1645995536241,1024,2,48000,-16,experiment,prototype3.png,0,even,Win32,94,120348,117332,93,94,474137,475648,469137,121866,469137,94,,,,,,visual_patterns,0,0,0,yes,1366
undefined,undefined,undefined,undefined,white,no,Mozilla,Netscape,"5.0 (Windows NT 10.0; Win64; x64) AppleWebKit/537.36 (KHTML, like Gecko) Chrome/98.0.4758.102 Safari/537.36",xpyriment,legacy,legacy,0,uniform,0,0,0,0,24,24,24,0,0,52,52,52,52,52,0,52,0,,,,,,0,,27-01-22,27-01-22,21:57:36,Sun Feb 27 2022 21:57:36 GMT+0100 (közép-európai téli idő),The main experiment item,yes,0,0,C:/Users/rrics/Documents/!!ResearchBMECOGSCI/gnet,0,0,0,prototype3.png,no,mono,no,18,no,black,no,no,768,1152,3.5.6,legacy,xpyriment,osweb,1.3.13,0,space,space,space,,14843,8426,14843,,2,legacy,824,1536,24,864,24,0,0,1536,1645995536241,1024,2,48000,-16,experiment,p1sarr1.png,0,even,Win32,94,120348,117332,93,94,480655,482164,475655,121866,475655,94,,,,,,visual_patterns,0,0,0,yes,1366
undefined,undefined,undefined,undefined,white,no,Mozilla,Netscape,"5.0 (Windows NT 10.0; Win64; x64) AppleWebKit/537.36 (KHTML, like Gecko) Chrome/98.0.4758.102 Safari/537.36",xpyriment,legacy,legacy,0,uniform,0,0,0,0,24,24,24,0,0,53,53,53,53,53,0,53,0,,,,,,0,,27-01-22,27-01-22,21:57:36,Sun Feb 27 2022 21:57:36 GMT+0100 (közép-európai téli idő),The main experiment item,yes,0,0,C:/Users/rrics/Documents/!!ResearchBMECOGSCI/gnet,0,0,0,prototype3.png,no,mono,no,18,no,black,no,no,768,1152,3.5.6,legacy,xpyriment,osweb,1.3.13,0,space,space,space,,14843,8426,14843,,2,legacy,824,1536,24,864,24,0,0,1536,1645995536241,1024,2,48000,-16,experiment,p1sarrcol2.png,0,even,Win32,94,120348,117332,93,94,487170,488681,482172,121866,482172,94,,,,,,visual_patterns,0,0,0,yes,1366
undefined,undefined,undefined,undefined,white,no,Mozilla,Netscape,"5.0 (Windows NT 10.0; Win64; x64) AppleWebKit/537.36 (KHTML, like Gecko) Chrome/98.0.4758.102 Safari/537.36",xpyriment,legacy,legacy,0,uniform,0,0,0,0,24,24,24,0,0,54,54,54,54,54,0,54,0,,,,,,0,,27-01-22,27-01-22,21:57:36,Sun Feb 27 2022 21:57:36 GMT+0100 (közép-európai téli idő),The main experiment item,yes,0,0,C:/Users/rrics/Documents/!!ResearchBMECOGSCI/gnet,0,0,0,prototype3.png,no,mono,no,18,no,black,no,no,768,1152,3.5.6,legacy,xpyriment,osweb,1.3.13,0,space,space,space,,14843,8426,14843,,2,legacy,824,1536,24,864,24,0,0,1536,1645995536241,1024,2,48000,-16,experiment,p2sarrcol2.png,0,even,Win32,94,120348,117332,93,94,493687,495198,488688,121866,488688,94,,,,,,visual_patterns,0,0,0,yes,1366
undefined,undefined,undefined,undefined,white,no,Mozilla,Netscape,"5.0 (Windows NT 10.0; Win64; x64) AppleWebKit/537.36 (KHTML, like Gecko) Chrome/98.0.4758.102 Safari/537.36",xpyriment,legacy,legacy,0,uniform,0,0,0,0,24,24,24,0,0,55,55,55,55,55,0,55,0,,,,,,0,,27-01-22,27-01-22,21:57:36,Sun Feb 27 2022 21:57:36 GMT+0100 (közép-európai téli idő),The main experiment item,yes,0,0,C:/Users/rrics/Documents/!!ResearchBMECOGSCI/gnet,0,0,0,prototype3.png,no,mono,no,18,no,black,no,no,768,1152,3.5.6,legacy,xpyriment,osweb,1.3.13,0,space,space,space,,14843,8426,14843,,2,legacy,824,1536,24,864,24,0,0,1536,1645995536241,1024,2,48000,-16,experiment,prototype4.png,0,even,Win32,94,120348,117332,93,94,500205,501714,495203,121866,495203,94,,,,,,visual_patterns,0,0,0,yes,1366
undefined,undefined,undefined,undefined,white,no,Mozilla,Netscape,"5.0 (Windows NT 10.0; Win64; x64) AppleWebKit/537.36 (KHTML, like Gecko) Chrome/98.0.4758.102 Safari/537.36",xpyriment,legacy,legacy,0,uniform,0,0,0,0,24,24,24,0,0,56,56,56,56,56,0,56,0,,,,,,0,,27-01-22,27-01-22,21:57:36,Sun Feb 27 2022 21:57:36 GMT+0100 (közép-európai téli idő),The main experiment item,yes,0,0,C:/Users/rrics/Documents/!!ResearchBMECOGSCI/gnet,0,0,0,prototype3.png,no,mono,no,18,no,black,no,no,768,1152,3.5.6,legacy,xpyriment,osweb,1.3.13,0,space,space,space,,14843,8426,14843,,2,legacy,824,1536,24,864,24,0,0,1536,1645995536241,1024,2,48000,-16,experiment,p2sarrshacol1.png,0,even,Win32,94,120348,117332,93,94,506719,508231,501722,121866,501722,94,,,,,,visual_patterns,0,0,0,yes,1366
undefined,undefined,undefined,undefined,white,no,Mozilla,Netscape,"5.0 (Windows NT 10.0; Win64; x64) AppleWebKit/537.36 (KHTML, like Gecko) Chrome/98.0.4758.102 Safari/537.36",xpyriment,legacy,legacy,0,uniform,0,0,0,0,24,24,24,0,0,57,57,57,57,57,0,57,0,,,,,,0,,27-01-22,27-01-22,21:57:36,Sun Feb 27 2022 21:57:36 GMT+0100 (közép-európai téli idő),The main experiment item,yes,0,0,C:/Users/rrics/Documents/!!ResearchBMECOGSCI/gnet,0,0,0,prototype3.png,no,mono,no,18,no,black,no,no,768,1152,3.5.6,legacy,xpyriment,osweb,1.3.13,0,space,space,space,,14843,8426,14843,,2,legacy,824,1536,24,864,24,0,0,1536,1645995536241,1024,2,48000,-16,experiment,prototype5.png,0,even,Win32,94,120348,117332,93,94,513239,514748,508236,121866,508236,94,,,,,,visual_patterns,0,0,0,yes,1366
undefined,undefined,undefined,undefined,white,no,Mozilla,Netscape,"5.0 (Windows NT 10.0; Win64; x64) AppleWebKit/537.36 (KHTML, like Gecko) Chrome/98.0.4758.102 Safari/537.36",xpyriment,legacy,legacy,0,uniform,0,0,0,0,24,24,24,0,0,58,58,58,58,58,0,58,0,,,,,,0,,27-01-22,27-01-22,21:57:36,Sun Feb 27 2022 21:57:36 GMT+0100 (közép-európai téli idő),The main experiment item,yes,0,0,C:/Users/rrics/Documents/!!ResearchBMECOGSCI/gnet,0,0,0,prototype3.png,no,mono,no,18,no,black,no,no,768,1152,3.5.6,legacy,xpyriment,osweb,1.3.13,0,space,space,space,,14843,8426,14843,,2,legacy,824,1536,24,864,24,0,0,1536,1645995536241,1024,2,48000,-16,experiment,prototype2.png,0,even,Win32,94,120348,117332,93,94,519767,521281,514765,121866,514765,94,,,,,,visual_patterns,0,0,0,yes,1366
undefined,undefined,undefined,undefined,white,no,Mozilla,Netscape,"5.0 (Windows NT 10.0; Win64; x64) AppleWebKit/537.36 (KHTML, like Gecko) Chrome/98.0.4758.102 Safari/537.36",xpyriment,legacy,legacy,0,uniform,0,0,0,0,24,24,24,0,0,59,59,59,59,59,0,59,0,,,,,,0,,27-01-22,27-01-22,21:57:36,Sun Feb 27 2022 21:57:36 GMT+0100 (közép-európai téli idő),The main experiment item,yes,0,0,C:/Users/rrics/Documents/!!ResearchBMECOGSCI/gnet,0,0,0,prototype3.png,no,mono,no,18,no,black,no,no,768,1152,3.5.6,legacy,xpyriment,osweb,1.3.13,0,space,space,space,,14843,8426,14843,,2,legacy,824,1536,24,864,24,0,0,1536,1645995536241,1024,2,48000,-16,experiment,prototype5.png,0,even,Win32,94,120348,117332,93,94,526290,527799,521287,121866,521287,94,,,,,,visual_patterns,0,0,0,yes,1366
undefined,undefined,undefined,undefined,white,no,Mozilla,Netscape,"5.0 (Windows NT 10.0; Win64; x64) AppleWebKit/537.36 (KHTML, like Gecko) Chrome/98.0.4758.102 Safari/537.36",xpyriment,legacy,legacy,0,uniform,0,0,0,0,24,24,24,0,0,60,60,60,60,60,0,60,0,,,,,,0,,27-01-22,27-01-22,21:57:36,Sun Feb 27 2022 21:57:36 GMT+0100 (közép-európai téli idő),The main experiment item,yes,0,0,C:/Users/rrics/Documents/!!ResearchBMECOGSCI/gnet,0,0,0,prototype3.png,no,mono,no,18,no,black,no,no,768,1152,3.5.6,legacy,xpyriment,osweb,1.3.13,0,space,space,space,,14843,8426,14843,,2,legacy,824,1536,24,864,24,0,0,1536,1645995536241,1024,2,48000,-16,experiment,p1sarrshacol2.png,0,even,Win32,94,120348,117332,93,94,532806,534316,527807,121866,527807,94,,,,,,visual_patterns,0,0,0,yes,1366
undefined,undefined,undefined,undefined,white,no,Mozilla,Netscape,"5.0 (Windows NT 10.0; Win64; x64) AppleWebKit/537.36 (KHTML, like Gecko) Chrome/98.0.4758.102 Safari/537.36",xpyriment,legacy,legacy,0,uniform,0,0,0,0,24,24,24,0,0,61,61,61,61,61,0,61,0,,,,,,0,,27-01-22,27-01-22,21:57:36,Sun Feb 27 2022 21:57:36 GMT+0100 (közép-európai téli idő),The main experiment item,yes,0,0,C:/Users/rrics/Documents/!!ResearchBMECOGSCI/gnet,0,0,0,prototype3.png,no,mono,no,18,no,black,no,no,768,1152,3.5.6,legacy,xpyriment,osweb,1.3.13,0,space,space,space,,14843,8426,14843,,2,legacy,824,1536,24,864,24,0,0,1536,1645995536241,1024,2,48000,-16,experiment,p2sarrcol1.png,0,even,Win32,94,120348,117332,93,94,539323,540831,534323,121866,534323,94,,,,,,visual_patterns,0,0,0,yes,1366
undefined,undefined,undefined,undefined,white,no,Mozilla,Netscape,"5.0 (Windows NT 10.0; Win64; x64) AppleWebKit/537.36 (KHTML, like Gecko) Chrome/98.0.4758.102 Safari/537.36",xpyriment,legacy,legacy,0,uniform,0,0,0,0,24,24,24,0,0,62,62,62,62,62,0,62,0,,,,,,0,,27-01-22,27-01-22,21:57:36,Sun Feb 27 2022 21:57:36 GMT+0100 (közép-európai téli idő),The main experiment item,yes,0,0,C:/Users/rrics/Documents/!!ResearchBMECOGSCI/gnet,0,0,0,prototype3.png,no,mono,no,18,no,black,no,no,768,1152,3.5.6,legacy,xpyriment,osweb,1.3.13,0,space,space,space,,14843,8426,14843,,2,legacy,824,1536,24,864,24,0,0,1536,1645995536241,1024,2,48000,-16,experiment,p5sarr2.png,0,even,Win32,94,120348,117332,93,94,545839,547349,540839,121866,540839,94,,,,,,visual_patterns,0,0,0,yes,1366
undefined,undefined,undefined,undefined,white,no,Mozilla,Netscape,"5.0 (Windows NT 10.0; Win64; x64) AppleWebKit/537.36 (KHTML, like Gecko) Chrome/98.0.4758.102 Safari/537.36",xpyriment,legacy,legacy,0,uniform,0,0,0,0,24,24,24,0,0,63,63,63,63,63,0,63,0,,,,,,0,,27-01-22,27-01-22,21:57:36,Sun Feb 27 2022 21:57:36 GMT+0100 (közép-európai téli idő),The main experiment item,yes,0,0,C:/Users/rrics/Documents/!!ResearchBMECOGSCI/gnet,0,0,0,prototype3.png,no,mono,no,18,no,black,no,no,768,1152,3.5.6,legacy,xpyriment,osweb,1.3.13,0,space,space,space,,14843,8426,14843,,2,legacy,824,1536,24,864,24,0,0,1536,1645995536241,1024,2,48000,-16,experiment,p10sarr2.png,0,even,Win32,94,120348,117332,93,94,552369,553881,547368,121866,547368,94,,,,,,visual_patterns,0,0,0,yes,1366
undefined,undefined,undefined,undefined,white,no,Mozilla,Netscape,"5.0 (Windows NT 10.0; Win64; x64) AppleWebKit/537.36 (KHTML, like Gecko) Chrome/98.0.4758.102 Safari/537.36",xpyriment,legacy,legacy,0,uniform,0,0,0,0,24,24,24,0,0,64,64,64,64,64,0,64,0,,,,,,0,,27-01-22,27-01-22,21:57:36,Sun Feb 27 2022 21:57:36 GMT+0100 (közép-európai téli idő),The main experiment item,yes,0,0,C:/Users/rrics/Documents/!!ResearchBMECOGSCI/gnet,0,0,0,prototype3.png,no,mono,no,18,no,black,no,no,768,1152,3.5.6,legacy,xpyriment,osweb,1.3.13,0,space,space,space,,14843,8426,14843,,2,legacy,824,1536,24,864,24,0,0,1536,1645995536241,1024,2,48000,-16,experiment,prototype1.png,0,even,Win32,94,120348,117332,93,94,558892,560398,553887,121866,553887,94,,,,,,visual_patterns,0,0,0,yes,1366
undefined,undefined,undefined,undefined,white,no,Mozilla,Netscape,"5.0 (Windows NT 10.0; Win64; x64) AppleWebKit/537.36 (KHTML, like Gecko) Chrome/98.0.4758.102 Safari/537.36",xpyriment,legacy,legacy,0,uniform,0,0,0,0,24,24,24,0,0,65,65,65,65,65,0,65,0,,,,,,0,,27-01-22,27-01-22,21:57:36,Sun Feb 27 2022 21:57:36 GMT+0100 (közép-európai téli idő),The main experiment item,yes,0,0,C:/Users/rrics/Documents/!!ResearchBMECOGSCI/gnet,0,0,0,prototype3.png,no,mono,no,18,no,black,no,no,768,1152,3.5.6,legacy,xpyriment,osweb,1.3.13,0,space,space,space,,14843,8426,14843,,2,legacy,824,1536,24,864,24,0,0,1536,1645995536241,1024,2,48000,-16,experiment,prototype4.png,0,even,Win32,94,120348,117332,93,94,565405,566914,560403,121866,560403,94,,,,,,visual_patterns,0,0,0,yes,1366
undefined,undefined,undefined,undefined,white,no,Mozilla,Netscape,"5.0 (Windows NT 10.0; Win64; x64) AppleWebKit/537.36 (KHTML, like Gecko) Chrome/98.0.4758.102 Safari/537.36",xpyriment,legacy,legacy,0,uniform,0,0,0,0,24,24,24,0,0,66,66,66,66,66,0,66,0,,,,,,0,,27-01-22,27-01-22,21:57:36,Sun Feb 27 2022 21:57:36 GMT+0100 (közép-európai téli idő),The main experiment item,yes,0,0,C:/Users/rrics/Documents/!!ResearchBMECOGSCI/gnet,0,0,0,prototype3.png,no,mono,no,18,no,black,no,no,768,1152,3.5.6,legacy,xpyriment,osweb,1.3.13,0,space,space,space,,14843,8426,14843,,2,legacy,824,1536,24,864,24,0,0,1536,1645995536241,1024,2,48000,-16,experiment,p2sarrshacol2.png,0,even,Win32,94,120348,117332,93,94,571922,573431,566923,121866,566923,94,,,,,,visual_patterns,0,0,0,yes,1366
undefined,undefined,undefined,undefined,white,no,Mozilla,Netscape,"5.0 (Windows NT 10.0; Win64; x64) AppleWebKit/537.36 (KHTML, like Gecko) Chrome/98.0.4758.102 Safari/537.36",xpyriment,legacy,legacy,0,uniform,0,0,0,0,24,24,24,0,0,67,67,67,67,67,0,67,0,,,,,,0,,27-01-22,27-01-22,21:57:36,Sun Feb 27 2022 21:57:36 GMT+0100 (közép-európai téli idő),The main experiment item,yes,0,0,C:/Users/rrics/Documents/!!ResearchBMECOGSCI/gnet,0,0,0,prototype3.png,no,mono,no,18,no,black,no,no,768,1152,3.5.6,legacy,xpyriment,osweb,1.3.13,0,space,space,space,,14843,8426,14843,,2,legacy,824,1536,24,864,24,0,0,1536,1645995536241,1024,2,48000,-16,experiment,p1sarr2.png,0,even,Win32,94,120348,117332,93,94,578440,579947,573439,121866,573439,94,,,,,,visual_patterns,0,0,0,yes,1366
undefined,undefined,undefined,undefined,white,no,Mozilla,Netscape,"5.0 (Windows NT 10.0; Win64; x64) AppleWebKit/537.36 (KHTML, like Gecko) Chrome/98.0.4758.102 Safari/537.36",xpyriment,legacy,legacy,0,uniform,0,0,0,0,24,24,24,0,0,68,68,68,68,68,0,68,0,,,,,,0,,27-01-22,27-01-22,21:57:36,Sun Feb 27 2022 21:57:36 GMT+0100 (közép-európai téli idő),The main experiment item,yes,0,0,C:/Users/rrics/Documents/!!ResearchBMECOGSCI/gnet,0,0,0,prototype3.png,no,mono,no,18,no,black,no,no,768,1152,3.5.6,legacy,xpyriment,osweb,1.3.13,0,space,space,space,,14843,8426,14843,,2,legacy,824,1536,24,864,24,0,0,1536,1645995536241,1024,2,48000,-16,experiment,p6sarr2.png,0,even,Win32,94,120348,117332,93,94,584957,586466,579955,121866,579955,94,,,,,,visual_patterns,0,0,0,yes,1366
undefined,undefined,undefined,undefined,white,no,Mozilla,Netscape,"5.0 (Windows NT 10.0; Win64; x64) AppleWebKit/537.36 (KHTML, like Gecko) Chrome/98.0.4758.102 Safari/537.36",xpyriment,legacy,legacy,0,uniform,0,0,0,0,24,24,24,0,0,69,69,69,69,69,0,69,0,,,,,,0,,27-01-22,27-01-22,21:57:36,Sun Feb 27 2022 21:57:36 GMT+0100 (közép-európai téli idő),The main experiment item,yes,0,0,C:/Users/rrics/Documents/!!ResearchBMECOGSCI/gnet,0,0,0,prototype3.png,no,mono,no,18,no,black,no,no,768,1152,3.5.6,legacy,xpyriment,osweb,1.3.13,0,space,space,space,,14843,8426,14843,,2,legacy,824,1536,24,864,24,0,0,1536,1645995536241,1024,2,48000,-16,experiment,prototype2.png,0,even,Win32,94,120348,117332,93,94,591475,592981,586472,121866,586472,94,,,,,,visual_patterns,0,0,0,yes,1366
undefined,undefined,undefined,undefined,white,no,Mozilla,Netscape,"5.0 (Windows NT 10.0; Win64; x64) AppleWebKit/537.36 (KHTML, like Gecko) Chrome/98.0.4758.102 Safari/537.36",xpyriment,legacy,legacy,0,uniform,0,0,0,0,24,24,24,0,0,70,70,70,70,70,0,70,0,,,,,,0,,27-01-22,27-01-22,21:57:36,Sun Feb 27 2022 21:57:36 GMT+0100 (közép-európai téli idő),The main experiment item,yes,0,0,C:/Users/rrics/Documents/!!ResearchBMECOGSCI/gnet,0,0,0,prototype3.png,no,mono,no,18,no,black,no,no,768,1152,3.5.6,legacy,xpyriment,osweb,1.3.13,0,space,space,space,,14843,8426,14843,,2,legacy,824,1536,24,864,24,0,0,1536,1645995536241,1024,2,48000,-16,experiment,p1sarrshacol1.png,0,even,Win32,94,120348,117332,93,94,597988,599498,592988,121866,592988,94,,,,,,visual_patterns,0,0,0,yes,1366
undefined,undefined,undefined,undefined,white,no,Mozilla,Netscape,"5.0 (Windows NT 10.0; Win64; x64) AppleWebKit/537.36 (KHTML, like Gecko) Chrome/98.0.4758.102 Safari/537.36",xpyriment,legacy,legacy,0,uniform,0,0,0,0,24,24,24,0,0,71,71,71,71,71,0,71,0,,,,,,0,,27-01-22,27-01-22,21:57:36,Sun Feb 27 2022 21:57:36 GMT+0100 (közép-európai téli idő),The main experiment item,yes,0,0,C:/Users/rrics/Documents/!!ResearchBMECOGSCI/gnet,0,0,0,prototype3.png,no,mono,no,18,no,black,no,no,768,1152,3.5.6,legacy,xpyriment,osweb,1.3.13,0,space,space,space,,14843,8426,14843,,2,legacy,824,1536,24,864,24,0,0,1536,1645995536241,1024,2,48000,-16,experiment,prototype1.png,0,even,Win32,94,120348,117332,93,94,604504,606014,599504,121866,599503,94,,,,,,visual_patterns,0,0,0,yes,1366
undefined,undefined,undefined,undefined,white,no,Mozilla,Netscape,"5.0 (Windows NT 10.0; Win64; x64) AppleWebKit/537.36 (KHTML, like Gecko) Chrome/98.0.4758.102 Safari/537.36",xpyriment,legacy,legacy,0,uniform,0,0,0,0,24,24,24,0,0,72,72,72,72,72,0,72,0,,,,,,0,,27-01-22,27-01-22,21:57:36,Sun Feb 27 2022 21:57:36 GMT+0100 (közép-európai téli idő),The main experiment item,yes,0,0,C:/Users/rrics/Documents/!!ResearchBMECOGSCI/gnet,0,0,0,prototype3.png,no,mono,no,18,no,black,no,no,768,1152,3.5.6,legacy,xpyriment,osweb,1.3.13,0,space,space,space,,14843,8426,14843,,2,legacy,824,1536,24,864,24,0,0,1536,1645995536241,1024,2,48000,-16,experiment,prototype5.png,0,even,Win32,94,120348,117332,93,94,611020,612531,606020,121866,606020,94,,,,,,visual_patterns,0,0,0,yes,1366
undefined,undefined,undefined,undefined,white,no,Mozilla,Netscape,"5.0 (Windows NT 10.0; Win64; x64) AppleWebKit/537.36 (KHTML, like Gecko) Chrome/98.0.4758.102 Safari/537.36",xpyriment,legacy,legacy,0,uniform,0,0,0,0,24,24,24,0,0,73,73,73,73,73,0,73,0,,,,,,0,,27-01-22,27-01-22,21:57:36,Sun Feb 27 2022 21:57:36 GMT+0100 (közép-európai téli idő),The main experiment item,yes,0,0,C:/Users/rrics/Documents/!!ResearchBMECOGSCI/gnet,0,0,0,prototype3.png,no,mono,no,18,no,black,no,no,768,1152,3.5.6,legacy,xpyriment,osweb,1.3.13,0,space,space,space,,14843,8426,14843,,2,legacy,824,1536,24,864,24,0,0,1536,1645995536241,1024,2,48000,-16,experiment,prototype3.png,0,even,Win32,94,120348,117332,93,94,617549,619064,612549,121866,612549,94,,,,,,visual_patterns,0,0,0,yes,1366
undefined,undefined,undefined,undefined,white,no,Mozilla,Netscape,"5.0 (Windows NT 10.0; Win64; x64) AppleWebKit/537.36 (KHTML, like Gecko) Chrome/98.0.4758.102 Safari/537.36",xpyriment,legacy,legacy,0,uniform,0,0,0,0,24,24,24,0,0,74,74,74,74,74,0,74,0,,,,,,0,,27-01-22,27-01-22,21:57:36,Sun Feb 27 2022 21:57:36 GMT+0100 (közép-európai téli idő),The main experiment item,yes,0,0,C:/Users/rrics/Documents/!!ResearchBMECOGSCI/gnet,0,0,0,prototype3.png,no,mono,no,18,no,black,no,no,768,1152,3.5.6,legacy,xpyriment,osweb,1.3.13,0,space,space,space,,14843,8426,14843,,2,legacy,824,1536,24,864,24,0,0,1536,1645995536241,1024,2,48000,-16,experiment,prototype2.png,0,even,Win32,94,120348,117332,93,94,624070,625581,619071,121866,619071,94,,,,,,visual_patterns,0,0,0,yes,1366
undefined,undefined,undefined,undefined,white,no,Mozilla,Netscape,"5.0 (Windows NT 10.0; Win64; x64) AppleWebKit/537.36 (KHTML, like Gecko) Chrome/98.0.4758.102 Safari/537.36",xpyriment,legacy,legacy,0,uniform,0,0,0,0,24,24,24,0,0,74,74,74,74,74,0,74,0,0,0,0,0,0,0,0,27-01-22,27-01-22,21:57:36,Sun Feb 27 2022 21:57:36 GMT+0100 (közép-európai téli idő),The main experiment item,yes,0,0,C:/Users/rrics/Documents/!!ResearchBMECOGSCI/gnet,0,0,0,prototype3.png,no,mono,no,18,no,black,no,no,768,1152,3.5.6,legacy,xpyriment,osweb,1.3.13,0,space,space,space,space,21734,8426,14843,21734,2,legacy,824,1536,24,864,24,0,0,1536,1645995536241,1024,2,48000,-16,experiment,p5sarrsha3.png,0,even,Win32,94,120348,117332,93,94,624070,625581,619071,121866,619071,94,650348,651864,647350,625583,647349,visual_patterns,0,0,0,yes,1366
undefined,undefined,undefined,undefined,white,no,Mozilla,Netscape,"5.0 (Windows NT 10.0; Win64; x64) AppleWebKit/537.36 (KHTML, like Gecko) Chrome/98.0.4758.102 Safari/537.36",xpyriment,legacy,legacy,0,uniform,0,0,0,0,24,24,24,0,0,74,74,74,74,74,0,74,0,1,1,1,1,1,0,1,27-01-22,27-01-22,21:57:36,Sun Feb 27 2022 21:57:36 GMT+0100 (közép-európai téli idő),The main experiment item,yes,0,0,C:/Users/rrics/Documents/!!ResearchBMECOGSCI/gnet,0,0,0,prototype3.png,no,mono,no,18,no,black,no,no,768,1152,3.5.6,legacy,xpyriment,osweb,1.3.13,0,space,space,space,space,21734,8426,14843,21734,2,legacy,824,1536,24,864,24,0,0,1536,1645995536241,1024,2,48000,-16,experiment,p2sarrshacol1.png,0,even,Win32,94,120348,117332,93,94,624070,625581,619071,121866,619071,94,654872,656381,651872,625583,651872,visual_patterns,0,0,0,yes,1366
undefined,undefined,undefined,undefined,white,no,Mozilla,Netscape,"5.0 (Windows NT 10.0; Win64; x64) AppleWebKit/537.36 (KHTML, like Gecko) Chrome/98.0.4758.102 Safari/537.36",xpyriment,legacy,legacy,0,uniform,0,0,0,0,24,24,24,0,0,74,74,74,74,74,0,74,0,2,2,2,2,2,0,2,27-01-22,27-01-22,21:57:36,Sun Feb 27 2022 21:57:36 GMT+0100 (közép-európai téli idő),The main experiment item,yes,0,0,C:/Users/rrics/Documents/!!ResearchBMECOGSCI/gnet,0,0,0,prototype3.png,no,mono,no,18,no,black,no,no,768,1152,3.5.6,legacy,xpyriment,osweb,1.3.13,0,space,space,space,space,21734,8426,14843,21734,2,legacy,824,1536,24,864,24,0,0,1536,1645995536241,1024,2,48000,-16,experiment,p4sarr4.png,0,even,Win32,94,120348,117332,93,94,624070,625581,619071,121866,619071,94,659391,660897,656391,625583,656391,visual_patterns,0,0,0,yes,1366
undefined,undefined,undefined,undefined,white,no,Mozilla,Netscape,"5.0 (Windows NT 10.0; Win64; x64) AppleWebKit/537.36 (KHTML, like Gecko) Chrome/98.0.4758.102 Safari/537.36",xpyriment,legacy,legacy,0,uniform,0,0,0,0,24,24,24,0,0,74,74,74,74,74,0,74,0,3,3,3,3,3,0,3,27-01-22,27-01-22,21:57:36,Sun Feb 27 2022 21:57:36 GMT+0100 (közép-európai téli idő),The main experiment item,yes,0,0,C:/Users/rrics/Documents/!!ResearchBMECOGSCI/gnet,0,0,0,prototype3.png,no,mono,no,18,no,black,no,no,768,1152,3.5.6,legacy,xpyriment,osweb,1.3.13,0,space,space,space,space,21734,8426,14843,21734,2,legacy,824,1536,24,864,24,0,0,1536,1645995536241,1024,2,48000,-16,experiment,p5sarrsha2.png,0,even,Win32,94,120348,117332,93,94,624070,625581,619071,121866,619071,94,663909,665414,660905,625583,660905,visual_patterns,0,0,0,yes,1366
undefined,undefined,undefined,undefined,white,no,Mozilla,Netscape,"5.0 (Windows NT 10.0; Win64; x64) AppleWebKit/537.36 (KHTML, like Gecko) Chrome/98.0.4758.102 Safari/537.36",xpyriment,legacy,legacy,0,uniform,0,0,0,0,24,24,24,0,0,74,74,74,74,74,0,74,0,4,4,4,4,4,0,4,27-01-22,27-01-22,21:57:36,Sun Feb 27 2022 21:57:36 GMT+0100 (közép-európai téli idő),The main experiment item,yes,0,0,C:/Users/rrics/Documents/!!ResearchBMECOGSCI/gnet,0,0,0,prototype3.png,no,mono,no,18,no,black,no,no,768,1152,3.5.6,legacy,xpyriment,osweb,1.3.13,0,space,space,space,space,21734,8426,14843,21734,2,legacy,824,1536,24,864,24,0,0,1536,1645995536241,1024,2,48000,-16,experiment,p7sarr2.png,0,even,Win32,94,120348,117332,93,94,624070,625581,619071,121866,619071,94,668426,669931,665422,625583,665422,visual_patterns,0,0,0,yes,1366
undefined,undefined,undefined,undefined,white,no,Mozilla,Netscape,"5.0 (Windows NT 10.0; Win64; x64) AppleWebKit/537.36 (KHTML, like Gecko) Chrome/98.0.4758.102 Safari/537.36",xpyriment,legacy,legacy,0,uniform,0,0,0,0,24,24,24,0,0,74,74,74,74,74,0,74,0,5,5,5,5,5,0,5,27-01-22,27-01-22,21:57:36,Sun Feb 27 2022 21:57:36 GMT+0100 (közép-európai téli idő),The main experiment item,yes,0,0,C:/Users/rrics/Documents/!!ResearchBMECOGSCI/gnet,0,0,0,prototype3.png,no,mono,no,18,no,black,no,no,768,1152,3.5.6,legacy,xpyriment,osweb,1.3.13,0,space,space,space,space,21734,8426,14843,21734,2,legacy,824,1536,24,864,24,0,0,1536,1645995536241,1024,2,48000,-16,experiment,p1sarrsha4.png,0,even,Win32,94,120348,117332,93,94,624070,625581,619071,121866,619071,94,672940,674447,669940,625583,669940,visual_patterns,0,0,0,yes,1366
undefined,undefined,undefined,undefined,white,no,Mozilla,Netscape,"5.0 (Windows NT 10.0; Win64; x64) AppleWebKit/537.36 (KHTML, like Gecko) Chrome/98.0.4758.102 Safari/537.36",xpyriment,legacy,legacy,0,uniform,0,0,0,0,24,24,24,0,0,74,74,74,74,74,0,74,0,6,6,6,6,6,0,6,27-01-22,27-01-22,21:57:36,Sun Feb 27 2022 21:57:36 GMT+0100 (közép-európai téli idő),The main experiment item,yes,0,0,C:/Users/rrics/Documents/!!ResearchBMECOGSCI/gnet,0,0,0,prototype3.png,no,mono,no,18,no,black,no,no,768,1152,3.5.6,legacy,xpyriment,osweb,1.3.13,0,space,space,space,space,21734,8426,14843,21734,2,legacy,824,1536,24,864,24,0,0,1536,1645995536241,1024,2,48000,-16,experiment,p3sarrcol2.png,0,even,Win32,94,120348,117332,93,94,624070,625581,619071,121866,619071,94,677455,678964,674456,625583,674456,visual_patterns,0,0,0,yes,1366
undefined,undefined,undefined,undefined,white,no,Mozilla,Netscape,"5.0 (Windows NT 10.0; Win64; x64) AppleWebKit/537.36 (KHTML, like Gecko) Chrome/98.0.4758.102 Safari/537.36",xpyriment,legacy,legacy,0,uniform,0,0,0,0,24,24,24,0,0,74,74,74,74,74,0,74,0,7,7,7,7,7,0,7,27-01-22,27-01-22,21:57:36,Sun Feb 27 2022 21:57:36 GMT+0100 (közép-európai téli idő),The main experiment item,yes,0,0,C:/Users/rrics/Documents/!!ResearchBMECOGSCI/gnet,0,0,0,prototype3.png,no,mono,no,18,no,black,no,no,768,1152,3.5.6,legacy,xpyriment,osweb,1.3.13,0,space,space,space,space,21734,8426,14843,21734,2,legacy,824,1536,24,864,24,0,0,1536,1645995536241,1024,2,48000,-16,experiment,p3sarrcol3.png,0,even,Win32,94,120348,117332,93,94,624070,625581,619071,121866,619071,94,681973,683481,678973,625583,678973,visual_patterns,0,0,0,yes,1366
undefined,undefined,undefined,undefined,white,no,Mozilla,Netscape,"5.0 (Windows NT 10.0; Win64; x64) AppleWebKit/537.36 (KHTML, like Gecko) Chrome/98.0.4758.102 Safari/537.36",xpyriment,legacy,legacy,0,uniform,0,0,0,0,24,24,24,0,0,74,74,74,74,74,0,74,0,8,8,8,8,8,0,8,27-01-22,27-01-22,21:57:36,Sun Feb 27 2022 21:57:36 GMT+0100 (közép-európai téli idő),The main experiment item,yes,0,0,C:/Users/rrics/Documents/!!ResearchBMECOGSCI/gnet,0,0,0,prototype3.png,no,mono,no,18,no,black,no,no,768,1152,3.5.6,legacy,xpyriment,osweb,1.3.13,0,space,space,space,space,21734,8426,14843,21734,2,legacy,824,1536,24,864,24,0,0,1536,1645995536241,1024,2,48000,-16,experiment,p1sarrsha1.png,0,even,Win32,94,120348,117332,93,94,624070,625581,619071,121866,619071,94,686493,687997,683488,625583,683488,visual_patterns,0,0,0,yes,1366
undefined,undefined,undefined,undefined,white,no,Mozilla,Netscape,"5.0 (Windows NT 10.0; Win64; x64) AppleWebKit/537.36 (KHTML, like Gecko) Chrome/98.0.4758.102 Safari/537.36",xpyriment,legacy,legacy,0,uniform,0,0,0,0,24,24,24,0,0,74,74,74,74,74,0,74,0,9,9,9,9,9,0,9,27-01-22,27-01-22,21:57:36,Sun Feb 27 2022 21:57:36 GMT+0100 (közép-európai téli idő),The main experiment item,yes,0,0,C:/Users/rrics/Documents/!!ResearchBMECOGSCI/gnet,0,0,0,prototype3.png,no,mono,no,18,no,black,no,no,768,1152,3.5.6,legacy,xpyriment,osweb,1.3.13,0,space,space,space,space,21734,8426,14843,21734,2,legacy,824,1536,24,864,24,0,0,1536,1645995536241,1024,2,48000,-16,experiment,p4sarr1.png,0,even,Win32,94,120348,117332,93,94,624070,625581,619071,121866,619071,94,691009,692514,688005,625583,688005,visual_patterns,0,0,0,yes,1366
undefined,undefined,undefined,undefined,white,no,Mozilla,Netscape,"5.0 (Windows NT 10.0; Win64; x64) AppleWebKit/537.36 (KHTML, like Gecko) Chrome/98.0.4758.102 Safari/537.36",xpyriment,legacy,legacy,0,uniform,0,0,0,0,24,24,24,0,0,74,74,74,74,74,0,74,0,10,10,10,10,10,0,10,27-01-22,27-01-22,21:57:36,Sun Feb 27 2022 21:57:36 GMT+0100 (közép-európai téli idő),The main experiment item,yes,0,0,C:/Users/rrics/Documents/!!ResearchBMECOGSCI/gnet,0,0,0,prototype3.png,no,mono,no,18,no,black,no,no,768,1152,3.5.6,legacy,xpyriment,osweb,1.3.13,0,space,space,space,space,21734,8426,14843,21734,2,legacy,824,1536,24,864,24,0,0,1536,1645995536241,1024,2,48000,-16,experiment,p9sarr2.png,0,even,Win32,94,120348,117332,93,94,624070,625581,619071,121866,619071,94,695523,697031,692522,625583,692521,visual_patterns,0,0,0,yes,1366
undefined,undefined,undefined,undefined,white,no,Mozilla,Netscape,"5.0 (Windows NT 10.0; Win64; x64) AppleWebKit/537.36 (KHTML, like Gecko) Chrome/98.0.4758.102 Safari/537.36",xpyriment,legacy,legacy,0,uniform,0,0,0,0,24,24,24,0,0,74,74,74,74,74,0,74,0,11,11,11,11,11,0,11,27-01-22,27-01-22,21:57:36,Sun Feb 27 2022 21:57:36 GMT+0100 (közép-európai téli idő),The main experiment item,yes,0,0,C:/Users/rrics/Documents/!!ResearchBMECOGSCI/gnet,0,0,0,prototype3.png,no,mono,no,18,no,black,no,no,768,1152,3.5.6,legacy,xpyriment,osweb,1.3.13,0,space,space,space,space,21734,8426,14843,21734,2,legacy,824,1536,24,864,24,0,0,1536,1645995536241,1024,2,48000,-16,experiment,p1sarr2.png,0,even,Win32,94,120348,117332,93,94,624070,625581,619071,121866,619071,94,700038,701548,697038,625583,697038,visual_patterns,0,0,0,yes,1366
undefined,undefined,undefined,undefined,white,no,Mozilla,Netscape,"5.0 (Windows NT 10.0; Win64; x64) AppleWebKit/537.36 (KHTML, like Gecko) Chrome/98.0.4758.102 Safari/537.36",xpyriment,legacy,legacy,0,uniform,0,0,0,0,24,24,24,0,0,74,74,74,74,74,0,74,0,12,12,12,12,12,0,12,27-01-22,27-01-22,21:57:36,Sun Feb 27 2022 21:57:36 GMT+0100 (közép-európai téli idő),The main experiment item,yes,0,0,C:/Users/rrics/Documents/!!ResearchBMECOGSCI/gnet,0,0,0,prototype3.png,no,mono,no,18,no,black,no,no,768,1152,3.5.6,legacy,xpyriment,osweb,1.3.13,0,space,space,space,space,21734,8426,14843,21734,2,legacy,824,1536,24,864,24,0,0,1536,1645995536241,1024,2,48000,-16,experiment,p3sarrcol4.png,0,even,Win32,94,120348,117332,93,94,624070,625581,619071,121866,619071,94,704558,706066,701557,625583,701557,visual_patterns,0,0,0,yes,1366
undefined,undefined,undefined,undefined,white,no,Mozilla,Netscape,"5.0 (Windows NT 10.0; Win64; x64) AppleWebKit/537.36 (KHTML, like Gecko) Chrome/98.0.4758.102 Safari/537.36",xpyriment,legacy,legacy,0,uniform,0,0,0,0,24,24,24,0,0,74,74,74,74,74,0,74,0,13,13,13,13,13,0,13,27-01-22,27-01-22,21:57:36,Sun Feb 27 2022 21:57:36 GMT+0100 (közép-európai téli idő),The main experiment item,yes,0,0,C:/Users/rrics/Documents/!!ResearchBMECOGSCI/gnet,0,0,0,prototype3.png,no,mono,no,18,no,black,no,no,768,1152,3.5.6,legacy,xpyriment,osweb,1.3.13,0,space,space,space,space,21734,8426,14843,21734,2,legacy,824,1536,24,864,24,0,0,1536,1645995536241,1024,2,48000,-16,experiment,p2sarrshacol2.png,0,even,Win32,94,120348,117332,93,94,624070,625581,619071,121866,619071,94,709077,710581,706073,625583,706073,visual_patterns,0,0,0,yes,1366
undefined,undefined,undefined,undefined,white,no,Mozilla,Netscape,"5.0 (Windows NT 10.0; Win64; x64) AppleWebKit/537.36 (KHTML, like Gecko) Chrome/98.0.4758.102 Safari/537.36",xpyriment,legacy,legacy,0,uniform,0,0,0,0,24,24,24,0,0,74,74,74,74,74,0,74,0,14,14,14,14,14,0,14,27-01-22,27-01-22,21:57:36,Sun Feb 27 2022 21:57:36 GMT+0100 (közép-európai téli idő),The main experiment item,yes,0,0,C:/Users/rrics/Documents/!!ResearchBMECOGSCI/gnet,0,0,0,prototype3.png,no,mono,no,18,no,black,no,no,768,1152,3.5.6,legacy,xpyriment,osweb,1.3.13,0,space,space,space,space,21734,8426,14843,21734,2,legacy,824,1536,24,864,24,0,0,1536,1645995536241,1024,2,48000,-16,experiment,p6sarr1.png,0,even,Win32,94,120348,117332,93,94,624070,625581,619071,121866,619071,94,713592,715098,710589,625583,710589,visual_patterns,0,0,0,yes,1366
undefined,undefined,undefined,undefined,white,no,Mozilla,Netscape,"5.0 (Windows NT 10.0; Win64; x64) AppleWebKit/537.36 (KHTML, like Gecko) Chrome/98.0.4758.102 Safari/537.36",xpyriment,legacy,legacy,0,uniform,0,0,0,0,24,24,24,0,0,74,74,74,74,74,0,74,0,15,15,15,15,15,0,15,27-01-22,27-01-22,21:57:36,Sun Feb 27 2022 21:57:36 GMT+0100 (közép-európai téli idő),The main experiment item,yes,0,0,C:/Users/rrics/Documents/!!ResearchBMECOGSCI/gnet,0,0,0,prototype3.png,no,mono,no,18,no,black,no,no,768,1152,3.5.6,legacy,xpyriment,osweb,1.3.13,0,space,space,space,space,21734,8426,14843,21734,2,legacy,824,1536,24,864,24,0,0,1536,1645995536241,1024,2,48000,-16,experiment,p4sarrshacol3.png,0,even,Win32,94,120348,117332,93,94,624070,625581,619071,121866,619071,94,718109,719614,715107,625583,715107,visual_patterns,0,0,0,yes,1366
undefined,undefined,undefined,undefined,white,no,Mozilla,Netscape,"5.0 (Windows NT 10.0; Win64; x64) AppleWebKit/537.36 (KHTML, like Gecko) Chrome/98.0.4758.102 Safari/537.36",xpyriment,legacy,legacy,0,uniform,0,0,0,0,24,24,24,0,0,74,74,74,74,74,0,74,0,16,16,16,16,16,0,16,27-01-22,27-01-22,21:57:36,Sun Feb 27 2022 21:57:36 GMT+0100 (közép-európai téli idő),The main experiment item,yes,0,0,C:/Users/rrics/Documents/!!ResearchBMECOGSCI/gnet,0,0,0,prototype3.png,no,mono,no,18,no,black,no,no,768,1152,3.5.6,legacy,xpyriment,osweb,1.3.13,0,space,space,space,space,21734,8426,14843,21734,2,legacy,824,1536,24,864,24,0,0,1536,1645995536241,1024,2,48000,-16,experiment,p4sarrshacol4.png,0,even,Win32,94,120348,117332,93,94,624070,625581,619071,121866,619071,94,722625,724131,719623,625583,719623,visual_patterns,0,0,0,yes,1366
undefined,undefined,undefined,undefined,white,no,Mozilla,Netscape,"5.0 (Windows NT 10.0; Win64; x64) AppleWebKit/537.36 (KHTML, like Gecko) Chrome/98.0.4758.102 Safari/537.36",xpyriment,legacy,legacy,0,uniform,0,0,0,0,24,24,24,0,0,74,74,74,74,74,0,74,0,17,17,17,17,17,0,17,27-01-22,27-01-22,21:57:36,Sun Feb 27 2022 21:57:36 GMT+0100 (közép-európai téli idő),The main experiment item,yes,0,0,C:/Users/rrics/Documents/!!ResearchBMECOGSCI/gnet,0,0,0,prototype3.png,no,mono,no,18,no,black,no,no,768,1152,3.5.6,legacy,xpyriment,osweb,1.3.13,0,space,space,space,space,21734,8426,14843,21734,2,legacy,824,1536,24,864,24,0,0,1536,1645995536241,1024,2,48000,-16,experiment,p2sarrcol1.png,0,even,Win32,94,120348,117332,93,94,624070,625581,619071,121866,619071,94,727139,728648,724138,625583,724138,visual_patterns,0,0,0,yes,1366
undefined,undefined,undefined,undefined,white,no,Mozilla,Netscape,"5.0 (Windows NT 10.0; Win64; x64) AppleWebKit/537.36 (KHTML, like Gecko) Chrome/98.0.4758.102 Safari/537.36",xpyriment,legacy,legacy,0,uniform,0,0,0,0,24,24,24,0,0,74,74,74,74,74,0,74,0,18,18,18,18,18,0,18,27-01-22,27-01-22,21:57:36,Sun Feb 27 2022 21:57:36 GMT+0100 (közép-európai téli idő),The main experiment item,yes,0,0,C:/Users/rrics/Documents/!!ResearchBMECOGSCI/gnet,0,0,0,prototype3.png,no,mono,no,18,no,black,no,no,768,1152,3.5.6,legacy,xpyriment,osweb,1.3.13,0,space,space,space,space,21734,8426,14843,21734,2,legacy,824,1536,24,864,24,0,0,1536,1645995536241,1024,2,48000,-16,experiment,p1sarr4.png,0,even,Win32,94,120348,117332,93,94,624070,625581,619071,121866,619071,94,731668,733181,728668,625583,728668,visual_patterns,0,0,0,yes,1366
undefined,undefined,undefined,undefined,white,no,Mozilla,Netscape,"5.0 (Windows NT 10.0; Win64; x64) AppleWebKit/537.36 (KHTML, like Gecko) Chrome/98.0.4758.102 Safari/537.36",xpyriment,legacy,legacy,0,uniform,0,0,0,0,24,24,24,0,0,74,74,74,74,74,0,74,0,19,19,19,19,19,0,19,27-01-22,27-01-22,21:57:36,Sun Feb 27 2022 21:57:36 GMT+0100 (közép-európai téli idő),The main experiment item,yes,0,0,C:/Users/rrics/Documents/!!ResearchBMECOGSCI/gnet,0,0,0,prototype3.png,no,mono,no,18,no,black,no,no,768,1152,3.5.6,legacy,xpyriment,osweb,1.3.13,0,space,space,space,space,21734,8426,14843,21734,2,legacy,824,1536,24,864,24,0,0,1536,1645995536241,1024,2,48000,-16,experiment,p10sarr1.png,0,even,Win32,94,120348,117332,93,94,624070,625581,619071,121866,619071,94,736193,737697,733188,625583,733188,visual_patterns,0,0,0,yes,1366
undefined,undefined,undefined,undefined,white,no,Mozilla,Netscape,"5.0 (Windows NT 10.0; Win64; x64) AppleWebKit/537.36 (KHTML, like Gecko) Chrome/98.0.4758.102 Safari/537.36",xpyriment,legacy,legacy,0,uniform,0,0,0,0,24,24,24,0,0,74,74,74,74,74,0,74,0,20,20,20,20,20,0,20,27-01-22,27-01-22,21:57:36,Sun Feb 27 2022 21:57:36 GMT+0100 (közép-európai téli idő),The main experiment item,yes,0,0,C:/Users/rrics/Documents/!!ResearchBMECOGSCI/gnet,0,0,0,prototype3.png,no,mono,no,18,no,black,no,no,768,1152,3.5.6,legacy,xpyriment,osweb,1.3.13,0,space,space,space,space,21734,8426,14843,21734,2,legacy,824,1536,24,864,24,0,0,1536,1645995536241,1024,2,48000,-16,experiment,p8sarr3.png,0,even,Win32,94,120348,117332,93,94,624070,625581,619071,121866,619071,94,740705,742214,737707,625583,737707,visual_patterns,0,0,0,yes,1366
undefined,undefined,undefined,undefined,white,no,Mozilla,Netscape,"5.0 (Windows NT 10.0; Win64; x64) AppleWebKit/537.36 (KHTML, like Gecko) Chrome/98.0.4758.102 Safari/537.36",xpyriment,legacy,legacy,0,uniform,0,0,0,0,24,24,24,0,0,74,74,74,74,74,0,74,0,21,21,21,21,21,0,21,27-01-22,27-01-22,21:57:36,Sun Feb 27 2022 21:57:36 GMT+0100 (közép-európai téli idő),The main experiment item,yes,0,0,C:/Users/rrics/Documents/!!ResearchBMECOGSCI/gnet,0,0,0,prototype3.png,no,mono,no,18,no,black,no,no,768,1152,3.5.6,legacy,xpyriment,osweb,1.3.13,0,space,space,space,space,21734,8426,14843,21734,2,legacy,824,1536,24,864,24,0,0,1536,1645995536241,1024,2,48000,-16,experiment,p9sarr4.png,0,even,Win32,94,120348,117332,93,94,624070,625581,619071,121866,619071,94,745221,746731,742223,625583,742223,visual_patterns,0,0,0,yes,1366
undefined,undefined,undefined,undefined,white,no,Mozilla,Netscape,"5.0 (Windows NT 10.0; Win64; x64) AppleWebKit/537.36 (KHTML, like Gecko) Chrome/98.0.4758.102 Safari/537.36",xpyriment,legacy,legacy,0,uniform,0,0,0,0,24,24,24,0,0,74,74,74,74,74,0,74,0,22,22,22,22,22,0,22,27-01-22,27-01-22,21:57:36,Sun Feb 27 2022 21:57:36 GMT+0100 (közép-európai téli idő),The main experiment item,yes,0,0,C:/Users/rrics/Documents/!!ResearchBMECOGSCI/gnet,0,0,0,prototype3.png,no,mono,no,18,no,black,no,no,768,1152,3.5.6,legacy,xpyriment,osweb,1.3.13,0,space,space,space,space,21734,8426,14843,21734,2,legacy,824,1536,24,864,24,0,0,1536,1645995536241,1024,2,48000,-16,experiment,p5sarrcol2.png,0,even,Win32,94,120348,117332,93,94,624070,625581,619071,121866,619071,94,749739,751248,746738,625583,746738,visual_patterns,0,0,0,yes,1366
undefined,undefined,undefined,undefined,white,no,Mozilla,Netscape,"5.0 (Windows NT 10.0; Win64; x64) AppleWebKit/537.36 (KHTML, like Gecko) Chrome/98.0.4758.102 Safari/537.36",xpyriment,legacy,legacy,0,uniform,0,0,0,0,24,24,24,0,0,74,74,74,74,74,0,74,0,23,23,23,23,23,0,23,27-01-22,27-01-22,21:57:36,Sun Feb 27 2022 21:57:36 GMT+0100 (közép-európai téli idő),The main experiment item,yes,0,0,C:/Users/rrics/Documents/!!ResearchBMECOGSCI/gnet,0,0,0,prototype3.png,no,mono,no,18,no,black,no,no,768,1152,3.5.6,legacy,xpyriment,osweb,1.3.13,0,space,space,space,space,21734,8426,14843,21734,2,legacy,824,1536,24,864,24,0,0,1536,1645995536241,1024,2,48000,-16,experiment,p7sarr4.png,0,even,Win32,94,120348,117332,93,94,624070,625581,619071,121866,619071,94,754268,755781,751267,625583,751267,visual_patterns,0,0,0,yes,1366
undefined,undefined,undefined,undefined,white,no,Mozilla,Netscape,"5.0 (Windows NT 10.0; Win64; x64) AppleWebKit/537.36 (KHTML, like Gecko) Chrome/98.0.4758.102 Safari/537.36",xpyriment,legacy,legacy,0,uniform,0,0,0,0,24,24,24,0,0,74,74,74,74,74,0,74,0,24,24,24,24,24,0,24,27-01-22,27-01-22,21:57:36,Sun Feb 27 2022 21:57:36 GMT+0100 (közép-európai téli idő),The main experiment item,yes,0,0,C:/Users/rrics/Documents/!!ResearchBMECOGSCI/gnet,0,0,0,prototype3.png,no,mono,no,18,no,black,no,no,768,1152,3.5.6,legacy,xpyriment,osweb,1.3.13,0,space,space,space,space,21734,8426,14843,21734,2,legacy,824,1536,24,864,24,0,0,1536,1645995536241,1024,2,48000,-16,experiment,p3sarrsha3.png,0,even,Win32,94,120348,117332,93,94,624070,625581,619071,121866,619071,94,758789,760298,755790,625583,755790,visual_patterns,0,0,0,yes,1366
undefined,undefined,undefined,undefined,white,no,Mozilla,Netscape,"5.0 (Windows NT 10.0; Win64; x64) AppleWebKit/537.36 (KHTML, like Gecko) Chrome/98.0.4758.102 Safari/537.36",xpyriment,legacy,legacy,0,uniform,0,0,0,0,24,24,24,0,0,74,74,74,74,74,0,74,0,25,25,25,25,25,0,25,27-01-22,27-01-22,21:57:36,Sun Feb 27 2022 21:57:36 GMT+0100 (közép-európai téli idő),The main experiment item,yes,0,0,C:/Users/rrics/Documents/!!ResearchBMECOGSCI/gnet,0,0,0,prototype3.png,no,mono,no,18,no,black,no,no,768,1152,3.5.6,legacy,xpyriment,osweb,1.3.13,0,space,space,space,space,21734,8426,14843,21734,2,legacy,824,1536,24,864,24,0,0,1536,1645995536241,1024,2,48000,-16,experiment,p8sarr4.png,0,even,Win32,94,120348,117332,93,94,624070,625581,619071,121866,619071,94,763309,764814,760307,625583,760307,visual_patterns,0,0,0,yes,1366
undefined,undefined,undefined,undefined,white,no,Mozilla,Netscape,"5.0 (Windows NT 10.0; Win64; x64) AppleWebKit/537.36 (KHTML, like Gecko) Chrome/98.0.4758.102 Safari/537.36",xpyriment,legacy,legacy,0,uniform,0,0,0,0,24,24,24,0,0,74,74,74,74,74,0,74,0,26,26,26,26,26,0,26,27-01-22,27-01-22,21:57:36,Sun Feb 27 2022 21:57:36 GMT+0100 (közép-európai téli idő),The main experiment item,yes,0,0,C:/Users/rrics/Documents/!!ResearchBMECOGSCI/gnet,0,0,0,prototype3.png,no,mono,no,18,no,black,no,no,768,1152,3.5.6,legacy,xpyriment,osweb,1.3.13,0,space,space,space,space,21734,8426,14843,21734,2,legacy,824,1536,24,864,24,0,0,1536,1645995536241,1024,2,48000,-16,experiment,p2sarrshacol4.png,0,even,Win32,94,120348,117332,93,94,624070,625581,619071,121866,619071,94,767823,769331,764824,625583,764824,visual_patterns,0,0,0,yes,1366
undefined,undefined,undefined,undefined,white,no,Mozilla,Netscape,"5.0 (Windows NT 10.0; Win64; x64) AppleWebKit/537.36 (KHTML, like Gecko) Chrome/98.0.4758.102 Safari/537.36",xpyriment,legacy,legacy,0,uniform,0,0,0,0,24,24,24,0,0,74,74,74,74,74,0,74,0,27,27,27,27,27,0,27,27-01-22,27-01-22,21:57:36,Sun Feb 27 2022 21:57:36 GMT+0100 (közép-európai téli idő),The main experiment item,yes,0,0,C:/Users/rrics/Documents/!!ResearchBMECOGSCI/gnet,0,0,0,prototype3.png,no,mono,no,18,no,black,no,no,768,1152,3.5.6,legacy,xpyriment,osweb,1.3.13,0,space,space,space,space,21734,8426,14843,21734,2,legacy,824,1536,24,864,24,0,0,1536,1645995536241,1024,2,48000,-16,experiment,p4sarrshacol1.png,0,even,Win32,94,120348,117332,93,94,624070,625581,619071,121866,619071,94,772341,773847,769338,625583,769338,visual_patterns,0,0,0,yes,1366
undefined,undefined,undefined,undefined,white,no,Mozilla,Netscape,"5.0 (Windows NT 10.0; Win64; x64) AppleWebKit/537.36 (KHTML, like Gecko) Chrome/98.0.4758.102 Safari/537.36",xpyriment,legacy,legacy,0,uniform,0,0,0,0,24,24,24,0,0,74,74,74,74,74,0,74,0,28,28,28,28,28,0,28,27-01-22,27-01-22,21:57:36,Sun Feb 27 2022 21:57:36 GMT+0100 (közép-európai téli idő),The main experiment item,yes,0,0,C:/Users/rrics/Documents/!!ResearchBMECOGSCI/gnet,0,0,0,prototype3.png,no,mono,no,18,no,black,no,no,768,1152,3.5.6,legacy,xpyriment,osweb,1.3.13,0,space,space,space,space,21734,8426,14843,21734,2,legacy,824,1536,24,864,24,0,0,1536,1645995536241,1024,2,48000,-16,experiment,p1sarrshacol3.png,0,even,Win32,94,120348,117332,93,94,624070,625581,619071,121866,619071,94,776868,778381,773868,625583,773868,visual_patterns,0,0,0,yes,1366
undefined,undefined,undefined,undefined,white,no,Mozilla,Netscape,"5.0 (Windows NT 10.0; Win64; x64) AppleWebKit/537.36 (KHTML, like Gecko) Chrome/98.0.4758.102 Safari/537.36",xpyriment,legacy,legacy,0,uniform,0,0,0,0,24,24,24,0,0,74,74,74,74,74,0,74,0,29,29,29,29,29,0,29,27-01-22,27-01-22,21:57:36,Sun Feb 27 2022 21:57:36 GMT+0100 (közép-európai téli idő),The main experiment item,yes,0,0,C:/Users/rrics/Documents/!!ResearchBMECOGSCI/gnet,0,0,0,prototype3.png,no,mono,no,18,no,black,no,no,768,1152,3.5.6,legacy,xpyriment,osweb,1.3.13,0,space,space,space,space,21734,8426,14843,21734,2,legacy,824,1536,24,864,24,0,0,1536,1645995536241,1024,2,48000,-16,experiment,p2sarrsha1.png,0,even,Win32,94,120348,117332,93,94,624070,625581,619071,121866,619071,94,781392,782898,778388,625583,778388,visual_patterns,0,0,0,yes,1366
undefined,undefined,undefined,undefined,white,no,Mozilla,Netscape,"5.0 (Windows NT 10.0; Win64; x64) AppleWebKit/537.36 (KHTML, like Gecko) Chrome/98.0.4758.102 Safari/537.36",xpyriment,legacy,legacy,0,uniform,0,0,0,0,24,24,24,0,0,74,74,74,74,74,0,74,0,30,30,30,30,30,0,30,27-01-22,27-01-22,21:57:36,Sun Feb 27 2022 21:57:36 GMT+0100 (közép-európai téli idő),The main experiment item,yes,0,0,C:/Users/rrics/Documents/!!ResearchBMECOGSCI/gnet,0,0,0,prototype3.png,no,mono,no,18,no,black,no,no,768,1152,3.5.6,legacy,xpyriment,osweb,1.3.13,0,space,space,space,space,21734,8426,14843,21734,2,legacy,824,1536,24,864,24,0,0,1536,1645995536241,1024,2,48000,-16,experiment,p3sarr2.png,0,even,Win32,94,120348,117332,93,94,624070,625581,619071,121866,619071,94,785905,787414,782905,625583,782905,visual_patterns,0,0,0,yes,1366
undefined,undefined,undefined,undefined,white,no,Mozilla,Netscape,"5.0 (Windows NT 10.0; Win64; x64) AppleWebKit/537.36 (KHTML, like Gecko) Chrome/98.0.4758.102 Safari/537.36",xpyriment,legacy,legacy,0,uniform,0,0,0,0,24,24,24,0,0,74,74,74,74,74,0,74,0,31,31,31,31,31,0,31,27-01-22,27-01-22,21:57:36,Sun Feb 27 2022 21:57:36 GMT+0100 (közép-európai téli idő),The main experiment item,yes,0,0,C:/Users/rrics/Documents/!!ResearchBMECOGSCI/gnet,0,0,0,prototype3.png,no,mono,no,18,no,black,no,no,768,1152,3.5.6,legacy,xpyriment,osweb,1.3.13,0,space,space,space,space,21734,8426,14843,21734,2,legacy,824,1536,24,864,24,0,0,1536,1645995536241,1024,2,48000,-16,experiment,p3sarrshacol3.png,0,even,Win32,94,120348,117332,93,94,624070,625581,619071,121866,619071,94,790426,791931,787424,625583,787424,visual_patterns,0,0,0,yes,1366
undefined,undefined,undefined,undefined,white,no,Mozilla,Netscape,"5.0 (Windows NT 10.0; Win64; x64) AppleWebKit/537.36 (KHTML, like Gecko) Chrome/98.0.4758.102 Safari/537.36",xpyriment,legacy,legacy,0,uniform,0,0,0,0,24,24,24,0,0,74,74,74,74,74,0,74,0,32,32,32,32,32,0,32,27-01-22,27-01-22,21:57:36,Sun Feb 27 2022 21:57:36 GMT+0100 (közép-európai téli idő),The main experiment item,yes,0,0,C:/Users/rrics/Documents/!!ResearchBMECOGSCI/gnet,0,0,0,prototype3.png,no,mono,no,18,no,black,no,no,768,1152,3.5.6,legacy,xpyriment,osweb,1.3.13,0,space,space,space,space,21734,8426,14843,21734,2,legacy,824,1536,24,864,24,0,0,1536,1645995536241,1024,2,48000,-16,experiment,p2sarrcol4.png,0,even,Win32,94,120348,117332,93,94,624070,625581,619071,121866,619071,94,794943,796447,791940,625583,791940,visual_patterns,0,0,0,yes,1366
undefined,undefined,undefined,undefined,white,no,Mozilla,Netscape,"5.0 (Windows NT 10.0; Win64; x64) AppleWebKit/537.36 (KHTML, like Gecko) Chrome/98.0.4758.102 Safari/537.36",xpyriment,legacy,legacy,0,uniform,0,0,0,0,24,24,24,0,0,74,74,74,74,74,0,74,0,33,33,33,33,33,0,33,27-01-22,27-01-22,21:57:36,Sun Feb 27 2022 21:57:36 GMT+0100 (közép-európai téli idő),The main experiment item,yes,0,0,C:/Users/rrics/Documents/!!ResearchBMECOGSCI/gnet,0,0,0,prototype3.png,no,mono,no,18,no,black,no,no,768,1152,3.5.6,legacy,xpyriment,osweb,1.3.13,0,space,space,space,space,21734,8426,14843,21734,2,legacy,824,1536,24,864,24,0,0,1536,1645995536241,1024,2,48000,-16,experiment,p5sarrcol1.png,0,even,Win32,94,120348,117332,93,94,624070,625581,619071,121866,619071,94,799471,800981,796468,625583,796468,visual_patterns,0,0,0,yes,1366
undefined,undefined,undefined,undefined,white,no,Mozilla,Netscape,"5.0 (Windows NT 10.0; Win64; x64) AppleWebKit/537.36 (KHTML, like Gecko) Chrome/98.0.4758.102 Safari/537.36",xpyriment,legacy,legacy,0,uniform,0,0,0,0,24,24,24,0,0,74,74,74,74,74,0,74,0,34,34,34,34,34,0,34,27-01-22,27-01-22,21:57:36,Sun Feb 27 2022 21:57:36 GMT+0100 (közép-európai téli idő),The main experiment item,yes,0,0,C:/Users/rrics/Documents/!!ResearchBMECOGSCI/gnet,0,0,0,prototype3.png,no,mono,no,18,no,black,no,no,768,1152,3.5.6,legacy,xpyriment,osweb,1.3.13,0,space,space,space,space,21734,8426,14843,21734,2,legacy,824,1536,24,864,24,0,0,1536,1645995536241,1024,2,48000,-16,experiment,p8sarr2.png,0,even,Win32,94,120348,117332,93,94,624070,625581,619071,121866,619071,94,803989,805498,800988,625583,800988,visual_patterns,0,0,0,yes,1366
undefined,undefined,undefined,undefined,white,no,Mozilla,Netscape,"5.0 (Windows NT 10.0; Win64; x64) AppleWebKit/537.36 (KHTML, like Gecko) Chrome/98.0.4758.102 Safari/537.36",xpyriment,legacy,legacy,0,uniform,0,0,0,0,24,24,24,0,0,74,74,74,74,74,0,74,0,35,35,35,35,35,0,35,27-01-22,27-01-22,21:57:36,Sun Feb 27 2022 21:57:36 GMT+0100 (közép-európai téli idő),The main experiment item,yes,0,0,C:/Users/rrics/Documents/!!ResearchBMECOGSCI/gnet,0,0,0,prototype3.png,no,mono,no,18,no,black,no,no,768,1152,3.5.6,legacy,xpyriment,osweb,1.3.13,0,space,space,space,space,21734,8426,14843,21734,2,legacy,824,1536,24,864,24,0,0,1536,1645995536241,1024,2,48000,-16,experiment,p5sarr3.png,0,even,Win32,94,120348,117332,93,94,624070,625581,619071,121866,619071,94,808509,810014,805507,625583,805507,visual_patterns,0,0,0,yes,1366
undefined,undefined,undefined,undefined,white,no,Mozilla,Netscape,"5.0 (Windows NT 10.0; Win64; x64) AppleWebKit/537.36 (KHTML, like Gecko) Chrome/98.0.4758.102 Safari/537.36",xpyriment,legacy,legacy,0,uniform,0,0,0,0,24,24,24,0,0,74,74,74,74,74,0,74,0,36,36,36,36,36,0,36,27-01-22,27-01-22,21:57:36,Sun Feb 27 2022 21:57:36 GMT+0100 (közép-európai téli idő),The main experiment item,yes,0,0,C:/Users/rrics/Documents/!!ResearchBMECOGSCI/gnet,0,0,0,prototype3.png,no,mono,no,18,no,black,no,no,768,1152,3.5.6,legacy,xpyriment,osweb,1.3.13,0,space,space,space,space,21734,8426,14843,21734,2,legacy,824,1536,24,864,24,0,0,1536,1645995536241,1024,2,48000,-16,experiment,p7sarr1.png,0,even,Win32,94,120348,117332,93,94,624070,625581,619071,121866,619071,94,813025,814531,810022,625583,810022,visual_patterns,0,0,0,yes,1366
undefined,undefined,undefined,undefined,white,no,Mozilla,Netscape,"5.0 (Windows NT 10.0; Win64; x64) AppleWebKit/537.36 (KHTML, like Gecko) Chrome/98.0.4758.102 Safari/537.36",xpyriment,legacy,legacy,0,uniform,0,0,0,0,24,24,24,0,0,74,74,74,74,74,0,74,0,37,37,37,37,37,0,37,27-01-22,27-01-22,21:57:36,Sun Feb 27 2022 21:57:36 GMT+0100 (közép-európai téli idő),The main experiment item,yes,0,0,C:/Users/rrics/Documents/!!ResearchBMECOGSCI/gnet,0,0,0,prototype3.png,no,mono,no,18,no,black,no,no,768,1152,3.5.6,legacy,xpyriment,osweb,1.3.13,0,space,space,space,space,21734,8426,14843,21734,2,legacy,824,1536,24,864,24,0,0,1536,1645995536241,1024,2,48000,-16,experiment,p1sarrcol4.png,0,even,Win32,94,120348,117332,93,94,624070,625581,619071,121866,619071,94,817539,819047,814541,625583,814541,visual_patterns,0,0,0,yes,1366
undefined,undefined,undefined,undefined,white,no,Mozilla,Netscape,"5.0 (Windows NT 10.0; Win64; x64) AppleWebKit/537.36 (KHTML, like Gecko) Chrome/98.0.4758.102 Safari/537.36",xpyriment,legacy,legacy,0,uniform,0,0,0,0,24,24,24,0,0,74,74,74,74,74,0,74,0,38,38,38,38,38,0,38,27-01-22,27-01-22,21:57:36,Sun Feb 27 2022 21:57:36 GMT+0100 (közép-európai téli idő),The main experiment item,yes,0,0,C:/Users/rrics/Documents/!!ResearchBMECOGSCI/gnet,0,0,0,prototype3.png,no,mono,no,18,no,black,no,no,768,1152,3.5.6,legacy,xpyriment,osweb,1.3.13,0,space,space,space,space,21734,8426,14843,21734,2,legacy,824,1536,24,864,24,0,0,1536,1645995536241,1024,2,48000,-16,experiment,p3sarrsha4.png,0,even,Win32,94,120348,117332,93,94,624070,625581,619071,121866,619071,94,822055,823564,819056,625583,819056,visual_patterns,0,0,0,yes,1366
undefined,undefined,undefined,undefined,white,no,Mozilla,Netscape,"5.0 (Windows NT 10.0; Win64; x64) AppleWebKit/537.36 (KHTML, like Gecko) Chrome/98.0.4758.102 Safari/537.36",xpyriment,legacy,legacy,0,uniform,0,0,0,0,24,24,24,0,0,74,74,74,74,74,0,74,0,39,39,39,39,39,0,39,27-01-22,27-01-22,21:57:36,Sun Feb 27 2022 21:57:36 GMT+0100 (közép-európai téli idő),The main experiment item,yes,0,0,C:/Users/rrics/Documents/!!ResearchBMECOGSCI/gnet,0,0,0,prototype3.png,no,mono,no,18,no,black,no,no,768,1152,3.5.6,legacy,xpyriment,osweb,1.3.13,0,space,space,space,space,21734,8426,14843,21734,2,legacy,824,1536,24,864,24,0,0,1536,1645995536241,1024,2,48000,-16,experiment,p3sarr1.png,0,even,Win32,94,120348,117332,93,94,624070,625581,619071,121866,619071,94,826575,828081,823572,625583,823571,visual_patterns,0,0,0,yes,1366
undefined,undefined,undefined,undefined,white,no,Mozilla,Netscape,"5.0 (Windows NT 10.0; Win64; x64) AppleWebKit/537.36 (KHTML, like Gecko) Chrome/98.0.4758.102 Safari/537.36",xpyriment,legacy,legacy,0,uniform,0,0,0,0,24,24,24,0,0,74,74,74,74,74,0,74,0,40,40,40,40,40,0,40,27-01-22,27-01-22,21:57:36,Sun Feb 27 2022 21:57:36 GMT+0100 (közép-európai téli idő),The main experiment item,yes,0,0,C:/Users/rrics/Documents/!!ResearchBMECOGSCI/gnet,0,0,0,prototype3.png,no,mono,no,18,no,black,no,no,768,1152,3.5.6,legacy,xpyriment,osweb,1.3.13,0,space,space,space,space,21734,8426,14843,21734,2,legacy,824,1536,24,864,24,0,0,1536,1645995536241,1024,2,48000,-16,experiment,p2sarrsha3.png,0,even,Win32,94,120348,117332,93,94,624070,625581,619071,121866,619071,94,831092,832597,828091,625583,828091,visual_patterns,0,0,0,yes,1366
undefined,undefined,undefined,undefined,white,no,Mozilla,Netscape,"5.0 (Windows NT 10.0; Win64; x64) AppleWebKit/537.36 (KHTML, like Gecko) Chrome/98.0.4758.102 Safari/537.36",xpyriment,legacy,legacy,0,uniform,0,0,0,0,24,24,24,0,0,74,74,74,74,74,0,74,0,41,41,41,41,41,0,41,27-01-22,27-01-22,21:57:36,Sun Feb 27 2022 21:57:36 GMT+0100 (közép-európai téli idő),The main experiment item,yes,0,0,C:/Users/rrics/Documents/!!ResearchBMECOGSCI/gnet,0,0,0,prototype3.png,no,mono,no,18,no,black,no,no,768,1152,3.5.6,legacy,xpyriment,osweb,1.3.13,0,space,space,space,space,21734,8426,14843,21734,2,legacy,824,1536,24,864,24,0,0,1536,1645995536241,1024,2,48000,-16,experiment,p9sarr3.png,0,even,Win32,94,120348,117332,93,94,624070,625581,619071,121866,619071,94,835609,837116,832606,625583,832606,visual_patterns,0,0,0,yes,1366
undefined,undefined,undefined,undefined,white,no,Mozilla,Netscape,"5.0 (Windows NT 10.0; Win64; x64) AppleWebKit/537.36 (KHTML, like Gecko) Chrome/98.0.4758.102 Safari/537.36",xpyriment,legacy,legacy,0,uniform,0,0,0,0,24,24,24,0,0,74,74,74,74,74,0,74,0,42,42,42,42,42,0,42,27-01-22,27-01-22,21:57:36,Sun Feb 27 2022 21:57:36 GMT+0100 (közép-európai téli idő),The main experiment item,yes,0,0,C:/Users/rrics/Documents/!!ResearchBMECOGSCI/gnet,0,0,0,prototype3.png,no,mono,no,18,no,black,no,no,768,1152,3.5.6,legacy,xpyriment,osweb,1.3.13,0,space,space,space,space,21734,8426,14843,21734,2,legacy,824,1536,24,864,24,0,0,1536,1645995536241,1024,2,48000,-16,experiment,p10sarr4.png,0,even,Win32,94,120348,117332,93,94,624070,625581,619071,121866,619071,94,840124,841632,837125,625583,837125,visual_patterns,0,0,0,yes,1366
undefined,undefined,undefined,undefined,white,no,Mozilla,Netscape,"5.0 (Windows NT 10.0; Win64; x64) AppleWebKit/537.36 (KHTML, like Gecko) Chrome/98.0.4758.102 Safari/537.36",xpyriment,legacy,legacy,0,uniform,0,0,0,0,24,24,24,0,0,74,74,74,74,74,0,74,0,43,43,43,43,43,0,43,27-01-22,27-01-22,21:57:36,Sun Feb 27 2022 21:57:36 GMT+0100 (közép-európai téli idő),The main experiment item,yes,0,0,C:/Users/rrics/Documents/!!ResearchBMECOGSCI/gnet,0,0,0,prototype3.png,no,mono,no,18,no,black,no,no,768,1152,3.5.6,legacy,xpyriment,osweb,1.3.13,0,space,space,space,space,21734,8426,14843,21734,2,legacy,824,1536,24,864,24,0,0,1536,1645995536241,1024,2,48000,-16,experiment,p4sarrcol1.png,0,even,Win32,94,120348,117332,93,94,624070,625581,619071,121866,619071,94,844642,846148,841641,625583,841641,visual_patterns,0,0,0,yes,1366
undefined,undefined,undefined,undefined,white,no,Mozilla,Netscape,"5.0 (Windows NT 10.0; Win64; x64) AppleWebKit/537.36 (KHTML, like Gecko) Chrome/98.0.4758.102 Safari/537.36",xpyriment,legacy,legacy,0,uniform,0,0,0,0,24,24,24,0,0,74,74,74,74,74,0,74,0,44,44,44,44,44,0,44,27-01-22,27-01-22,21:57:36,Sun Feb 27 2022 21:57:36 GMT+0100 (közép-európai téli idő),The main experiment item,yes,0,0,C:/Users/rrics/Documents/!!ResearchBMECOGSCI/gnet,0,0,0,prototype3.png,no,mono,no,18,no,black,no,no,768,1152,3.5.6,legacy,xpyriment,osweb,1.3.13,0,space,space,space,space,21734,8426,14843,21734,2,legacy,824,1536,24,864,24,0,0,1536,1645995536241,1024,2,48000,-16,experiment,p5sarrshacol4.png,0,even,Win32,94,120348,117332,93,94,624070,625581,619071,121866,619071,94,849157,850664,846156,625583,846156,visual_patterns,0,0,0,yes,1366
undefined,undefined,undefined,undefined,white,no,Mozilla,Netscape,"5.0 (Windows NT 10.0; Win64; x64) AppleWebKit/537.36 (KHTML, like Gecko) Chrome/98.0.4758.102 Safari/537.36",xpyriment,legacy,legacy,0,uniform,0,0,0,0,24,24,24,0,0,74,74,74,74,74,0,74,0,45,45,45,45,45,0,45,27-01-22,27-01-22,21:57:36,Sun Feb 27 2022 21:57:36 GMT+0100 (közép-európai téli idő),The main experiment item,yes,0,0,C:/Users/rrics/Documents/!!ResearchBMECOGSCI/gnet,0,0,0,prototype3.png,no,mono,no,18,no,black,no,no,768,1152,3.5.6,legacy,xpyriment,osweb,1.3.13,0,space,space,space,space,21734,8426,14843,21734,2,legacy,824,1536,24,864,24,0,0,1536,1645995536241,1024,2,48000,-16,experiment,p3sarr3.png,0,even,Win32,94,120348,117332,93,94,624070,625581,619071,121866,619071,94,853675,855181,850673,625583,850673,visual_patterns,0,0,0,yes,1366
undefined,undefined,undefined,undefined,white,no,Mozilla,Netscape,"5.0 (Windows NT 10.0; Win64; x64) AppleWebKit/537.36 (KHTML, like Gecko) Chrome/98.0.4758.102 Safari/537.36",xpyriment,legacy,legacy,0,uniform,0,0,0,0,24,24,24,0,0,74,74,74,74,74,0,74,0,46,46,46,46,46,0,46,27-01-22,27-01-22,21:57:36,Sun Feb 27 2022 21:57:36 GMT+0100 (közép-európai téli idő),The main experiment item,yes,0,0,C:/Users/rrics/Documents/!!ResearchBMECOGSCI/gnet,0,0,0,prototype3.png,no,mono,no,18,no,black,no,no,768,1152,3.5.6,legacy,xpyriment,osweb,1.3.13,0,space,space,space,space,21734,8426,14843,21734,2,legacy,824,1536,24,864,24,0,0,1536,1645995536241,1024,2,48000,-16,experiment,p2sarr3.png,0,even,Win32,94,120348,117332,93,94,624070,625581,619071,121866,619071,94,858190,859698,855191,625583,855191,visual_patterns,0,0,0,yes,1366
undefined,undefined,undefined,undefined,white,no,Mozilla,Netscape,"5.0 (Windows NT 10.0; Win64; x64) AppleWebKit/537.36 (KHTML, like Gecko) Chrome/98.0.4758.102 Safari/537.36",xpyriment,legacy,legacy,0,uniform,0,0,0,0,24,24,24,0,0,74,74,74,74,74,0,74,0,47,47,47,47,47,0,47,27-01-22,27-01-22,21:57:36,Sun Feb 27 2022 21:57:36 GMT+0100 (közép-európai téli idő),The main experiment item,yes,0,0,C:/Users/rrics/Documents/!!ResearchBMECOGSCI/gnet,0,0,0,prototype3.png,no,mono,no,18,no,black,no,no,768,1152,3.5.6,legacy,xpyriment,osweb,1.3.13,0,space,space,space,space,21734,8426,14843,21734,2,legacy,824,1536,24,864,24,0,0,1536,1645995536241,1024,2,48000,-16,experiment,p4sarr2.png,0,even,Win32,94,120348,117332,93,94,624070,625581,619071,121866,619071,94,862705,864214,859706,625583,859706,visual_patterns,0,0,0,yes,1366
undefined,undefined,undefined,undefined,white,no,Mozilla,Netscape,"5.0 (Windows NT 10.0; Win64; x64) AppleWebKit/537.36 (KHTML, like Gecko) Chrome/98.0.4758.102 Safari/537.36",xpyriment,legacy,legacy,0,uniform,0,0,0,0,24,24,24,0,0,74,74,74,74,74,0,74,0,48,48,48,48,48,0,48,27-01-22,27-01-22,21:57:36,Sun Feb 27 2022 21:57:36 GMT+0100 (közép-európai téli idő),The main experiment item,yes,0,0,C:/Users/rrics/Documents/!!ResearchBMECOGSCI/gnet,0,0,0,prototype3.png,no,mono,no,18,no,black,no,no,768,1152,3.5.6,legacy,xpyriment,osweb,1.3.13,0,space,space,space,space,21734,8426,14843,21734,2,legacy,824,1536,24,864,24,0,0,1536,1645995536241,1024,2,48000,-16,experiment,p2sarrshacol3.png,0,even,Win32,94,120348,117332,93,94,624070,625581,619071,121866,619071,94,867235,868747,864235,625583,864235,visual_patterns,0,0,0,yes,1366
