acc,accuracy,average_response_time,avg_rt,background,bidi,browser_codename,browser_name,browser_version,canvas_backend,clock_backend,color_backend,compensation,coordinates,count_end,count_experiment,count_osweb,count_prestudy,count_prestudy_isi,count_prestudy_sequence,count_prestudy_stimpres,count_start,count_study,count_study_coroutines,count_study_isi,count_study_logger,count_study_response,count_study_sequence,count_study_start,count_study_stimpres,count_test,count_test_coroutines,count_test_isi,count_test_logger,count_test_response,count_test_sequence,count_test_start,count_test_stimpres,date_startdate,date_startdateUTC,date_starttime,datetime,description,disable_garbage_collection,experiment_debug,experiment_parameters,experiment_path,experiment_pilot,experiment_taskname,experiment_taskversion,fampict,font_bold,font_family,font_italic,font_size,font_underline,foreground,form_clicks,fullscreen,height,jatosStudyResultId,jatosVersion,keyboard_backend,mouse_backend,opensesame_codename,opensesame_version,repeat_cycle,response,response_start,response_study_start,response_test_start,response_time,response_time_start,response_time_study_start,response_time_test_start,round_decimals,sampler_backend,screen_availableHeight,screen_availableWidth,screen_colorDepth,screen_height,screen_pixelDepth,screen_screenX,screen_screenY,screen_width,sessionid,sound_buf_size,sound_channels,sound_freq,sound_sample_size,start,stim,subject_nr,subject_parity,system_os,time_prestudy,time_prestudy_isi,time_prestudy_stimpres,time_start,time_study,time_study_isi,time_study_logger,time_study_response,time_study_start,time_study_stimpres,time_test,time_test_isi,time_test_logger,time_test_response,time_test_start,time_test_stimpres,title,total_correct,total_response_time,total_responses,uniform_coordinates,width
undefined,undefined,undefined,undefined,white,no,Mozilla,Netscape,"5.0 (Windows NT 10.0; Win64; x64) AppleWebKit/537.36 (KHTML, like Gecko) Chrome/98.0.4758.102 Safari/537.36",xpyriment,legacy,legacy,0,uniform,0,0,0,0,24,24,24,0,0,0,0,0,0,0,0,0,0,,,,,,0,,28-01-22,28-01-22,10:01:30,Mon Feb 28 2022 10:01:30 GMT+0100 (közép-európai téli idő),The main experiment item,yes,0,0,C:/Users/rrics/Documents/!!ResearchBMECOGSCI/gnet,0,0,0,prototype1.png,no,mono,no,18,no,black,no,no,768,1153,3.5.6,legacy,xpyriment,osweb,1.3.13,0,space,space,space,,34465,27521,34465,,2,legacy,824,1536,24,864,24,0,0,1536,1646038939446,1024,2,48000,-16,experiment,p6sarr1.png,1,odd,Win32,80,139392,136377,80,80,180393,181894,175391,140909,175391,80,,,,,,visual_patterns,0,0,0,yes,1366
undefined,undefined,undefined,undefined,white,no,Mozilla,Netscape,"5.0 (Windows NT 10.0; Win64; x64) AppleWebKit/537.36 (KHTML, like Gecko) Chrome/98.0.4758.102 Safari/537.36",xpyriment,legacy,legacy,0,uniform,0,0,0,0,24,24,24,0,0,1,1,1,1,1,0,1,0,,,,,,0,,28-01-22,28-01-22,10:01:30,Mon Feb 28 2022 10:01:30 GMT+0100 (közép-európai téli idő),The main experiment item,yes,0,0,C:/Users/rrics/Documents/!!ResearchBMECOGSCI/gnet,0,0,0,prototype1.png,no,mono,no,18,no,black,no,no,768,1153,3.5.6,legacy,xpyriment,osweb,1.3.13,0,space,space,space,,34465,27521,34465,,2,legacy,824,1536,24,864,24,0,0,1536,1646038939446,1024,2,48000,-16,experiment,prototype3.png,1,odd,Win32,80,139392,136377,80,80,186901,188408,181899,140909,181899,80,,,,,,visual_patterns,0,0,0,yes,1366
undefined,undefined,undefined,undefined,white,no,Mozilla,Netscape,"5.0 (Windows NT 10.0; Win64; x64) AppleWebKit/537.36 (KHTML, like Gecko) Chrome/98.0.4758.102 Safari/537.36",xpyriment,legacy,legacy,0,uniform,0,0,0,0,24,24,24,0,0,2,2,2,2,2,0,2,0,,,,,,0,,28-01-22,28-01-22,10:01:30,Mon Feb 28 2022 10:01:30 GMT+0100 (közép-európai téli idő),The main experiment item,yes,0,0,C:/Users/rrics/Documents/!!ResearchBMECOGSCI/gnet,0,0,0,prototype1.png,no,mono,no,18,no,black,no,no,768,1153,3.5.6,legacy,xpyriment,osweb,1.3.13,0,space,space,space,,34465,27521,34465,,2,legacy,824,1536,24,864,24,0,0,1536,1646038939446,1024,2,48000,-16,experiment,p3sarr1.png,1,odd,Win32,80,139392,136377,80,80,193415,194923,188413,140909,188413,80,,,,,,visual_patterns,0,0,0,yes,1366
undefined,undefined,undefined,undefined,white,no,Mozilla,Netscape,"5.0 (Windows NT 10.0; Win64; x64) AppleWebKit/537.36 (KHTML, like Gecko) Chrome/98.0.4758.102 Safari/537.36",xpyriment,legacy,legacy,0,uniform,0,0,0,0,24,24,24,0,0,3,3,3,3,3,0,3,0,,,,,,0,,28-01-22,28-01-22,10:01:30,Mon Feb 28 2022 10:01:30 GMT+0100 (közép-európai téli idő),The main experiment item,yes,0,0,C:/Users/rrics/Documents/!!ResearchBMECOGSCI/gnet,0,0,0,prototype1.png,no,mono,no,18,no,black,no,no,768,1153,3.5.6,legacy,xpyriment,osweb,1.3.13,0,space,space,space,,34465,27521,34465,,2,legacy,824,1536,24,864,24,0,0,1536,1646038939446,1024,2,48000,-16,experiment,p9sarr2.png,1,odd,Win32,80,139392,136377,80,80,199932,201437,194928,140909,194928,80,,,,,,visual_patterns,0,0,0,yes,1366
undefined,undefined,undefined,undefined,white,no,Mozilla,Netscape,"5.0 (Windows NT 10.0; Win64; x64) AppleWebKit/537.36 (KHTML, like Gecko) Chrome/98.0.4758.102 Safari/537.36",xpyriment,legacy,legacy,0,uniform,0,0,0,0,24,24,24,0,0,4,4,4,4,4,0,4,0,,,,,,0,,28-01-22,28-01-22,10:01:30,Mon Feb 28 2022 10:01:30 GMT+0100 (közép-európai téli idő),The main experiment item,yes,0,0,C:/Users/rrics/Documents/!!ResearchBMECOGSCI/gnet,0,0,0,prototype1.png,no,mono,no,18,no,black,no,no,768,1153,3.5.6,legacy,xpyriment,osweb,1.3.13,0,space,space,space,,34465,27521,34465,,2,legacy,824,1536,24,864,24,0,0,1536,1646038939446,1024,2,48000,-16,experiment,p4sarr2.png,1,odd,Win32,80,139392,136377,80,80,206450,207952,201449,140909,201449,80,,,,,,visual_patterns,0,0,0,yes,1366
undefined,undefined,undefined,undefined,white,no,Mozilla,Netscape,"5.0 (Windows NT 10.0; Win64; x64) AppleWebKit/537.36 (KHTML, like Gecko) Chrome/98.0.4758.102 Safari/537.36",xpyriment,legacy,legacy,0,uniform,0,0,0,0,24,24,24,0,0,5,5,5,5,5,0,5,0,,,,,,0,,28-01-22,28-01-22,10:01:30,Mon Feb 28 2022 10:01:30 GMT+0100 (közép-európai téli idő),The main experiment item,yes,0,0,C:/Users/rrics/Documents/!!ResearchBMECOGSCI/gnet,0,0,0,prototype1.png,no,mono,no,18,no,black,no,no,768,1153,3.5.6,legacy,xpyriment,osweb,1.3.13,0,space,space,space,,34465,27521,34465,,2,legacy,824,1536,24,864,24,0,0,1536,1646038939446,1024,2,48000,-16,experiment,p4sarrshacol2.png,1,odd,Win32,80,139392,136377,80,80,212956,214466,207957,140909,207957,80,,,,,,visual_patterns,0,0,0,yes,1366
undefined,undefined,undefined,undefined,white,no,Mozilla,Netscape,"5.0 (Windows NT 10.0; Win64; x64) AppleWebKit/537.36 (KHTML, like Gecko) Chrome/98.0.4758.102 Safari/537.36",xpyriment,legacy,legacy,0,uniform,0,0,0,0,24,24,24,0,0,6,6,6,6,6,0,6,0,,,,,,0,,28-01-22,28-01-22,10:01:30,Mon Feb 28 2022 10:01:30 GMT+0100 (közép-európai téli idő),The main experiment item,yes,0,0,C:/Users/rrics/Documents/!!ResearchBMECOGSCI/gnet,0,0,0,prototype1.png,no,mono,no,18,no,black,no,no,768,1153,3.5.6,legacy,xpyriment,osweb,1.3.13,0,space,space,space,,34465,27521,34465,,2,legacy,824,1536,24,864,24,0,0,1536,1646038939446,1024,2,48000,-16,experiment,p5sarrsha2.png,1,odd,Win32,80,139392,136377,80,80,219474,220980,214471,140909,214471,80,,,,,,visual_patterns,0,0,0,yes,1366
undefined,undefined,undefined,undefined,white,no,Mozilla,Netscape,"5.0 (Windows NT 10.0; Win64; x64) AppleWebKit/537.36 (KHTML, like Gecko) Chrome/98.0.4758.102 Safari/537.36",xpyriment,legacy,legacy,0,uniform,0,0,0,0,24,24,24,0,0,7,7,7,7,7,0,7,0,,,,,,0,,28-01-22,28-01-22,10:01:30,Mon Feb 28 2022 10:01:30 GMT+0100 (közép-európai téli idő),The main experiment item,yes,0,0,C:/Users/rrics/Documents/!!ResearchBMECOGSCI/gnet,0,0,0,prototype1.png,no,mono,no,18,no,black,no,no,768,1153,3.5.6,legacy,xpyriment,osweb,1.3.13,0,space,space,space,,34465,27521,34465,,2,legacy,824,1536,24,864,24,0,0,1536,1646038939446,1024,2,48000,-16,experiment,p2sarr1.png,1,odd,Win32,80,139392,136377,80,80,225989,227495,220985,140909,220985,80,,,,,,visual_patterns,0,0,0,yes,1366
undefined,undefined,undefined,undefined,white,no,Mozilla,Netscape,"5.0 (Windows NT 10.0; Win64; x64) AppleWebKit/537.36 (KHTML, like Gecko) Chrome/98.0.4758.102 Safari/537.36",xpyriment,legacy,legacy,0,uniform,0,0,0,0,24,24,24,0,0,8,8,8,8,8,0,8,0,,,,,,0,,28-01-22,28-01-22,10:01:30,Mon Feb 28 2022 10:01:30 GMT+0100 (közép-európai téli idő),The main experiment item,yes,0,0,C:/Users/rrics/Documents/!!ResearchBMECOGSCI/gnet,0,0,0,prototype1.png,no,mono,no,18,no,black,no,no,768,1153,3.5.6,legacy,xpyriment,osweb,1.3.13,0,space,space,space,,34465,27521,34465,,2,legacy,824,1536,24,864,24,0,0,1536,1646038939446,1024,2,48000,-16,experiment,prototype4.png,1,odd,Win32,80,139392,136377,80,80,232503,234009,227499,140909,227499,80,,,,,,visual_patterns,0,0,0,yes,1366
undefined,undefined,undefined,undefined,white,no,Mozilla,Netscape,"5.0 (Windows NT 10.0; Win64; x64) AppleWebKit/537.36 (KHTML, like Gecko) Chrome/98.0.4758.102 Safari/537.36",xpyriment,legacy,legacy,0,uniform,0,0,0,0,24,24,24,0,0,9,9,9,9,9,0,9,0,,,,,,0,,28-01-22,28-01-22,10:01:30,Mon Feb 28 2022 10:01:30 GMT+0100 (közép-európai téli idő),The main experiment item,yes,0,0,C:/Users/rrics/Documents/!!ResearchBMECOGSCI/gnet,0,0,0,prototype1.png,no,mono,no,18,no,black,no,no,768,1153,3.5.6,legacy,xpyriment,osweb,1.3.13,0,space,space,space,,34465,27521,34465,,2,legacy,824,1536,24,864,24,0,0,1536,1646038939446,1024,2,48000,-16,experiment,p5sarrsha1.png,1,odd,Win32,80,139392,136377,80,80,239016,240524,234014,140909,234014,80,,,,,,visual_patterns,0,0,0,yes,1366
undefined,undefined,undefined,undefined,white,no,Mozilla,Netscape,"5.0 (Windows NT 10.0; Win64; x64) AppleWebKit/537.36 (KHTML, like Gecko) Chrome/98.0.4758.102 Safari/537.36",xpyriment,legacy,legacy,0,uniform,0,0,0,0,24,24,24,0,0,10,10,10,10,10,0,10,0,,,,,,0,,28-01-22,28-01-22,10:01:30,Mon Feb 28 2022 10:01:30 GMT+0100 (közép-európai téli idő),The main experiment item,yes,0,0,C:/Users/rrics/Documents/!!ResearchBMECOGSCI/gnet,0,0,0,prototype1.png,no,mono,no,18,no,black,no,no,768,1153,3.5.6,legacy,xpyriment,osweb,1.3.13,0,space,space,space,,34465,27521,34465,,2,legacy,824,1536,24,864,24,0,0,1536,1646038939446,1024,2,48000,-16,experiment,p5sarrcol1.png,1,odd,Win32,80,139392,136377,80,80,245531,247038,240529,140909,240529,80,,,,,,visual_patterns,0,0,0,yes,1366
undefined,undefined,undefined,undefined,white,no,Mozilla,Netscape,"5.0 (Windows NT 10.0; Win64; x64) AppleWebKit/537.36 (KHTML, like Gecko) Chrome/98.0.4758.102 Safari/537.36",xpyriment,legacy,legacy,0,uniform,0,0,0,0,24,24,24,0,0,11,11,11,11,11,0,11,0,,,,,,0,,28-01-22,28-01-22,10:01:30,Mon Feb 28 2022 10:01:30 GMT+0100 (közép-európai téli idő),The main experiment item,yes,0,0,C:/Users/rrics/Documents/!!ResearchBMECOGSCI/gnet,0,0,0,prototype1.png,no,mono,no,18,no,black,no,no,768,1153,3.5.6,legacy,xpyriment,osweb,1.3.13,0,space,space,space,,34465,27521,34465,,2,legacy,824,1536,24,864,24,0,0,1536,1646038939446,1024,2,48000,-16,experiment,p8sarr2.png,1,odd,Win32,80,139392,136377,80,80,252046,253553,247043,140909,247043,80,,,,,,visual_patterns,0,0,0,yes,1366
undefined,undefined,undefined,undefined,white,no,Mozilla,Netscape,"5.0 (Windows NT 10.0; Win64; x64) AppleWebKit/537.36 (KHTML, like Gecko) Chrome/98.0.4758.102 Safari/537.36",xpyriment,legacy,legacy,0,uniform,0,0,0,0,24,24,24,0,0,12,12,12,12,12,0,12,0,,,,,,0,,28-01-22,28-01-22,10:01:30,Mon Feb 28 2022 10:01:30 GMT+0100 (közép-európai téli idő),The main experiment item,yes,0,0,C:/Users/rrics/Documents/!!ResearchBMECOGSCI/gnet,0,0,0,prototype1.png,no,mono,no,18,no,black,no,no,768,1153,3.5.6,legacy,xpyriment,osweb,1.3.13,0,space,space,space,,34465,27521,34465,,2,legacy,824,1536,24,864,24,0,0,1536,1646038939446,1024,2,48000,-16,experiment,p5sarrshacol2.png,1,odd,Win32,80,139392,136377,80,80,258564,260067,253558,140909,253558,80,,,,,,visual_patterns,0,0,0,yes,1366
undefined,undefined,undefined,undefined,white,no,Mozilla,Netscape,"5.0 (Windows NT 10.0; Win64; x64) AppleWebKit/537.36 (KHTML, like Gecko) Chrome/98.0.4758.102 Safari/537.36",xpyriment,legacy,legacy,0,uniform,0,0,0,0,24,24,24,0,0,13,13,13,13,13,0,13,0,,,,,,0,,28-01-22,28-01-22,10:01:30,Mon Feb 28 2022 10:01:30 GMT+0100 (közép-európai téli idő),The main experiment item,yes,0,0,C:/Users/rrics/Documents/!!ResearchBMECOGSCI/gnet,0,0,0,prototype1.png,no,mono,no,18,no,black,no,no,768,1153,3.5.6,legacy,xpyriment,osweb,1.3.13,0,space,space,space,,34465,27521,34465,,2,legacy,824,1536,24,864,24,0,0,1536,1646038939446,1024,2,48000,-16,experiment,p8sarr1.png,1,odd,Win32,80,139392,136377,80,80,265078,266582,260072,140909,260072,80,,,,,,visual_patterns,0,0,0,yes,1366
undefined,undefined,undefined,undefined,white,no,Mozilla,Netscape,"5.0 (Windows NT 10.0; Win64; x64) AppleWebKit/537.36 (KHTML, like Gecko) Chrome/98.0.4758.102 Safari/537.36",xpyriment,legacy,legacy,0,uniform,0,0,0,0,24,24,24,0,0,14,14,14,14,14,0,14,0,,,,,,0,,28-01-22,28-01-22,10:01:30,Mon Feb 28 2022 10:01:30 GMT+0100 (közép-európai téli idő),The main experiment item,yes,0,0,C:/Users/rrics/Documents/!!ResearchBMECOGSCI/gnet,0,0,0,prototype1.png,no,mono,no,18,no,black,no,no,768,1153,3.5.6,legacy,xpyriment,osweb,1.3.13,0,space,space,space,,34465,27521,34465,,2,legacy,824,1536,24,864,24,0,0,1536,1646038939446,1024,2,48000,-16,experiment,p3sarrcol1.png,1,odd,Win32,80,139392,136377,80,80,271590,273096,266586,140909,266586,80,,,,,,visual_patterns,0,0,0,yes,1366
undefined,undefined,undefined,undefined,white,no,Mozilla,Netscape,"5.0 (Windows NT 10.0; Win64; x64) AppleWebKit/537.36 (KHTML, like Gecko) Chrome/98.0.4758.102 Safari/537.36",xpyriment,legacy,legacy,0,uniform,0,0,0,0,24,24,24,0,0,15,15,15,15,15,0,15,0,,,,,,0,,28-01-22,28-01-22,10:01:30,Mon Feb 28 2022 10:01:30 GMT+0100 (közép-európai téli idő),The main experiment item,yes,0,0,C:/Users/rrics/Documents/!!ResearchBMECOGSCI/gnet,0,0,0,prototype1.png,no,mono,no,18,no,black,no,no,768,1153,3.5.6,legacy,xpyriment,osweb,1.3.13,0,space,space,space,,34465,27521,34465,,2,legacy,824,1536,24,864,24,0,0,1536,1646038939446,1024,2,48000,-16,experiment,prototype1.png,1,odd,Win32,80,139392,136377,80,80,278102,279611,273100,140909,273100,80,,,,,,visual_patterns,0,0,0,yes,1366
undefined,undefined,undefined,undefined,white,no,Mozilla,Netscape,"5.0 (Windows NT 10.0; Win64; x64) AppleWebKit/537.36 (KHTML, like Gecko) Chrome/98.0.4758.102 Safari/537.36",xpyriment,legacy,legacy,0,uniform,0,0,0,0,24,24,24,0,0,16,16,16,16,16,0,16,0,,,,,,0,,28-01-22,28-01-22,10:01:30,Mon Feb 28 2022 10:01:30 GMT+0100 (közép-európai téli idő),The main experiment item,yes,0,0,C:/Users/rrics/Documents/!!ResearchBMECOGSCI/gnet,0,0,0,prototype1.png,no,mono,no,18,no,black,no,no,768,1153,3.5.6,legacy,xpyriment,osweb,1.3.13,0,space,space,space,,34465,27521,34465,,2,legacy,824,1536,24,864,24,0,0,1536,1646038939446,1024,2,48000,-16,experiment,p2sarr2.png,1,odd,Win32,80,139392,136377,80,80,284618,286125,279616,140909,279616,80,,,,,,visual_patterns,0,0,0,yes,1366
undefined,undefined,undefined,undefined,white,no,Mozilla,Netscape,"5.0 (Windows NT 10.0; Win64; x64) AppleWebKit/537.36 (KHTML, like Gecko) Chrome/98.0.4758.102 Safari/537.36",xpyriment,legacy,legacy,0,uniform,0,0,0,0,24,24,24,0,0,17,17,17,17,17,0,17,0,,,,,,0,,28-01-22,28-01-22,10:01:30,Mon Feb 28 2022 10:01:30 GMT+0100 (közép-európai téli idő),The main experiment item,yes,0,0,C:/Users/rrics/Documents/!!ResearchBMECOGSCI/gnet,0,0,0,prototype1.png,no,mono,no,18,no,black,no,no,768,1153,3.5.6,legacy,xpyriment,osweb,1.3.13,0,space,space,space,,34465,27521,34465,,2,legacy,824,1536,24,864,24,0,0,1536,1646038939446,1024,2,48000,-16,experiment,p3sarrsha2.png,1,odd,Win32,80,139392,136377,80,80,291133,292639,286129,140909,286129,80,,,,,,visual_patterns,0,0,0,yes,1366
undefined,undefined,undefined,undefined,white,no,Mozilla,Netscape,"5.0 (Windows NT 10.0; Win64; x64) AppleWebKit/537.36 (KHTML, like Gecko) Chrome/98.0.4758.102 Safari/537.36",xpyriment,legacy,legacy,0,uniform,0,0,0,0,24,24,24,0,0,18,18,18,18,18,0,18,0,,,,,,0,,28-01-22,28-01-22,10:01:30,Mon Feb 28 2022 10:01:30 GMT+0100 (közép-európai téli idő),The main experiment item,yes,0,0,C:/Users/rrics/Documents/!!ResearchBMECOGSCI/gnet,0,0,0,prototype1.png,no,mono,no,18,no,black,no,no,768,1153,3.5.6,legacy,xpyriment,osweb,1.3.13,0,space,space,space,,34465,27521,34465,,2,legacy,824,1536,24,864,24,0,0,1536,1646038939446,1024,2,48000,-16,experiment,prototype4.png,1,odd,Win32,80,139392,136377,80,80,297648,299154,292643,140909,292643,80,,,,,,visual_patterns,0,0,0,yes,1366
undefined,undefined,undefined,undefined,white,no,Mozilla,Netscape,"5.0 (Windows NT 10.0; Win64; x64) AppleWebKit/537.36 (KHTML, like Gecko) Chrome/98.0.4758.102 Safari/537.36",xpyriment,legacy,legacy,0,uniform,0,0,0,0,24,24,24,0,0,19,19,19,19,19,0,19,0,,,,,,0,,28-01-22,28-01-22,10:01:30,Mon Feb 28 2022 10:01:30 GMT+0100 (közép-európai téli idő),The main experiment item,yes,0,0,C:/Users/rrics/Documents/!!ResearchBMECOGSCI/gnet,0,0,0,prototype1.png,no,mono,no,18,no,black,no,no,768,1153,3.5.6,legacy,xpyriment,osweb,1.3.13,0,space,space,space,,34465,27521,34465,,2,legacy,824,1536,24,864,24,0,0,1536,1646038939446,1024,2,48000,-16,experiment,p3sarrsha1.png,1,odd,Win32,80,139392,136377,80,80,304169,305685,299166,140909,299165,80,,,,,,visual_patterns,0,0,0,yes,1366
undefined,undefined,undefined,undefined,white,no,Mozilla,Netscape,"5.0 (Windows NT 10.0; Win64; x64) AppleWebKit/537.36 (KHTML, like Gecko) Chrome/98.0.4758.102 Safari/537.36",xpyriment,legacy,legacy,0,uniform,0,0,0,0,24,24,24,0,0,20,20,20,20,20,0,20,0,,,,,,0,,28-01-22,28-01-22,10:01:30,Mon Feb 28 2022 10:01:30 GMT+0100 (közép-európai téli idő),The main experiment item,yes,0,0,C:/Users/rrics/Documents/!!ResearchBMECOGSCI/gnet,0,0,0,prototype1.png,no,mono,no,18,no,black,no,no,768,1153,3.5.6,legacy,xpyriment,osweb,1.3.13,0,space,space,space,,34465,27521,34465,,2,legacy,824,1536,24,864,24,0,0,1536,1646038939446,1024,2,48000,-16,experiment,prototype2.png,1,odd,Win32,80,139392,136377,80,80,310693,312199,305689,140909,305689,80,,,,,,visual_patterns,0,0,0,yes,1366
undefined,undefined,undefined,undefined,white,no,Mozilla,Netscape,"5.0 (Windows NT 10.0; Win64; x64) AppleWebKit/537.36 (KHTML, like Gecko) Chrome/98.0.4758.102 Safari/537.36",xpyriment,legacy,legacy,0,uniform,0,0,0,0,24,24,24,0,0,21,21,21,21,21,0,21,0,,,,,,0,,28-01-22,28-01-22,10:01:30,Mon Feb 28 2022 10:01:30 GMT+0100 (közép-európai téli idő),The main experiment item,yes,0,0,C:/Users/rrics/Documents/!!ResearchBMECOGSCI/gnet,0,0,0,prototype1.png,no,mono,no,18,no,black,no,no,768,1153,3.5.6,legacy,xpyriment,osweb,1.3.13,0,space,space,space,,34465,27521,34465,,2,legacy,824,1536,24,864,24,0,0,1536,1646038939446,1024,2,48000,-16,experiment,p4sarrcol2.png,1,odd,Win32,80,139392,136377,80,80,317203,318714,312204,140909,312204,80,,,,,,visual_patterns,0,0,0,yes,1366
undefined,undefined,undefined,undefined,white,no,Mozilla,Netscape,"5.0 (Windows NT 10.0; Win64; x64) AppleWebKit/537.36 (KHTML, like Gecko) Chrome/98.0.4758.102 Safari/537.36",xpyriment,legacy,legacy,0,uniform,0,0,0,0,24,24,24,0,0,22,22,22,22,22,0,22,0,,,,,,0,,28-01-22,28-01-22,10:01:30,Mon Feb 28 2022 10:01:30 GMT+0100 (közép-európai téli idő),The main experiment item,yes,0,0,C:/Users/rrics/Documents/!!ResearchBMECOGSCI/gnet,0,0,0,prototype1.png,no,mono,no,18,no,black,no,no,768,1153,3.5.6,legacy,xpyriment,osweb,1.3.13,0,space,space,space,,34465,27521,34465,,2,legacy,824,1536,24,864,24,0,0,1536,1646038939446,1024,2,48000,-16,experiment,p5sarrshacol1.png,1,odd,Win32,80,139392,136377,80,80,323720,325228,318718,140909,318718,80,,,,,,visual_patterns,0,0,0,yes,1366
undefined,undefined,undefined,undefined,white,no,Mozilla,Netscape,"5.0 (Windows NT 10.0; Win64; x64) AppleWebKit/537.36 (KHTML, like Gecko) Chrome/98.0.4758.102 Safari/537.36",xpyriment,legacy,legacy,0,uniform,0,0,0,0,24,24,24,0,0,23,23,23,23,23,0,23,0,,,,,,0,,28-01-22,28-01-22,10:01:30,Mon Feb 28 2022 10:01:30 GMT+0100 (közép-európai téli idő),The main experiment item,yes,0,0,C:/Users/rrics/Documents/!!ResearchBMECOGSCI/gnet,0,0,0,prototype1.png,no,mono,no,18,no,black,no,no,768,1153,3.5.6,legacy,xpyriment,osweb,1.3.13,0,space,space,space,,34465,27521,34465,,2,legacy,824,1536,24,864,24,0,0,1536,1646038939446,1024,2,48000,-16,experiment,prototype2.png,1,odd,Win32,80,139392,136377,80,80,330233,331743,325232,140909,325232,80,,,,,,visual_patterns,0,0,0,yes,1366
undefined,undefined,undefined,undefined,white,no,Mozilla,Netscape,"5.0 (Windows NT 10.0; Win64; x64) AppleWebKit/537.36 (KHTML, like Gecko) Chrome/98.0.4758.102 Safari/537.36",xpyriment,legacy,legacy,0,uniform,0,0,0,0,24,24,24,0,0,24,24,24,24,24,0,24,0,,,,,,0,,28-01-22,28-01-22,10:01:30,Mon Feb 28 2022 10:01:30 GMT+0100 (közép-európai téli idő),The main experiment item,yes,0,0,C:/Users/rrics/Documents/!!ResearchBMECOGSCI/gnet,0,0,0,prototype1.png,no,mono,no,18,no,black,no,no,768,1153,3.5.6,legacy,xpyriment,osweb,1.3.13,0,space,space,space,,34465,27521,34465,,2,legacy,824,1536,24,864,24,0,0,1536,1646038939446,1024,2,48000,-16,experiment,p4sarrsha2.png,1,odd,Win32,80,139392,136377,80,80,336758,338274,331754,140909,331754,80,,,,,,visual_patterns,0,0,0,yes,1366
undefined,undefined,undefined,undefined,white,no,Mozilla,Netscape,"5.0 (Windows NT 10.0; Win64; x64) AppleWebKit/537.36 (KHTML, like Gecko) Chrome/98.0.4758.102 Safari/537.36",xpyriment,legacy,legacy,0,uniform,0,0,0,0,24,24,24,0,0,25,25,25,25,25,0,25,0,,,,,,0,,28-01-22,28-01-22,10:01:30,Mon Feb 28 2022 10:01:30 GMT+0100 (közép-európai téli idő),The main experiment item,yes,0,0,C:/Users/rrics/Documents/!!ResearchBMECOGSCI/gnet,0,0,0,prototype1.png,no,mono,no,18,no,black,no,no,768,1153,3.5.6,legacy,xpyriment,osweb,1.3.13,0,space,space,space,,34465,27521,34465,,2,legacy,824,1536,24,864,24,0,0,1536,1646038939446,1024,2,48000,-16,experiment,p9sarr1.png,1,odd,Win32,80,139392,136377,80,80,343280,344788,338278,140909,338278,80,,,,,,visual_patterns,0,0,0,yes,1366
undefined,undefined,undefined,undefined,white,no,Mozilla,Netscape,"5.0 (Windows NT 10.0; Win64; x64) AppleWebKit/537.36 (KHTML, like Gecko) Chrome/98.0.4758.102 Safari/537.36",xpyriment,legacy,legacy,0,uniform,0,0,0,0,24,24,24,0,0,26,26,26,26,26,0,26,0,,,,,,0,,28-01-22,28-01-22,10:01:30,Mon Feb 28 2022 10:01:30 GMT+0100 (közép-európai téli idő),The main experiment item,yes,0,0,C:/Users/rrics/Documents/!!ResearchBMECOGSCI/gnet,0,0,0,prototype1.png,no,mono,no,18,no,black,no,no,768,1153,3.5.6,legacy,xpyriment,osweb,1.3.13,0,space,space,space,,34465,27521,34465,,2,legacy,824,1536,24,864,24,0,0,1536,1646038939446,1024,2,48000,-16,experiment,prototype1.png,1,odd,Win32,80,139392,136377,80,80,349799,351303,344792,140909,344792,80,,,,,,visual_patterns,0,0,0,yes,1366
undefined,undefined,undefined,undefined,white,no,Mozilla,Netscape,"5.0 (Windows NT 10.0; Win64; x64) AppleWebKit/537.36 (KHTML, like Gecko) Chrome/98.0.4758.102 Safari/537.36",xpyriment,legacy,legacy,0,uniform,0,0,0,0,24,24,24,0,0,27,27,27,27,27,0,27,0,,,,,,0,,28-01-22,28-01-22,10:01:30,Mon Feb 28 2022 10:01:30 GMT+0100 (közép-európai téli idő),The main experiment item,yes,0,0,C:/Users/rrics/Documents/!!ResearchBMECOGSCI/gnet,0,0,0,prototype1.png,no,mono,no,18,no,black,no,no,768,1153,3.5.6,legacy,xpyriment,osweb,1.3.13,0,space,space,space,,34465,27521,34465,,2,legacy,824,1536,24,864,24,0,0,1536,1646038939446,1024,2,48000,-16,experiment,p4sarrcol1.png,1,odd,Win32,80,139392,136377,80,80,356310,357817,351308,140909,351308,80,,,,,,visual_patterns,0,0,0,yes,1366
undefined,undefined,undefined,undefined,white,no,Mozilla,Netscape,"5.0 (Windows NT 10.0; Win64; x64) AppleWebKit/537.36 (KHTML, like Gecko) Chrome/98.0.4758.102 Safari/537.36",xpyriment,legacy,legacy,0,uniform,0,0,0,0,24,24,24,0,0,28,28,28,28,28,0,28,0,,,,,,0,,28-01-22,28-01-22,10:01:30,Mon Feb 28 2022 10:01:30 GMT+0100 (közép-európai téli idő),The main experiment item,yes,0,0,C:/Users/rrics/Documents/!!ResearchBMECOGSCI/gnet,0,0,0,prototype1.png,no,mono,no,18,no,black,no,no,768,1153,3.5.6,legacy,xpyriment,osweb,1.3.13,0,space,space,space,,34465,27521,34465,,2,legacy,824,1536,24,864,24,0,0,1536,1646038939446,1024,2,48000,-16,experiment,prototype4.png,1,odd,Win32,80,139392,136377,80,80,362828,364332,357821,140909,357821,80,,,,,,visual_patterns,0,0,0,yes,1366
undefined,undefined,undefined,undefined,white,no,Mozilla,Netscape,"5.0 (Windows NT 10.0; Win64; x64) AppleWebKit/537.36 (KHTML, like Gecko) Chrome/98.0.4758.102 Safari/537.36",xpyriment,legacy,legacy,0,uniform,0,0,0,0,24,24,24,0,0,29,29,29,29,29,0,29,0,,,,,,0,,28-01-22,28-01-22,10:01:30,Mon Feb 28 2022 10:01:30 GMT+0100 (közép-európai téli idő),The main experiment item,yes,0,0,C:/Users/rrics/Documents/!!ResearchBMECOGSCI/gnet,0,0,0,prototype1.png,no,mono,no,18,no,black,no,no,768,1153,3.5.6,legacy,xpyriment,osweb,1.3.13,0,space,space,space,,34465,27521,34465,,2,legacy,824,1536,24,864,24,0,0,1536,1646038939446,1024,2,48000,-16,experiment,prototype5.png,1,odd,Win32,80,139392,136377,80,80,369341,370846,364335,140909,364335,80,,,,,,visual_patterns,0,0,0,yes,1366
undefined,undefined,undefined,undefined,white,no,Mozilla,Netscape,"5.0 (Windows NT 10.0; Win64; x64) AppleWebKit/537.36 (KHTML, like Gecko) Chrome/98.0.4758.102 Safari/537.36",xpyriment,legacy,legacy,0,uniform,0,0,0,0,24,24,24,0,0,30,30,30,30,30,0,30,0,,,,,,0,,28-01-22,28-01-22,10:01:30,Mon Feb 28 2022 10:01:30 GMT+0100 (közép-európai téli idő),The main experiment item,yes,0,0,C:/Users/rrics/Documents/!!ResearchBMECOGSCI/gnet,0,0,0,prototype1.png,no,mono,no,18,no,black,no,no,768,1153,3.5.6,legacy,xpyriment,osweb,1.3.13,0,space,space,space,,34465,27521,34465,,2,legacy,824,1536,24,864,24,0,0,1536,1646038939446,1024,2,48000,-16,experiment,p5sarrcol2.png,1,odd,Win32,80,139392,136377,80,80,375853,377361,370851,140909,370851,80,,,,,,visual_patterns,0,0,0,yes,1366
undefined,undefined,undefined,undefined,white,no,Mozilla,Netscape,"5.0 (Windows NT 10.0; Win64; x64) AppleWebKit/537.36 (KHTML, like Gecko) Chrome/98.0.4758.102 Safari/537.36",xpyriment,legacy,legacy,0,uniform,0,0,0,0,24,24,24,0,0,31,31,31,31,31,0,31,0,,,,,,0,,28-01-22,28-01-22,10:01:30,Mon Feb 28 2022 10:01:30 GMT+0100 (közép-európai téli idő),The main experiment item,yes,0,0,C:/Users/rrics/Documents/!!ResearchBMECOGSCI/gnet,0,0,0,prototype1.png,no,mono,no,18,no,black,no,no,768,1153,3.5.6,legacy,xpyriment,osweb,1.3.13,0,space,space,space,,34465,27521,34465,,2,legacy,824,1536,24,864,24,0,0,1536,1646038939446,1024,2,48000,-16,experiment,p2sarrsha2.png,1,odd,Win32,80,139392,136377,80,80,382365,383875,377365,140909,377365,80,,,,,,visual_patterns,0,0,0,yes,1366
undefined,undefined,undefined,undefined,white,no,Mozilla,Netscape,"5.0 (Windows NT 10.0; Win64; x64) AppleWebKit/537.36 (KHTML, like Gecko) Chrome/98.0.4758.102 Safari/537.36",xpyriment,legacy,legacy,0,uniform,0,0,0,0,24,24,24,0,0,32,32,32,32,32,0,32,0,,,,,,0,,28-01-22,28-01-22,10:01:30,Mon Feb 28 2022 10:01:30 GMT+0100 (közép-európai téli idő),The main experiment item,yes,0,0,C:/Users/rrics/Documents/!!ResearchBMECOGSCI/gnet,0,0,0,prototype1.png,no,mono,no,18,no,black,no,no,768,1153,3.5.6,legacy,xpyriment,osweb,1.3.13,0,space,space,space,,34465,27521,34465,,2,legacy,824,1536,24,864,24,0,0,1536,1646038939446,1024,2,48000,-16,experiment,p5sarr1.png,1,odd,Win32,80,139392,136377,80,80,388881,390389,383879,140909,383879,80,,,,,,visual_patterns,0,0,0,yes,1366
undefined,undefined,undefined,undefined,white,no,Mozilla,Netscape,"5.0 (Windows NT 10.0; Win64; x64) AppleWebKit/537.36 (KHTML, like Gecko) Chrome/98.0.4758.102 Safari/537.36",xpyriment,legacy,legacy,0,uniform,0,0,0,0,24,24,24,0,0,33,33,33,33,33,0,33,0,,,,,,0,,28-01-22,28-01-22,10:01:30,Mon Feb 28 2022 10:01:30 GMT+0100 (közép-európai téli idő),The main experiment item,yes,0,0,C:/Users/rrics/Documents/!!ResearchBMECOGSCI/gnet,0,0,0,prototype1.png,no,mono,no,18,no,black,no,no,768,1153,3.5.6,legacy,xpyriment,osweb,1.3.13,0,space,space,space,,34465,27521,34465,,2,legacy,824,1536,24,864,24,0,0,1536,1646038939446,1024,2,48000,-16,experiment,p3sarrshacol1.png,1,odd,Win32,80,139392,136377,80,80,395395,396904,390394,140909,390394,80,,,,,,visual_patterns,0,0,0,yes,1366
undefined,undefined,undefined,undefined,white,no,Mozilla,Netscape,"5.0 (Windows NT 10.0; Win64; x64) AppleWebKit/537.36 (KHTML, like Gecko) Chrome/98.0.4758.102 Safari/537.36",xpyriment,legacy,legacy,0,uniform,0,0,0,0,24,24,24,0,0,34,34,34,34,34,0,34,0,,,,,,0,,28-01-22,28-01-22,10:01:30,Mon Feb 28 2022 10:01:30 GMT+0100 (közép-európai téli idő),The main experiment item,yes,0,0,C:/Users/rrics/Documents/!!ResearchBMECOGSCI/gnet,0,0,0,prototype1.png,no,mono,no,18,no,black,no,no,768,1153,3.5.6,legacy,xpyriment,osweb,1.3.13,0,space,space,space,,34465,27521,34465,,2,legacy,824,1536,24,864,24,0,0,1536,1646038939446,1024,2,48000,-16,experiment,prototype1.png,1,odd,Win32,80,139392,136377,80,80,401919,403435,396915,140909,396915,80,,,,,,visual_patterns,0,0,0,yes,1366
undefined,undefined,undefined,undefined,white,no,Mozilla,Netscape,"5.0 (Windows NT 10.0; Win64; x64) AppleWebKit/537.36 (KHTML, like Gecko) Chrome/98.0.4758.102 Safari/537.36",xpyriment,legacy,legacy,0,uniform,0,0,0,0,24,24,24,0,0,35,35,35,35,35,0,35,0,,,,,,0,,28-01-22,28-01-22,10:01:30,Mon Feb 28 2022 10:01:30 GMT+0100 (közép-európai téli idő),The main experiment item,yes,0,0,C:/Users/rrics/Documents/!!ResearchBMECOGSCI/gnet,0,0,0,prototype1.png,no,mono,no,18,no,black,no,no,768,1153,3.5.6,legacy,xpyriment,osweb,1.3.13,0,space,space,space,,34465,27521,34465,,2,legacy,824,1536,24,864,24,0,0,1536,1646038939446,1024,2,48000,-16,experiment,p4sarrshacol1.png,1,odd,Win32,80,139392,136377,80,80,408446,409949,403440,140909,403440,80,,,,,,visual_patterns,0,0,0,yes,1366
undefined,undefined,undefined,undefined,white,no,Mozilla,Netscape,"5.0 (Windows NT 10.0; Win64; x64) AppleWebKit/537.36 (KHTML, like Gecko) Chrome/98.0.4758.102 Safari/537.36",xpyriment,legacy,legacy,0,uniform,0,0,0,0,24,24,24,0,0,36,36,36,36,36,0,36,0,,,,,,0,,28-01-22,28-01-22,10:01:30,Mon Feb 28 2022 10:01:30 GMT+0100 (közép-európai téli idő),The main experiment item,yes,0,0,C:/Users/rrics/Documents/!!ResearchBMECOGSCI/gnet,0,0,0,prototype1.png,no,mono,no,18,no,black,no,no,768,1153,3.5.6,legacy,xpyriment,osweb,1.3.13,0,space,space,space,,34465,27521,34465,,2,legacy,824,1536,24,864,24,0,0,1536,1646038939446,1024,2,48000,-16,experiment,prototype3.png,1,odd,Win32,80,139392,136377,80,80,414958,416464,409953,140909,409953,80,,,,,,visual_patterns,0,0,0,yes,1366
undefined,undefined,undefined,undefined,white,no,Mozilla,Netscape,"5.0 (Windows NT 10.0; Win64; x64) AppleWebKit/537.36 (KHTML, like Gecko) Chrome/98.0.4758.102 Safari/537.36",xpyriment,legacy,legacy,0,uniform,0,0,0,0,24,24,24,0,0,37,37,37,37,37,0,37,0,,,,,,0,,28-01-22,28-01-22,10:01:30,Mon Feb 28 2022 10:01:30 GMT+0100 (közép-európai téli idő),The main experiment item,yes,0,0,C:/Users/rrics/Documents/!!ResearchBMECOGSCI/gnet,0,0,0,prototype1.png,no,mono,no,18,no,black,no,no,768,1153,3.5.6,legacy,xpyriment,osweb,1.3.13,0,space,space,space,,34465,27521,34465,,2,legacy,824,1536,24,864,24,0,0,1536,1646038939446,1024,2,48000,-16,experiment,prototype3.png,1,odd,Win32,80,139392,136377,80,80,421470,422978,416467,140909,416467,80,,,,,,visual_patterns,0,0,0,yes,1366
undefined,undefined,undefined,undefined,white,no,Mozilla,Netscape,"5.0 (Windows NT 10.0; Win64; x64) AppleWebKit/537.36 (KHTML, like Gecko) Chrome/98.0.4758.102 Safari/537.36",xpyriment,legacy,legacy,0,uniform,0,0,0,0,24,24,24,0,0,38,38,38,38,38,0,38,0,,,,,,0,,28-01-22,28-01-22,10:01:30,Mon Feb 28 2022 10:01:30 GMT+0100 (közép-európai téli idő),The main experiment item,yes,0,0,C:/Users/rrics/Documents/!!ResearchBMECOGSCI/gnet,0,0,0,prototype1.png,no,mono,no,18,no,black,no,no,768,1153,3.5.6,legacy,xpyriment,osweb,1.3.13,0,space,space,space,,34465,27521,34465,,2,legacy,824,1536,24,864,24,0,0,1536,1646038939446,1024,2,48000,-16,experiment,p7sarr1.png,1,odd,Win32,80,139392,136377,80,80,427982,429493,422984,140909,422984,80,,,,,,visual_patterns,0,0,0,yes,1366
undefined,undefined,undefined,undefined,white,no,Mozilla,Netscape,"5.0 (Windows NT 10.0; Win64; x64) AppleWebKit/537.36 (KHTML, like Gecko) Chrome/98.0.4758.102 Safari/537.36",xpyriment,legacy,legacy,0,uniform,0,0,0,0,24,24,24,0,0,39,39,39,39,39,0,39,0,,,,,,0,,28-01-22,28-01-22,10:01:30,Mon Feb 28 2022 10:01:30 GMT+0100 (közép-európai téli idő),The main experiment item,yes,0,0,C:/Users/rrics/Documents/!!ResearchBMECOGSCI/gnet,0,0,0,prototype1.png,no,mono,no,18,no,black,no,no,768,1153,3.5.6,legacy,xpyriment,osweb,1.3.13,0,space,space,space,,34465,27521,34465,,2,legacy,824,1536,24,864,24,0,0,1536,1646038939446,1024,2,48000,-16,experiment,p1sarrsha1.png,1,odd,Win32,80,139392,136377,80,80,434508,436024,429504,140909,429504,80,,,,,,visual_patterns,0,0,0,yes,1366
undefined,undefined,undefined,undefined,white,no,Mozilla,Netscape,"5.0 (Windows NT 10.0; Win64; x64) AppleWebKit/537.36 (KHTML, like Gecko) Chrome/98.0.4758.102 Safari/537.36",xpyriment,legacy,legacy,0,uniform,0,0,0,0,24,24,24,0,0,40,40,40,40,40,0,40,0,,,,,,0,,28-01-22,28-01-22,10:01:30,Mon Feb 28 2022 10:01:30 GMT+0100 (közép-európai téli idő),The main experiment item,yes,0,0,C:/Users/rrics/Documents/!!ResearchBMECOGSCI/gnet,0,0,0,prototype1.png,no,mono,no,18,no,black,no,no,768,1153,3.5.6,legacy,xpyriment,osweb,1.3.13,0,space,space,space,,34465,27521,34465,,2,legacy,824,1536,24,864,24,0,0,1536,1646038939446,1024,2,48000,-16,experiment,prototype5.png,1,odd,Win32,80,139392,136377,80,80,441028,442538,436028,140909,436028,80,,,,,,visual_patterns,0,0,0,yes,1366
undefined,undefined,undefined,undefined,white,no,Mozilla,Netscape,"5.0 (Windows NT 10.0; Win64; x64) AppleWebKit/537.36 (KHTML, like Gecko) Chrome/98.0.4758.102 Safari/537.36",xpyriment,legacy,legacy,0,uniform,0,0,0,0,24,24,24,0,0,41,41,41,41,41,0,41,0,,,,,,0,,28-01-22,28-01-22,10:01:30,Mon Feb 28 2022 10:01:30 GMT+0100 (közép-európai téli idő),The main experiment item,yes,0,0,C:/Users/rrics/Documents/!!ResearchBMECOGSCI/gnet,0,0,0,prototype1.png,no,mono,no,18,no,black,no,no,768,1153,3.5.6,legacy,xpyriment,osweb,1.3.13,0,space,space,space,,34465,27521,34465,,2,legacy,824,1536,24,864,24,0,0,1536,1646038939446,1024,2,48000,-16,experiment,p3sarrshacol2.png,1,odd,Win32,80,139392,136377,80,80,447545,449053,442543,140909,442543,80,,,,,,visual_patterns,0,0,0,yes,1366
undefined,undefined,undefined,undefined,white,no,Mozilla,Netscape,"5.0 (Windows NT 10.0; Win64; x64) AppleWebKit/537.36 (KHTML, like Gecko) Chrome/98.0.4758.102 Safari/537.36",xpyriment,legacy,legacy,0,uniform,0,0,0,0,24,24,24,0,0,42,42,42,42,42,0,42,0,,,,,,0,,28-01-22,28-01-22,10:01:30,Mon Feb 28 2022 10:01:30 GMT+0100 (közép-európai téli idő),The main experiment item,yes,0,0,C:/Users/rrics/Documents/!!ResearchBMECOGSCI/gnet,0,0,0,prototype1.png,no,mono,no,18,no,black,no,no,768,1153,3.5.6,legacy,xpyriment,osweb,1.3.13,0,space,space,space,,34465,27521,34465,,2,legacy,824,1536,24,864,24,0,0,1536,1646038939446,1024,2,48000,-16,experiment,p3sarrcol2.png,1,odd,Win32,80,139392,136377,80,80,454060,455567,449057,140909,449057,80,,,,,,visual_patterns,0,0,0,yes,1366
undefined,undefined,undefined,undefined,white,no,Mozilla,Netscape,"5.0 (Windows NT 10.0; Win64; x64) AppleWebKit/537.36 (KHTML, like Gecko) Chrome/98.0.4758.102 Safari/537.36",xpyriment,legacy,legacy,0,uniform,0,0,0,0,24,24,24,0,0,43,43,43,43,43,0,43,0,,,,,,0,,28-01-22,28-01-22,10:01:30,Mon Feb 28 2022 10:01:30 GMT+0100 (közép-európai téli idő),The main experiment item,yes,0,0,C:/Users/rrics/Documents/!!ResearchBMECOGSCI/gnet,0,0,0,prototype1.png,no,mono,no,18,no,black,no,no,768,1153,3.5.6,legacy,xpyriment,osweb,1.3.13,0,space,space,space,,34465,27521,34465,,2,legacy,824,1536,24,864,24,0,0,1536,1646038939446,1024,2,48000,-16,experiment,p3sarr2.png,1,odd,Win32,80,139392,136377,80,80,460572,462082,455572,140909,455572,80,,,,,,visual_patterns,0,0,0,yes,1366
undefined,undefined,undefined,undefined,white,no,Mozilla,Netscape,"5.0 (Windows NT 10.0; Win64; x64) AppleWebKit/537.36 (KHTML, like Gecko) Chrome/98.0.4758.102 Safari/537.36",xpyriment,legacy,legacy,0,uniform,0,0,0,0,24,24,24,0,0,44,44,44,44,44,0,44,0,,,,,,0,,28-01-22,28-01-22,10:01:30,Mon Feb 28 2022 10:01:30 GMT+0100 (közép-európai téli idő),The main experiment item,yes,0,0,C:/Users/rrics/Documents/!!ResearchBMECOGSCI/gnet,0,0,0,prototype1.png,no,mono,no,18,no,black,no,no,768,1153,3.5.6,legacy,xpyriment,osweb,1.3.13,0,space,space,space,,34465,27521,34465,,2,legacy,824,1536,24,864,24,0,0,1536,1646038939446,1024,2,48000,-16,experiment,p2sarrsha1.png,1,odd,Win32,80,139392,136377,80,80,467097,468613,462093,140909,462093,80,,,,,,visual_patterns,0,0,0,yes,1366
undefined,undefined,undefined,undefined,white,no,Mozilla,Netscape,"5.0 (Windows NT 10.0; Win64; x64) AppleWebKit/537.36 (KHTML, like Gecko) Chrome/98.0.4758.102 Safari/537.36",xpyriment,legacy,legacy,0,uniform,0,0,0,0,24,24,24,0,0,45,45,45,45,45,0,45,0,,,,,,0,,28-01-22,28-01-22,10:01:30,Mon Feb 28 2022 10:01:30 GMT+0100 (közép-európai téli idő),The main experiment item,yes,0,0,C:/Users/rrics/Documents/!!ResearchBMECOGSCI/gnet,0,0,0,prototype1.png,no,mono,no,18,no,black,no,no,768,1153,3.5.6,legacy,xpyriment,osweb,1.3.13,0,space,space,space,,34465,27521,34465,,2,legacy,824,1536,24,864,24,0,0,1536,1646038939446,1024,2,48000,-16,experiment,p4sarrsha1.png,1,odd,Win32,80,139392,136377,80,80,473621,475127,468617,140909,468617,80,,,,,,visual_patterns,0,0,0,yes,1366
undefined,undefined,undefined,undefined,white,no,Mozilla,Netscape,"5.0 (Windows NT 10.0; Win64; x64) AppleWebKit/537.36 (KHTML, like Gecko) Chrome/98.0.4758.102 Safari/537.36",xpyriment,legacy,legacy,0,uniform,0,0,0,0,24,24,24,0,0,46,46,46,46,46,0,46,0,,,,,,0,,28-01-22,28-01-22,10:01:30,Mon Feb 28 2022 10:01:30 GMT+0100 (közép-európai téli idő),The main experiment item,yes,0,0,C:/Users/rrics/Documents/!!ResearchBMECOGSCI/gnet,0,0,0,prototype1.png,no,mono,no,18,no,black,no,no,768,1153,3.5.6,legacy,xpyriment,osweb,1.3.13,0,space,space,space,,34465,27521,34465,,2,legacy,824,1536,24,864,24,0,0,1536,1646038939446,1024,2,48000,-16,experiment,p1sarrcol1.png,1,odd,Win32,80,139392,136377,80,80,480135,481642,475132,140909,475132,80,,,,,,visual_patterns,0,0,0,yes,1366
undefined,undefined,undefined,undefined,white,no,Mozilla,Netscape,"5.0 (Windows NT 10.0; Win64; x64) AppleWebKit/537.36 (KHTML, like Gecko) Chrome/98.0.4758.102 Safari/537.36",xpyriment,legacy,legacy,0,uniform,0,0,0,0,24,24,24,0,0,47,47,47,47,47,0,47,0,,,,,,0,,28-01-22,28-01-22,10:01:30,Mon Feb 28 2022 10:01:30 GMT+0100 (közép-európai téli idő),The main experiment item,yes,0,0,C:/Users/rrics/Documents/!!ResearchBMECOGSCI/gnet,0,0,0,prototype1.png,no,mono,no,18,no,black,no,no,768,1153,3.5.6,legacy,xpyriment,osweb,1.3.13,0,space,space,space,,34465,27521,34465,,2,legacy,824,1536,24,864,24,0,0,1536,1646038939446,1024,2,48000,-16,experiment,p1sarrsha2.png,1,odd,Win32,80,139392,136377,80,80,486650,488156,481647,140909,481647,80,,,,,,visual_patterns,0,0,0,yes,1366
undefined,undefined,undefined,undefined,white,no,Mozilla,Netscape,"5.0 (Windows NT 10.0; Win64; x64) AppleWebKit/537.36 (KHTML, like Gecko) Chrome/98.0.4758.102 Safari/537.36",xpyriment,legacy,legacy,0,uniform,0,0,0,0,24,24,24,0,0,48,48,48,48,48,0,48,0,,,,,,0,,28-01-22,28-01-22,10:01:30,Mon Feb 28 2022 10:01:30 GMT+0100 (közép-európai téli idő),The main experiment item,yes,0,0,C:/Users/rrics/Documents/!!ResearchBMECOGSCI/gnet,0,0,0,prototype1.png,no,mono,no,18,no,black,no,no,768,1153,3.5.6,legacy,xpyriment,osweb,1.3.13,0,space,space,space,,34465,27521,34465,,2,legacy,824,1536,24,864,24,0,0,1536,1646038939446,1024,2,48000,-16,experiment,p7sarr2.png,1,odd,Win32,80,139392,136377,80,80,493164,494670,488161,140909,488161,80,,,,,,visual_patterns,0,0,0,yes,1366
undefined,undefined,undefined,undefined,white,no,Mozilla,Netscape,"5.0 (Windows NT 10.0; Win64; x64) AppleWebKit/537.36 (KHTML, like Gecko) Chrome/98.0.4758.102 Safari/537.36",xpyriment,legacy,legacy,0,uniform,0,0,0,0,24,24,24,0,0,49,49,49,49,49,0,49,0,,,,,,0,,28-01-22,28-01-22,10:01:30,Mon Feb 28 2022 10:01:30 GMT+0100 (közép-európai téli idő),The main experiment item,yes,0,0,C:/Users/rrics/Documents/!!ResearchBMECOGSCI/gnet,0,0,0,prototype1.png,no,mono,no,18,no,black,no,no,768,1153,3.5.6,legacy,xpyriment,osweb,1.3.13,0,space,space,space,,34465,27521,34465,,2,legacy,824,1536,24,864,24,0,0,1536,1646038939446,1024,2,48000,-16,experiment,p4sarr1.png,1,odd,Win32,80,139392,136377,80,80,499683,501185,494682,140909,494682,80,,,,,,visual_patterns,0,0,0,yes,1366
undefined,undefined,undefined,undefined,white,no,Mozilla,Netscape,"5.0 (Windows NT 10.0; Win64; x64) AppleWebKit/537.36 (KHTML, like Gecko) Chrome/98.0.4758.102 Safari/537.36",xpyriment,legacy,legacy,0,uniform,0,0,0,0,24,24,24,0,0,50,50,50,50,50,0,50,0,,,,,,0,,28-01-22,28-01-22,10:01:30,Mon Feb 28 2022 10:01:30 GMT+0100 (közép-európai téli idő),The main experiment item,yes,0,0,C:/Users/rrics/Documents/!!ResearchBMECOGSCI/gnet,0,0,0,prototype1.png,no,mono,no,18,no,black,no,no,768,1153,3.5.6,legacy,xpyriment,osweb,1.3.13,0,space,space,space,,34465,27521,34465,,2,legacy,824,1536,24,864,24,0,0,1536,1646038939446,1024,2,48000,-16,experiment,p10sarr1.png,1,odd,Win32,80,139392,136377,80,80,506196,507699,501189,140909,501189,80,,,,,,visual_patterns,0,0,0,yes,1366
undefined,undefined,undefined,undefined,white,no,Mozilla,Netscape,"5.0 (Windows NT 10.0; Win64; x64) AppleWebKit/537.36 (KHTML, like Gecko) Chrome/98.0.4758.102 Safari/537.36",xpyriment,legacy,legacy,0,uniform,0,0,0,0,24,24,24,0,0,51,51,51,51,51,0,51,0,,,,,,0,,28-01-22,28-01-22,10:01:30,Mon Feb 28 2022 10:01:30 GMT+0100 (közép-európai téli idő),The main experiment item,yes,0,0,C:/Users/rrics/Documents/!!ResearchBMECOGSCI/gnet,0,0,0,prototype1.png,no,mono,no,18,no,black,no,no,768,1153,3.5.6,legacy,xpyriment,osweb,1.3.13,0,space,space,space,,34465,27521,34465,,2,legacy,824,1536,24,864,24,0,0,1536,1646038939446,1024,2,48000,-16,experiment,prototype3.png,1,odd,Win32,80,139392,136377,80,80,512706,514214,507703,140909,507703,80,,,,,,visual_patterns,0,0,0,yes,1366
undefined,undefined,undefined,undefined,white,no,Mozilla,Netscape,"5.0 (Windows NT 10.0; Win64; x64) AppleWebKit/537.36 (KHTML, like Gecko) Chrome/98.0.4758.102 Safari/537.36",xpyriment,legacy,legacy,0,uniform,0,0,0,0,24,24,24,0,0,52,52,52,52,52,0,52,0,,,,,,0,,28-01-22,28-01-22,10:01:30,Mon Feb 28 2022 10:01:30 GMT+0100 (közép-európai téli idő),The main experiment item,yes,0,0,C:/Users/rrics/Documents/!!ResearchBMECOGSCI/gnet,0,0,0,prototype1.png,no,mono,no,18,no,black,no,no,768,1153,3.5.6,legacy,xpyriment,osweb,1.3.13,0,space,space,space,,34465,27521,34465,,2,legacy,824,1536,24,864,24,0,0,1536,1646038939446,1024,2,48000,-16,experiment,p1sarr1.png,1,odd,Win32,80,139392,136377,80,80,519221,520728,514218,140909,514218,80,,,,,,visual_patterns,0,0,0,yes,1366
undefined,undefined,undefined,undefined,white,no,Mozilla,Netscape,"5.0 (Windows NT 10.0; Win64; x64) AppleWebKit/537.36 (KHTML, like Gecko) Chrome/98.0.4758.102 Safari/537.36",xpyriment,legacy,legacy,0,uniform,0,0,0,0,24,24,24,0,0,53,53,53,53,53,0,53,0,,,,,,0,,28-01-22,28-01-22,10:01:30,Mon Feb 28 2022 10:01:30 GMT+0100 (közép-európai téli idő),The main experiment item,yes,0,0,C:/Users/rrics/Documents/!!ResearchBMECOGSCI/gnet,0,0,0,prototype1.png,no,mono,no,18,no,black,no,no,768,1153,3.5.6,legacy,xpyriment,osweb,1.3.13,0,space,space,space,,34465,27521,34465,,2,legacy,824,1536,24,864,24,0,0,1536,1646038939446,1024,2,48000,-16,experiment,p1sarrcol2.png,1,odd,Win32,80,139392,136377,80,80,525738,527243,520733,140909,520733,80,,,,,,visual_patterns,0,0,0,yes,1366
undefined,undefined,undefined,undefined,white,no,Mozilla,Netscape,"5.0 (Windows NT 10.0; Win64; x64) AppleWebKit/537.36 (KHTML, like Gecko) Chrome/98.0.4758.102 Safari/537.36",xpyriment,legacy,legacy,0,uniform,0,0,0,0,24,24,24,0,0,54,54,54,54,54,0,54,0,,,,,,0,,28-01-22,28-01-22,10:01:30,Mon Feb 28 2022 10:01:30 GMT+0100 (közép-európai téli idő),The main experiment item,yes,0,0,C:/Users/rrics/Documents/!!ResearchBMECOGSCI/gnet,0,0,0,prototype1.png,no,mono,no,18,no,black,no,no,768,1153,3.5.6,legacy,xpyriment,osweb,1.3.13,0,space,space,space,,34465,27521,34465,,2,legacy,824,1536,24,864,24,0,0,1536,1646038939446,1024,2,48000,-16,experiment,p2sarrcol2.png,1,odd,Win32,80,139392,136377,80,80,532254,533757,527253,140909,527253,80,,,,,,visual_patterns,0,0,0,yes,1366
undefined,undefined,undefined,undefined,white,no,Mozilla,Netscape,"5.0 (Windows NT 10.0; Win64; x64) AppleWebKit/537.36 (KHTML, like Gecko) Chrome/98.0.4758.102 Safari/537.36",xpyriment,legacy,legacy,0,uniform,0,0,0,0,24,24,24,0,0,55,55,55,55,55,0,55,0,,,,,,0,,28-01-22,28-01-22,10:01:30,Mon Feb 28 2022 10:01:30 GMT+0100 (közép-európai téli idő),The main experiment item,yes,0,0,C:/Users/rrics/Documents/!!ResearchBMECOGSCI/gnet,0,0,0,prototype1.png,no,mono,no,18,no,black,no,no,768,1153,3.5.6,legacy,xpyriment,osweb,1.3.13,0,space,space,space,,34465,27521,34465,,2,legacy,824,1536,24,864,24,0,0,1536,1646038939446,1024,2,48000,-16,experiment,prototype4.png,1,odd,Win32,80,139392,136377,80,80,538767,540272,533761,140909,533761,80,,,,,,visual_patterns,0,0,0,yes,1366
undefined,undefined,undefined,undefined,white,no,Mozilla,Netscape,"5.0 (Windows NT 10.0; Win64; x64) AppleWebKit/537.36 (KHTML, like Gecko) Chrome/98.0.4758.102 Safari/537.36",xpyriment,legacy,legacy,0,uniform,0,0,0,0,24,24,24,0,0,56,56,56,56,56,0,56,0,,,,,,0,,28-01-22,28-01-22,10:01:30,Mon Feb 28 2022 10:01:30 GMT+0100 (közép-európai téli idő),The main experiment item,yes,0,0,C:/Users/rrics/Documents/!!ResearchBMECOGSCI/gnet,0,0,0,prototype1.png,no,mono,no,18,no,black,no,no,768,1153,3.5.6,legacy,xpyriment,osweb,1.3.13,0,space,space,space,,34465,27521,34465,,2,legacy,824,1536,24,864,24,0,0,1536,1646038939446,1024,2,48000,-16,experiment,p2sarrshacol1.png,1,odd,Win32,80,139392,136377,80,80,545282,546786,540276,140909,540276,80,,,,,,visual_patterns,0,0,0,yes,1366
undefined,undefined,undefined,undefined,white,no,Mozilla,Netscape,"5.0 (Windows NT 10.0; Win64; x64) AppleWebKit/537.36 (KHTML, like Gecko) Chrome/98.0.4758.102 Safari/537.36",xpyriment,legacy,legacy,0,uniform,0,0,0,0,24,24,24,0,0,57,57,57,57,57,0,57,0,,,,,,0,,28-01-22,28-01-22,10:01:30,Mon Feb 28 2022 10:01:30 GMT+0100 (közép-európai téli idő),The main experiment item,yes,0,0,C:/Users/rrics/Documents/!!ResearchBMECOGSCI/gnet,0,0,0,prototype1.png,no,mono,no,18,no,black,no,no,768,1153,3.5.6,legacy,xpyriment,osweb,1.3.13,0,space,space,space,,34465,27521,34465,,2,legacy,824,1536,24,864,24,0,0,1536,1646038939446,1024,2,48000,-16,experiment,prototype5.png,1,odd,Win32,80,139392,136377,80,80,551797,553300,546790,140909,546790,80,,,,,,visual_patterns,0,0,0,yes,1366
undefined,undefined,undefined,undefined,white,no,Mozilla,Netscape,"5.0 (Windows NT 10.0; Win64; x64) AppleWebKit/537.36 (KHTML, like Gecko) Chrome/98.0.4758.102 Safari/537.36",xpyriment,legacy,legacy,0,uniform,0,0,0,0,24,24,24,0,0,58,58,58,58,58,0,58,0,,,,,,0,,28-01-22,28-01-22,10:01:30,Mon Feb 28 2022 10:01:30 GMT+0100 (közép-európai téli idő),The main experiment item,yes,0,0,C:/Users/rrics/Documents/!!ResearchBMECOGSCI/gnet,0,0,0,prototype1.png,no,mono,no,18,no,black,no,no,768,1153,3.5.6,legacy,xpyriment,osweb,1.3.13,0,space,space,space,,34465,27521,34465,,2,legacy,824,1536,24,864,24,0,0,1536,1646038939446,1024,2,48000,-16,experiment,prototype2.png,1,odd,Win32,80,139392,136377,80,80,558307,559815,553304,140909,553304,80,,,,,,visual_patterns,0,0,0,yes,1366
undefined,undefined,undefined,undefined,white,no,Mozilla,Netscape,"5.0 (Windows NT 10.0; Win64; x64) AppleWebKit/537.36 (KHTML, like Gecko) Chrome/98.0.4758.102 Safari/537.36",xpyriment,legacy,legacy,0,uniform,0,0,0,0,24,24,24,0,0,59,59,59,59,59,0,59,0,,,,,,0,,28-01-22,28-01-22,10:01:30,Mon Feb 28 2022 10:01:30 GMT+0100 (közép-európai téli idő),The main experiment item,yes,0,0,C:/Users/rrics/Documents/!!ResearchBMECOGSCI/gnet,0,0,0,prototype1.png,no,mono,no,18,no,black,no,no,768,1153,3.5.6,legacy,xpyriment,osweb,1.3.13,0,space,space,space,,34465,27521,34465,,2,legacy,824,1536,24,864,24,0,0,1536,1646038939446,1024,2,48000,-16,experiment,prototype5.png,1,odd,Win32,80,139392,136377,80,80,564823,566329,559818,140909,559818,80,,,,,,visual_patterns,0,0,0,yes,1366
undefined,undefined,undefined,undefined,white,no,Mozilla,Netscape,"5.0 (Windows NT 10.0; Win64; x64) AppleWebKit/537.36 (KHTML, like Gecko) Chrome/98.0.4758.102 Safari/537.36",xpyriment,legacy,legacy,0,uniform,0,0,0,0,24,24,24,0,0,60,60,60,60,60,0,60,0,,,,,,0,,28-01-22,28-01-22,10:01:30,Mon Feb 28 2022 10:01:30 GMT+0100 (közép-európai téli idő),The main experiment item,yes,0,0,C:/Users/rrics/Documents/!!ResearchBMECOGSCI/gnet,0,0,0,prototype1.png,no,mono,no,18,no,black,no,no,768,1153,3.5.6,legacy,xpyriment,osweb,1.3.13,0,space,space,space,,34465,27521,34465,,2,legacy,824,1536,24,864,24,0,0,1536,1646038939446,1024,2,48000,-16,experiment,p1sarrshacol2.png,1,odd,Win32,80,139392,136377,80,80,571334,572844,566335,140909,566335,80,,,,,,visual_patterns,0,0,0,yes,1366
undefined,undefined,undefined,undefined,white,no,Mozilla,Netscape,"5.0 (Windows NT 10.0; Win64; x64) AppleWebKit/537.36 (KHTML, like Gecko) Chrome/98.0.4758.102 Safari/537.36",xpyriment,legacy,legacy,0,uniform,0,0,0,0,24,24,24,0,0,61,61,61,61,61,0,61,0,,,,,,0,,28-01-22,28-01-22,10:01:30,Mon Feb 28 2022 10:01:30 GMT+0100 (közép-európai téli idő),The main experiment item,yes,0,0,C:/Users/rrics/Documents/!!ResearchBMECOGSCI/gnet,0,0,0,prototype1.png,no,mono,no,18,no,black,no,no,768,1153,3.5.6,legacy,xpyriment,osweb,1.3.13,0,space,space,space,,34465,27521,34465,,2,legacy,824,1536,24,864,24,0,0,1536,1646038939446,1024,2,48000,-16,experiment,p2sarrcol1.png,1,odd,Win32,80,139392,136377,80,80,577851,579358,572848,140909,572848,80,,,,,,visual_patterns,0,0,0,yes,1366
undefined,undefined,undefined,undefined,white,no,Mozilla,Netscape,"5.0 (Windows NT 10.0; Win64; x64) AppleWebKit/537.36 (KHTML, like Gecko) Chrome/98.0.4758.102 Safari/537.36",xpyriment,legacy,legacy,0,uniform,0,0,0,0,24,24,24,0,0,62,62,62,62,62,0,62,0,,,,,,0,,28-01-22,28-01-22,10:01:30,Mon Feb 28 2022 10:01:30 GMT+0100 (közép-európai téli idő),The main experiment item,yes,0,0,C:/Users/rrics/Documents/!!ResearchBMECOGSCI/gnet,0,0,0,prototype1.png,no,mono,no,18,no,black,no,no,768,1153,3.5.6,legacy,xpyriment,osweb,1.3.13,0,space,space,space,,34465,27521,34465,,2,legacy,824,1536,24,864,24,0,0,1536,1646038939446,1024,2,48000,-16,experiment,p5sarr2.png,1,odd,Win32,80,139392,136377,80,80,584368,585873,579363,140909,579363,80,,,,,,visual_patterns,0,0,0,yes,1366
undefined,undefined,undefined,undefined,white,no,Mozilla,Netscape,"5.0 (Windows NT 10.0; Win64; x64) AppleWebKit/537.36 (KHTML, like Gecko) Chrome/98.0.4758.102 Safari/537.36",xpyriment,legacy,legacy,0,uniform,0,0,0,0,24,24,24,0,0,63,63,63,63,63,0,63,0,,,,,,0,,28-01-22,28-01-22,10:01:30,Mon Feb 28 2022 10:01:30 GMT+0100 (közép-európai téli idő),The main experiment item,yes,0,0,C:/Users/rrics/Documents/!!ResearchBMECOGSCI/gnet,0,0,0,prototype1.png,no,mono,no,18,no,black,no,no,768,1153,3.5.6,legacy,xpyriment,osweb,1.3.13,0,space,space,space,,34465,27521,34465,,2,legacy,824,1536,24,864,24,0,0,1536,1646038939446,1024,2,48000,-16,experiment,p10sarr2.png,1,odd,Win32,80,139392,136377,80,80,590881,592387,585877,140909,585877,80,,,,,,visual_patterns,0,0,0,yes,1366
undefined,undefined,undefined,undefined,white,no,Mozilla,Netscape,"5.0 (Windows NT 10.0; Win64; x64) AppleWebKit/537.36 (KHTML, like Gecko) Chrome/98.0.4758.102 Safari/537.36",xpyriment,legacy,legacy,0,uniform,0,0,0,0,24,24,24,0,0,64,64,64,64,64,0,64,0,,,,,,0,,28-01-22,28-01-22,10:01:30,Mon Feb 28 2022 10:01:30 GMT+0100 (közép-európai téli idő),The main experiment item,yes,0,0,C:/Users/rrics/Documents/!!ResearchBMECOGSCI/gnet,0,0,0,prototype1.png,no,mono,no,18,no,black,no,no,768,1153,3.5.6,legacy,xpyriment,osweb,1.3.13,0,space,space,space,,34465,27521,34465,,2,legacy,824,1536,24,864,24,0,0,1536,1646038939446,1024,2,48000,-16,experiment,prototype1.png,1,odd,Win32,80,139392,136377,80,80,597402,598918,592398,140909,592398,80,,,,,,visual_patterns,0,0,0,yes,1366
undefined,undefined,undefined,undefined,white,no,Mozilla,Netscape,"5.0 (Windows NT 10.0; Win64; x64) AppleWebKit/537.36 (KHTML, like Gecko) Chrome/98.0.4758.102 Safari/537.36",xpyriment,legacy,legacy,0,uniform,0,0,0,0,24,24,24,0,0,65,65,65,65,65,0,65,0,,,,,,0,,28-01-22,28-01-22,10:01:30,Mon Feb 28 2022 10:01:30 GMT+0100 (közép-európai téli idő),The main experiment item,yes,0,0,C:/Users/rrics/Documents/!!ResearchBMECOGSCI/gnet,0,0,0,prototype1.png,no,mono,no,18,no,black,no,no,768,1153,3.5.6,legacy,xpyriment,osweb,1.3.13,0,space,space,space,,34465,27521,34465,,2,legacy,824,1536,24,864,24,0,0,1536,1646038939446,1024,2,48000,-16,experiment,prototype4.png,1,odd,Win32,80,139392,136377,80,80,603928,605433,598922,140909,598922,80,,,,,,visual_patterns,0,0,0,yes,1366
undefined,undefined,undefined,undefined,white,no,Mozilla,Netscape,"5.0 (Windows NT 10.0; Win64; x64) AppleWebKit/537.36 (KHTML, like Gecko) Chrome/98.0.4758.102 Safari/537.36",xpyriment,legacy,legacy,0,uniform,0,0,0,0,24,24,24,0,0,66,66,66,66,66,0,66,0,,,,,,0,,28-01-22,28-01-22,10:01:30,Mon Feb 28 2022 10:01:30 GMT+0100 (közép-európai téli idő),The main experiment item,yes,0,0,C:/Users/rrics/Documents/!!ResearchBMECOGSCI/gnet,0,0,0,prototype1.png,no,mono,no,18,no,black,no,no,768,1153,3.5.6,legacy,xpyriment,osweb,1.3.13,0,space,space,space,,34465,27521,34465,,2,legacy,824,1536,24,864,24,0,0,1536,1646038939446,1024,2,48000,-16,experiment,p2sarrshacol2.png,1,odd,Win32,80,139392,136377,80,80,610440,611947,605437,140909,605437,80,,,,,,visual_patterns,0,0,0,yes,1366
undefined,undefined,undefined,undefined,white,no,Mozilla,Netscape,"5.0 (Windows NT 10.0; Win64; x64) AppleWebKit/537.36 (KHTML, like Gecko) Chrome/98.0.4758.102 Safari/537.36",xpyriment,legacy,legacy,0,uniform,0,0,0,0,24,24,24,0,0,67,67,67,67,67,0,67,0,,,,,,0,,28-01-22,28-01-22,10:01:30,Mon Feb 28 2022 10:01:30 GMT+0100 (közép-európai téli idő),The main experiment item,yes,0,0,C:/Users/rrics/Documents/!!ResearchBMECOGSCI/gnet,0,0,0,prototype1.png,no,mono,no,18,no,black,no,no,768,1153,3.5.6,legacy,xpyriment,osweb,1.3.13,0,space,space,space,,34465,27521,34465,,2,legacy,824,1536,24,864,24,0,0,1536,1646038939446,1024,2,48000,-16,experiment,p1sarr2.png,1,odd,Win32,80,139392,136377,80,80,616955,618462,611952,140909,611952,80,,,,,,visual_patterns,0,0,0,yes,1366
undefined,undefined,undefined,undefined,white,no,Mozilla,Netscape,"5.0 (Windows NT 10.0; Win64; x64) AppleWebKit/537.36 (KHTML, like Gecko) Chrome/98.0.4758.102 Safari/537.36",xpyriment,legacy,legacy,0,uniform,0,0,0,0,24,24,24,0,0,68,68,68,68,68,0,68,0,,,,,,0,,28-01-22,28-01-22,10:01:30,Mon Feb 28 2022 10:01:30 GMT+0100 (közép-európai téli idő),The main experiment item,yes,0,0,C:/Users/rrics/Documents/!!ResearchBMECOGSCI/gnet,0,0,0,prototype1.png,no,mono,no,18,no,black,no,no,768,1153,3.5.6,legacy,xpyriment,osweb,1.3.13,0,space,space,space,,34465,27521,34465,,2,legacy,824,1536,24,864,24,0,0,1536,1646038939446,1024,2,48000,-16,experiment,p6sarr2.png,1,odd,Win32,80,139392,136377,80,80,623470,624976,618466,140909,618466,80,,,,,,visual_patterns,0,0,0,yes,1366
undefined,undefined,undefined,undefined,white,no,Mozilla,Netscape,"5.0 (Windows NT 10.0; Win64; x64) AppleWebKit/537.36 (KHTML, like Gecko) Chrome/98.0.4758.102 Safari/537.36",xpyriment,legacy,legacy,0,uniform,0,0,0,0,24,24,24,0,0,69,69,69,69,69,0,69,0,,,,,,0,,28-01-22,28-01-22,10:01:30,Mon Feb 28 2022 10:01:30 GMT+0100 (közép-európai téli idő),The main experiment item,yes,0,0,C:/Users/rrics/Documents/!!ResearchBMECOGSCI/gnet,0,0,0,prototype1.png,no,mono,no,18,no,black,no,no,768,1153,3.5.6,legacy,xpyriment,osweb,1.3.13,0,space,space,space,,34465,27521,34465,,2,legacy,824,1536,24,864,24,0,0,1536,1646038939446,1024,2,48000,-16,experiment,prototype2.png,1,odd,Win32,80,139392,136377,80,80,629988,631491,624986,140909,624986,80,,,,,,visual_patterns,0,0,0,yes,1366
undefined,undefined,undefined,undefined,white,no,Mozilla,Netscape,"5.0 (Windows NT 10.0; Win64; x64) AppleWebKit/537.36 (KHTML, like Gecko) Chrome/98.0.4758.102 Safari/537.36",xpyriment,legacy,legacy,0,uniform,0,0,0,0,24,24,24,0,0,70,70,70,70,70,0,70,0,,,,,,0,,28-01-22,28-01-22,10:01:30,Mon Feb 28 2022 10:01:30 GMT+0100 (közép-európai téli idő),The main experiment item,yes,0,0,C:/Users/rrics/Documents/!!ResearchBMECOGSCI/gnet,0,0,0,prototype1.png,no,mono,no,18,no,black,no,no,768,1153,3.5.6,legacy,xpyriment,osweb,1.3.13,0,space,space,space,,34465,27521,34465,,2,legacy,824,1536,24,864,24,0,0,1536,1646038939446,1024,2,48000,-16,experiment,p1sarrshacol1.png,1,odd,Win32,80,139392,136377,80,80,636500,638005,631496,140909,631495,80,,,,,,visual_patterns,0,0,0,yes,1366
undefined,undefined,undefined,undefined,white,no,Mozilla,Netscape,"5.0 (Windows NT 10.0; Win64; x64) AppleWebKit/537.36 (KHTML, like Gecko) Chrome/98.0.4758.102 Safari/537.36",xpyriment,legacy,legacy,0,uniform,0,0,0,0,24,24,24,0,0,71,71,71,71,71,0,71,0,,,,,,0,,28-01-22,28-01-22,10:01:30,Mon Feb 28 2022 10:01:30 GMT+0100 (közép-európai téli idő),The main experiment item,yes,0,0,C:/Users/rrics/Documents/!!ResearchBMECOGSCI/gnet,0,0,0,prototype1.png,no,mono,no,18,no,black,no,no,768,1153,3.5.6,legacy,xpyriment,osweb,1.3.13,0,space,space,space,,34465,27521,34465,,2,legacy,824,1536,24,864,24,0,0,1536,1646038939446,1024,2,48000,-16,experiment,prototype1.png,1,odd,Win32,80,139392,136377,80,80,643013,644519,638009,140909,638009,80,,,,,,visual_patterns,0,0,0,yes,1366
undefined,undefined,undefined,undefined,white,no,Mozilla,Netscape,"5.0 (Windows NT 10.0; Win64; x64) AppleWebKit/537.36 (KHTML, like Gecko) Chrome/98.0.4758.102 Safari/537.36",xpyriment,legacy,legacy,0,uniform,0,0,0,0,24,24,24,0,0,72,72,72,72,72,0,72,0,,,,,,0,,28-01-22,28-01-22,10:01:30,Mon Feb 28 2022 10:01:30 GMT+0100 (közép-európai téli idő),The main experiment item,yes,0,0,C:/Users/rrics/Documents/!!ResearchBMECOGSCI/gnet,0,0,0,prototype1.png,no,mono,no,18,no,black,no,no,768,1153,3.5.6,legacy,xpyriment,osweb,1.3.13,0,space,space,space,,34465,27521,34465,,2,legacy,824,1536,24,864,24,0,0,1536,1646038939446,1024,2,48000,-16,experiment,prototype5.png,1,odd,Win32,80,139392,136377,80,80,649523,651034,644523,140909,644523,80,,,,,,visual_patterns,0,0,0,yes,1366
undefined,undefined,undefined,undefined,white,no,Mozilla,Netscape,"5.0 (Windows NT 10.0; Win64; x64) AppleWebKit/537.36 (KHTML, like Gecko) Chrome/98.0.4758.102 Safari/537.36",xpyriment,legacy,legacy,0,uniform,0,0,0,0,24,24,24,0,0,73,73,73,73,73,0,73,0,,,,,,0,,28-01-22,28-01-22,10:01:30,Mon Feb 28 2022 10:01:30 GMT+0100 (közép-európai téli idő),The main experiment item,yes,0,0,C:/Users/rrics/Documents/!!ResearchBMECOGSCI/gnet,0,0,0,prototype1.png,no,mono,no,18,no,black,no,no,768,1153,3.5.6,legacy,xpyriment,osweb,1.3.13,0,space,space,space,,34465,27521,34465,,2,legacy,824,1536,24,864,24,0,0,1536,1646038939446,1024,2,48000,-16,experiment,prototype3.png,1,odd,Win32,80,139392,136377,80,80,656042,657548,651037,140909,651037,80,,,,,,visual_patterns,0,0,0,yes,1366
undefined,undefined,undefined,undefined,white,no,Mozilla,Netscape,"5.0 (Windows NT 10.0; Win64; x64) AppleWebKit/537.36 (KHTML, like Gecko) Chrome/98.0.4758.102 Safari/537.36",xpyriment,legacy,legacy,0,uniform,0,0,0,0,24,24,24,0,0,74,74,74,74,74,0,74,0,,,,,,0,,28-01-22,28-01-22,10:01:30,Mon Feb 28 2022 10:01:30 GMT+0100 (közép-európai téli idő),The main experiment item,yes,0,0,C:/Users/rrics/Documents/!!ResearchBMECOGSCI/gnet,0,0,0,prototype1.png,no,mono,no,18,no,black,no,no,768,1153,3.5.6,legacy,xpyriment,osweb,1.3.13,0,space,space,space,,34465,27521,34465,,2,legacy,824,1536,24,864,24,0,0,1536,1646038939446,1024,2,48000,-16,experiment,prototype2.png,1,odd,Win32,80,139392,136377,80,80,662556,664063,657552,140909,657552,80,,,,,,visual_patterns,0,0,0,yes,1366
undefined,undefined,undefined,undefined,white,no,Mozilla,Netscape,"5.0 (Windows NT 10.0; Win64; x64) AppleWebKit/537.36 (KHTML, like Gecko) Chrome/98.0.4758.102 Safari/537.36",xpyriment,legacy,legacy,0,uniform,0,0,0,0,24,24,24,0,0,74,74,74,74,74,0,74,0,0,0,0,0,0,0,0,28-01-22,28-01-22,10:01:30,Mon Feb 28 2022 10:01:30 GMT+0100 (közép-európai téli idő),The main experiment item,yes,0,0,C:/Users/rrics/Documents/!!ResearchBMECOGSCI/gnet,0,0,0,prototype1.png,no,mono,no,18,no,black,no,no,768,1153,3.5.6,legacy,xpyriment,osweb,1.3.13,0,down,space,space,down,34974,27521,34465,34974,2,legacy,824,1536,24,864,24,0,0,1536,1646038939446,1024,2,48000,-16,experiment,p5sarrsha3.png,1,odd,Win32,80,139392,136377,80,80,662556,664063,657552,140909,657552,80,702067,703583,699064,664064,699064,visual_patterns,0,0,0,yes,1366
undefined,undefined,undefined,undefined,white,no,Mozilla,Netscape,"5.0 (Windows NT 10.0; Win64; x64) AppleWebKit/537.36 (KHTML, like Gecko) Chrome/98.0.4758.102 Safari/537.36",xpyriment,legacy,legacy,0,uniform,0,0,0,0,24,24,24,0,0,74,74,74,74,74,0,74,0,1,1,1,1,1,0,1,28-01-22,28-01-22,10:01:30,Mon Feb 28 2022 10:01:30 GMT+0100 (közép-európai téli idő),The main experiment item,yes,0,0,C:/Users/rrics/Documents/!!ResearchBMECOGSCI/gnet,0,0,0,prototype1.png,no,mono,no,18,no,black,no,no,768,1153,3.5.6,legacy,xpyriment,osweb,1.3.13,0,down,space,space,down,34974,27521,34465,34974,2,legacy,824,1536,24,864,24,0,0,1536,1646038939446,1024,2,48000,-16,experiment,p2sarrshacol1.png,1,odd,Win32,80,139392,136377,80,80,662556,664063,657552,140909,657552,80,706590,708098,703587,664064,703587,visual_patterns,0,0,0,yes,1366
undefined,undefined,undefined,undefined,white,no,Mozilla,Netscape,"5.0 (Windows NT 10.0; Win64; x64) AppleWebKit/537.36 (KHTML, like Gecko) Chrome/98.0.4758.102 Safari/537.36",xpyriment,legacy,legacy,0,uniform,0,0,0,0,24,24,24,0,0,74,74,74,74,74,0,74,0,2,2,2,2,2,0,2,28-01-22,28-01-22,10:01:30,Mon Feb 28 2022 10:01:30 GMT+0100 (közép-európai téli idő),The main experiment item,yes,0,0,C:/Users/rrics/Documents/!!ResearchBMECOGSCI/gnet,0,0,0,prototype1.png,no,mono,no,18,no,black,no,no,768,1153,3.5.6,legacy,xpyriment,osweb,1.3.13,0,down,space,space,down,34974,27521,34465,34974,2,legacy,824,1536,24,864,24,0,0,1536,1646038939446,1024,2,48000,-16,experiment,p4sarr4.png,1,odd,Win32,80,139392,136377,80,80,662556,664063,657552,140909,657552,80,711106,712613,708103,664064,708103,visual_patterns,0,0,0,yes,1366
undefined,undefined,undefined,undefined,white,no,Mozilla,Netscape,"5.0 (Windows NT 10.0; Win64; x64) AppleWebKit/537.36 (KHTML, like Gecko) Chrome/98.0.4758.102 Safari/537.36",xpyriment,legacy,legacy,0,uniform,0,0,0,0,24,24,24,0,0,74,74,74,74,74,0,74,0,3,3,3,3,3,0,3,28-01-22,28-01-22,10:01:30,Mon Feb 28 2022 10:01:30 GMT+0100 (közép-európai téli idő),The main experiment item,yes,0,0,C:/Users/rrics/Documents/!!ResearchBMECOGSCI/gnet,0,0,0,prototype1.png,no,mono,no,18,no,black,no,no,768,1153,3.5.6,legacy,xpyriment,osweb,1.3.13,0,down,space,space,down,34974,27521,34465,34974,2,legacy,824,1536,24,864,24,0,0,1536,1646038939446,1024,2,48000,-16,experiment,p5sarrsha2.png,1,odd,Win32,80,139392,136377,80,80,662556,664063,657552,140909,657552,80,715620,717128,712617,664064,712617,visual_patterns,0,0,0,yes,1366
undefined,undefined,undefined,undefined,white,no,Mozilla,Netscape,"5.0 (Windows NT 10.0; Win64; x64) AppleWebKit/537.36 (KHTML, like Gecko) Chrome/98.0.4758.102 Safari/537.36",xpyriment,legacy,legacy,0,uniform,0,0,0,0,24,24,24,0,0,74,74,74,74,74,0,74,0,4,4,4,4,4,0,4,28-01-22,28-01-22,10:01:30,Mon Feb 28 2022 10:01:30 GMT+0100 (közép-európai téli idő),The main experiment item,yes,0,0,C:/Users/rrics/Documents/!!ResearchBMECOGSCI/gnet,0,0,0,prototype1.png,no,mono,no,18,no,black,no,no,768,1153,3.5.6,legacy,xpyriment,osweb,1.3.13,0,down,space,space,down,34974,27521,34465,34974,2,legacy,824,1536,24,864,24,0,0,1536,1646038939446,1024,2,48000,-16,experiment,p7sarr2.png,1,odd,Win32,80,139392,136377,80,80,662556,664063,657552,140909,657552,80,720143,721660,717141,664064,717140,visual_patterns,0,0,0,yes,1366
undefined,undefined,undefined,undefined,white,no,Mozilla,Netscape,"5.0 (Windows NT 10.0; Win64; x64) AppleWebKit/537.36 (KHTML, like Gecko) Chrome/98.0.4758.102 Safari/537.36",xpyriment,legacy,legacy,0,uniform,0,0,0,0,24,24,24,0,0,74,74,74,74,74,0,74,0,5,5,5,5,5,0,5,28-01-22,28-01-22,10:01:30,Mon Feb 28 2022 10:01:30 GMT+0100 (közép-európai téli idő),The main experiment item,yes,0,0,C:/Users/rrics/Documents/!!ResearchBMECOGSCI/gnet,0,0,0,prototype1.png,no,mono,no,18,no,black,no,no,768,1153,3.5.6,legacy,xpyriment,osweb,1.3.13,0,down,space,space,down,34974,27521,34465,34974,2,legacy,824,1536,24,864,24,0,0,1536,1646038939446,1024,2,48000,-16,experiment,p1sarrsha4.png,1,odd,Win32,80,139392,136377,80,80,662556,664063,657552,140909,657552,80,724666,726175,721665,664064,721665,visual_patterns,0,0,0,yes,1366
undefined,undefined,undefined,undefined,white,no,Mozilla,Netscape,"5.0 (Windows NT 10.0; Win64; x64) AppleWebKit/537.36 (KHTML, like Gecko) Chrome/98.0.4758.102 Safari/537.36",xpyriment,legacy,legacy,0,uniform,0,0,0,0,24,24,24,0,0,74,74,74,74,74,0,74,0,6,6,6,6,6,0,6,28-01-22,28-01-22,10:01:30,Mon Feb 28 2022 10:01:30 GMT+0100 (közép-európai téli idő),The main experiment item,yes,0,0,C:/Users/rrics/Documents/!!ResearchBMECOGSCI/gnet,0,0,0,prototype1.png,no,mono,no,18,no,black,no,no,768,1153,3.5.6,legacy,xpyriment,osweb,1.3.13,0,down,space,space,down,34974,27521,34465,34974,2,legacy,824,1536,24,864,24,0,0,1536,1646038939446,1024,2,48000,-16,experiment,p3sarrcol2.png,1,odd,Win32,80,139392,136377,80,80,662556,664063,657552,140909,657552,80,729183,730690,726179,664064,726179,visual_patterns,0,0,0,yes,1366
undefined,undefined,undefined,undefined,white,no,Mozilla,Netscape,"5.0 (Windows NT 10.0; Win64; x64) AppleWebKit/537.36 (KHTML, like Gecko) Chrome/98.0.4758.102 Safari/537.36",xpyriment,legacy,legacy,0,uniform,0,0,0,0,24,24,24,0,0,74,74,74,74,74,0,74,0,7,7,7,7,7,0,7,28-01-22,28-01-22,10:01:30,Mon Feb 28 2022 10:01:30 GMT+0100 (közép-európai téli idő),The main experiment item,yes,0,0,C:/Users/rrics/Documents/!!ResearchBMECOGSCI/gnet,0,0,0,prototype1.png,no,mono,no,18,no,black,no,no,768,1153,3.5.6,legacy,xpyriment,osweb,1.3.13,0,down,space,space,down,34974,27521,34465,34974,2,legacy,824,1536,24,864,24,0,0,1536,1646038939446,1024,2,48000,-16,experiment,p3sarrcol3.png,1,odd,Win32,80,139392,136377,80,80,662556,664063,657552,140909,657552,80,733697,735205,730695,664064,730695,visual_patterns,0,0,0,yes,1366
undefined,undefined,undefined,undefined,white,no,Mozilla,Netscape,"5.0 (Windows NT 10.0; Win64; x64) AppleWebKit/537.36 (KHTML, like Gecko) Chrome/98.0.4758.102 Safari/537.36",xpyriment,legacy,legacy,0,uniform,0,0,0,0,24,24,24,0,0,74,74,74,74,74,0,74,0,8,8,8,8,8,0,8,28-01-22,28-01-22,10:01:30,Mon Feb 28 2022 10:01:30 GMT+0100 (közép-európai téli idő),The main experiment item,yes,0,0,C:/Users/rrics/Documents/!!ResearchBMECOGSCI/gnet,0,0,0,prototype1.png,no,mono,no,18,no,black,no,no,768,1153,3.5.6,legacy,xpyriment,osweb,1.3.13,0,down,space,space,down,34974,27521,34465,34974,2,legacy,824,1536,24,864,24,0,0,1536,1646038939446,1024,2,48000,-16,experiment,p1sarrsha1.png,1,odd,Win32,80,139392,136377,80,80,662556,664063,657552,140909,657552,80,738209,739720,735210,664064,735209,visual_patterns,0,0,0,yes,1366
undefined,undefined,undefined,undefined,white,no,Mozilla,Netscape,"5.0 (Windows NT 10.0; Win64; x64) AppleWebKit/537.36 (KHTML, like Gecko) Chrome/98.0.4758.102 Safari/537.36",xpyriment,legacy,legacy,0,uniform,0,0,0,0,24,24,24,0,0,74,74,74,74,74,0,74,0,9,9,9,9,9,0,9,28-01-22,28-01-22,10:01:30,Mon Feb 28 2022 10:01:30 GMT+0100 (közép-európai téli idő),The main experiment item,yes,0,0,C:/Users/rrics/Documents/!!ResearchBMECOGSCI/gnet,0,0,0,prototype1.png,no,mono,no,18,no,black,no,no,768,1153,3.5.6,legacy,xpyriment,osweb,1.3.13,0,down,space,space,down,34974,27521,34465,34974,2,legacy,824,1536,24,864,24,0,0,1536,1646038939446,1024,2,48000,-16,experiment,p4sarr1.png,1,odd,Win32,80,139392,136377,80,80,662556,664063,657552,140909,657552,80,742734,744235,739731,664064,739731,visual_patterns,0,0,0,yes,1366
undefined,undefined,undefined,undefined,white,no,Mozilla,Netscape,"5.0 (Windows NT 10.0; Win64; x64) AppleWebKit/537.36 (KHTML, like Gecko) Chrome/98.0.4758.102 Safari/537.36",xpyriment,legacy,legacy,0,uniform,0,0,0,0,24,24,24,0,0,74,74,74,74,74,0,74,0,10,10,10,10,10,0,10,28-01-22,28-01-22,10:01:30,Mon Feb 28 2022 10:01:30 GMT+0100 (közép-európai téli idő),The main experiment item,yes,0,0,C:/Users/rrics/Documents/!!ResearchBMECOGSCI/gnet,0,0,0,prototype1.png,no,mono,no,18,no,black,no,no,768,1153,3.5.6,legacy,xpyriment,osweb,1.3.13,0,down,space,space,down,34974,27521,34465,34974,2,legacy,824,1536,24,864,24,0,0,1536,1646038939446,1024,2,48000,-16,experiment,p9sarr2.png,1,odd,Win32,80,139392,136377,80,80,662556,664063,657552,140909,657552,80,747248,748750,744241,664064,744241,visual_patterns,0,0,0,yes,1366
undefined,undefined,undefined,undefined,white,no,Mozilla,Netscape,"5.0 (Windows NT 10.0; Win64; x64) AppleWebKit/537.36 (KHTML, like Gecko) Chrome/98.0.4758.102 Safari/537.36",xpyriment,legacy,legacy,0,uniform,0,0,0,0,24,24,24,0,0,74,74,74,74,74,0,74,0,11,11,11,11,11,0,11,28-01-22,28-01-22,10:01:30,Mon Feb 28 2022 10:01:30 GMT+0100 (közép-európai téli idő),The main experiment item,yes,0,0,C:/Users/rrics/Documents/!!ResearchBMECOGSCI/gnet,0,0,0,prototype1.png,no,mono,no,18,no,black,no,no,768,1153,3.5.6,legacy,xpyriment,osweb,1.3.13,0,down,space,space,down,34974,27521,34465,34974,2,legacy,824,1536,24,864,24,0,0,1536,1646038939446,1024,2,48000,-16,experiment,p1sarr2.png,1,odd,Win32,80,139392,136377,80,80,662556,664063,657552,140909,657552,80,751759,753266,748755,664064,748755,visual_patterns,0,0,0,yes,1366
undefined,undefined,undefined,undefined,white,no,Mozilla,Netscape,"5.0 (Windows NT 10.0; Win64; x64) AppleWebKit/537.36 (KHTML, like Gecko) Chrome/98.0.4758.102 Safari/537.36",xpyriment,legacy,legacy,0,uniform,0,0,0,0,24,24,24,0,0,74,74,74,74,74,0,74,0,12,12,12,12,12,0,12,28-01-22,28-01-22,10:01:30,Mon Feb 28 2022 10:01:30 GMT+0100 (közép-európai téli idő),The main experiment item,yes,0,0,C:/Users/rrics/Documents/!!ResearchBMECOGSCI/gnet,0,0,0,prototype1.png,no,mono,no,18,no,black,no,no,768,1153,3.5.6,legacy,xpyriment,osweb,1.3.13,0,down,space,space,down,34974,27521,34465,34974,2,legacy,824,1536,24,864,24,0,0,1536,1646038939446,1024,2,48000,-16,experiment,p3sarrcol4.png,1,odd,Win32,80,139392,136377,80,80,662556,664063,657552,140909,657552,80,756273,757781,753271,664064,753271,visual_patterns,0,0,0,yes,1366
undefined,undefined,undefined,undefined,white,no,Mozilla,Netscape,"5.0 (Windows NT 10.0; Win64; x64) AppleWebKit/537.36 (KHTML, like Gecko) Chrome/98.0.4758.102 Safari/537.36",xpyriment,legacy,legacy,0,uniform,0,0,0,0,24,24,24,0,0,74,74,74,74,74,0,74,0,13,13,13,13,13,0,13,28-01-22,28-01-22,10:01:30,Mon Feb 28 2022 10:01:30 GMT+0100 (közép-európai téli idő),The main experiment item,yes,0,0,C:/Users/rrics/Documents/!!ResearchBMECOGSCI/gnet,0,0,0,prototype1.png,no,mono,no,18,no,black,no,no,768,1153,3.5.6,legacy,xpyriment,osweb,1.3.13,0,down,space,space,down,34974,27521,34465,34974,2,legacy,824,1536,24,864,24,0,0,1536,1646038939446,1024,2,48000,-16,experiment,p2sarrshacol2.png,1,odd,Win32,80,139392,136377,80,80,662556,664063,657552,140909,657552,80,760785,762296,757785,664064,757785,visual_patterns,0,0,0,yes,1366
undefined,undefined,undefined,undefined,white,no,Mozilla,Netscape,"5.0 (Windows NT 10.0; Win64; x64) AppleWebKit/537.36 (KHTML, like Gecko) Chrome/98.0.4758.102 Safari/537.36",xpyriment,legacy,legacy,0,uniform,0,0,0,0,24,24,24,0,0,74,74,74,74,74,0,74,0,14,14,14,14,14,0,14,28-01-22,28-01-22,10:01:30,Mon Feb 28 2022 10:01:30 GMT+0100 (közép-európai téli idő),The main experiment item,yes,0,0,C:/Users/rrics/Documents/!!ResearchBMECOGSCI/gnet,0,0,0,prototype1.png,no,mono,no,18,no,black,no,no,768,1153,3.5.6,legacy,xpyriment,osweb,1.3.13,0,down,space,space,down,34974,27521,34465,34974,2,legacy,824,1536,24,864,24,0,0,1536,1646038939446,1024,2,48000,-16,experiment,p6sarr1.png,1,odd,Win32,80,139392,136377,80,80,662556,664063,657552,140909,657552,80,765311,766828,762307,664064,762307,visual_patterns,0,0,0,yes,1366
undefined,undefined,undefined,undefined,white,no,Mozilla,Netscape,"5.0 (Windows NT 10.0; Win64; x64) AppleWebKit/537.36 (KHTML, like Gecko) Chrome/98.0.4758.102 Safari/537.36",xpyriment,legacy,legacy,0,uniform,0,0,0,0,24,24,24,0,0,74,74,74,74,74,0,74,0,15,15,15,15,15,0,15,28-01-22,28-01-22,10:01:30,Mon Feb 28 2022 10:01:30 GMT+0100 (közép-európai téli idő),The main experiment item,yes,0,0,C:/Users/rrics/Documents/!!ResearchBMECOGSCI/gnet,0,0,0,prototype1.png,no,mono,no,18,no,black,no,no,768,1153,3.5.6,legacy,xpyriment,osweb,1.3.13,0,down,space,space,down,34974,27521,34465,34974,2,legacy,824,1536,24,864,24,0,0,1536,1646038939446,1024,2,48000,-16,experiment,p4sarrshacol3.png,1,odd,Win32,80,139392,136377,80,80,662556,664063,657552,140909,657552,80,769837,771343,766834,664064,766834,visual_patterns,0,0,0,yes,1366
undefined,undefined,undefined,undefined,white,no,Mozilla,Netscape,"5.0 (Windows NT 10.0; Win64; x64) AppleWebKit/537.36 (KHTML, like Gecko) Chrome/98.0.4758.102 Safari/537.36",xpyriment,legacy,legacy,0,uniform,0,0,0,0,24,24,24,0,0,74,74,74,74,74,0,74,0,16,16,16,16,16,0,16,28-01-22,28-01-22,10:01:30,Mon Feb 28 2022 10:01:30 GMT+0100 (közép-európai téli idő),The main experiment item,yes,0,0,C:/Users/rrics/Documents/!!ResearchBMECOGSCI/gnet,0,0,0,prototype1.png,no,mono,no,18,no,black,no,no,768,1153,3.5.6,legacy,xpyriment,osweb,1.3.13,0,down,space,space,down,34974,27521,34465,34974,2,legacy,824,1536,24,864,24,0,0,1536,1646038939446,1024,2,48000,-16,experiment,p4sarrshacol4.png,1,odd,Win32,80,139392,136377,80,80,662556,664063,657552,140909,657552,80,774351,775858,771348,664064,771348,visual_patterns,0,0,0,yes,1366
undefined,undefined,undefined,undefined,white,no,Mozilla,Netscape,"5.0 (Windows NT 10.0; Win64; x64) AppleWebKit/537.36 (KHTML, like Gecko) Chrome/98.0.4758.102 Safari/537.36",xpyriment,legacy,legacy,0,uniform,0,0,0,0,24,24,24,0,0,74,74,74,74,74,0,74,0,17,17,17,17,17,0,17,28-01-22,28-01-22,10:01:30,Mon Feb 28 2022 10:01:30 GMT+0100 (közép-európai téli idő),The main experiment item,yes,0,0,C:/Users/rrics/Documents/!!ResearchBMECOGSCI/gnet,0,0,0,prototype1.png,no,mono,no,18,no,black,no,no,768,1153,3.5.6,legacy,xpyriment,osweb,1.3.13,0,down,space,space,down,34974,27521,34465,34974,2,legacy,824,1536,24,864,24,0,0,1536,1646038939446,1024,2,48000,-16,experiment,p2sarrcol1.png,1,odd,Win32,80,139392,136377,80,80,662556,664063,657552,140909,657552,80,778869,780373,775863,664064,775863,visual_patterns,0,0,0,yes,1366
undefined,undefined,undefined,undefined,white,no,Mozilla,Netscape,"5.0 (Windows NT 10.0; Win64; x64) AppleWebKit/537.36 (KHTML, like Gecko) Chrome/98.0.4758.102 Safari/537.36",xpyriment,legacy,legacy,0,uniform,0,0,0,0,24,24,24,0,0,74,74,74,74,74,0,74,0,18,18,18,18,18,0,18,28-01-22,28-01-22,10:01:30,Mon Feb 28 2022 10:01:30 GMT+0100 (közép-európai téli idő),The main experiment item,yes,0,0,C:/Users/rrics/Documents/!!ResearchBMECOGSCI/gnet,0,0,0,prototype1.png,no,mono,no,18,no,black,no,no,768,1153,3.5.6,legacy,xpyriment,osweb,1.3.13,0,down,space,space,down,34974,27521,34465,34974,2,legacy,824,1536,24,864,24,0,0,1536,1646038939446,1024,2,48000,-16,experiment,p1sarr4.png,1,odd,Win32,80,139392,136377,80,80,662556,664063,657552,140909,657552,80,783379,784888,780378,664064,780378,visual_patterns,0,0,0,yes,1366
undefined,undefined,undefined,undefined,white,no,Mozilla,Netscape,"5.0 (Windows NT 10.0; Win64; x64) AppleWebKit/537.36 (KHTML, like Gecko) Chrome/98.0.4758.102 Safari/537.36",xpyriment,legacy,legacy,0,uniform,0,0,0,0,24,24,24,0,0,74,74,74,74,74,0,74,0,19,19,19,19,19,0,19,28-01-22,28-01-22,10:01:30,Mon Feb 28 2022 10:01:30 GMT+0100 (közép-európai téli idő),The main experiment item,yes,0,0,C:/Users/rrics/Documents/!!ResearchBMECOGSCI/gnet,0,0,0,prototype1.png,no,mono,no,18,no,black,no,no,768,1153,3.5.6,legacy,xpyriment,osweb,1.3.13,0,down,space,space,down,34974,27521,34465,34974,2,legacy,824,1536,24,864,24,0,0,1536,1646038939446,1024,2,48000,-16,experiment,p10sarr1.png,1,odd,Win32,80,139392,136377,80,80,662556,664063,657552,140909,657552,80,787903,789420,784899,664064,784899,visual_patterns,0,0,0,yes,1366
undefined,undefined,undefined,undefined,white,no,Mozilla,Netscape,"5.0 (Windows NT 10.0; Win64; x64) AppleWebKit/537.36 (KHTML, like Gecko) Chrome/98.0.4758.102 Safari/537.36",xpyriment,legacy,legacy,0,uniform,0,0,0,0,24,24,24,0,0,74,74,74,74,74,0,74,0,20,20,20,20,20,0,20,28-01-22,28-01-22,10:01:30,Mon Feb 28 2022 10:01:30 GMT+0100 (közép-európai téli idő),The main experiment item,yes,0,0,C:/Users/rrics/Documents/!!ResearchBMECOGSCI/gnet,0,0,0,prototype1.png,no,mono,no,18,no,black,no,no,768,1153,3.5.6,legacy,xpyriment,osweb,1.3.13,0,down,space,space,down,34974,27521,34465,34974,2,legacy,824,1536,24,864,24,0,0,1536,1646038939446,1024,2,48000,-16,experiment,p8sarr3.png,1,odd,Win32,80,139392,136377,80,80,662556,664063,657552,140909,657552,80,792427,793935,789426,664064,789426,visual_patterns,0,0,0,yes,1366
undefined,undefined,undefined,undefined,white,no,Mozilla,Netscape,"5.0 (Windows NT 10.0; Win64; x64) AppleWebKit/537.36 (KHTML, like Gecko) Chrome/98.0.4758.102 Safari/537.36",xpyriment,legacy,legacy,0,uniform,0,0,0,0,24,24,24,0,0,74,74,74,74,74,0,74,0,21,21,21,21,21,0,21,28-01-22,28-01-22,10:01:30,Mon Feb 28 2022 10:01:30 GMT+0100 (közép-európai téli idő),The main experiment item,yes,0,0,C:/Users/rrics/Documents/!!ResearchBMECOGSCI/gnet,0,0,0,prototype1.png,no,mono,no,18,no,black,no,no,768,1153,3.5.6,legacy,xpyriment,osweb,1.3.13,0,down,space,space,down,34974,27521,34465,34974,2,legacy,824,1536,24,864,24,0,0,1536,1646038939446,1024,2,48000,-16,experiment,p9sarr4.png,1,odd,Win32,80,139392,136377,80,80,662556,664063,657552,140909,657552,80,796946,798450,793941,664064,793941,visual_patterns,0,0,0,yes,1366
undefined,undefined,undefined,undefined,white,no,Mozilla,Netscape,"5.0 (Windows NT 10.0; Win64; x64) AppleWebKit/537.36 (KHTML, like Gecko) Chrome/98.0.4758.102 Safari/537.36",xpyriment,legacy,legacy,0,uniform,0,0,0,0,24,24,24,0,0,74,74,74,74,74,0,74,0,22,22,22,22,22,0,22,28-01-22,28-01-22,10:01:30,Mon Feb 28 2022 10:01:30 GMT+0100 (közép-európai téli idő),The main experiment item,yes,0,0,C:/Users/rrics/Documents/!!ResearchBMECOGSCI/gnet,0,0,0,prototype1.png,no,mono,no,18,no,black,no,no,768,1153,3.5.6,legacy,xpyriment,osweb,1.3.13,0,down,space,space,down,34974,27521,34465,34974,2,legacy,824,1536,24,864,24,0,0,1536,1646038939446,1024,2,48000,-16,experiment,p5sarrcol2.png,1,odd,Win32,80,139392,136377,80,80,662556,664063,657552,140909,657552,80,801458,802965,798455,664064,798455,visual_patterns,0,0,0,yes,1366
undefined,undefined,undefined,undefined,white,no,Mozilla,Netscape,"5.0 (Windows NT 10.0; Win64; x64) AppleWebKit/537.36 (KHTML, like Gecko) Chrome/98.0.4758.102 Safari/537.36",xpyriment,legacy,legacy,0,uniform,0,0,0,0,24,24,24,0,0,74,74,74,74,74,0,74,0,23,23,23,23,23,0,23,28-01-22,28-01-22,10:01:30,Mon Feb 28 2022 10:01:30 GMT+0100 (közép-európai téli idő),The main experiment item,yes,0,0,C:/Users/rrics/Documents/!!ResearchBMECOGSCI/gnet,0,0,0,prototype1.png,no,mono,no,18,no,black,no,no,768,1153,3.5.6,legacy,xpyriment,osweb,1.3.13,0,down,space,space,down,34974,27521,34465,34974,2,legacy,824,1536,24,864,24,0,0,1536,1646038939446,1024,2,48000,-16,experiment,p7sarr4.png,1,odd,Win32,80,139392,136377,80,80,662556,664063,657552,140909,657552,80,805973,807480,802971,664064,802971,visual_patterns,0,0,0,yes,1366
undefined,undefined,undefined,undefined,white,no,Mozilla,Netscape,"5.0 (Windows NT 10.0; Win64; x64) AppleWebKit/537.36 (KHTML, like Gecko) Chrome/98.0.4758.102 Safari/537.36",xpyriment,legacy,legacy,0,uniform,0,0,0,0,24,24,24,0,0,74,74,74,74,74,0,74,0,24,24,24,24,24,0,24,28-01-22,28-01-22,10:01:30,Mon Feb 28 2022 10:01:30 GMT+0100 (közép-európai téli idő),The main experiment item,yes,0,0,C:/Users/rrics/Documents/!!ResearchBMECOGSCI/gnet,0,0,0,prototype1.png,no,mono,no,18,no,black,no,no,768,1153,3.5.6,legacy,xpyriment,osweb,1.3.13,0,down,space,space,down,34974,27521,34465,34974,2,legacy,824,1536,24,864,24,0,0,1536,1646038939446,1024,2,48000,-16,experiment,p3sarrsha3.png,1,odd,Win32,80,139392,136377,80,80,662556,664063,657552,140909,657552,80,810487,811995,807492,664064,807492,visual_patterns,0,0,0,yes,1366
undefined,undefined,undefined,undefined,white,no,Mozilla,Netscape,"5.0 (Windows NT 10.0; Win64; x64) AppleWebKit/537.36 (KHTML, like Gecko) Chrome/98.0.4758.102 Safari/537.36",xpyriment,legacy,legacy,0,uniform,0,0,0,0,24,24,24,0,0,74,74,74,74,74,0,74,0,25,25,25,25,25,0,25,28-01-22,28-01-22,10:01:30,Mon Feb 28 2022 10:01:30 GMT+0100 (közép-európai téli idő),The main experiment item,yes,0,0,C:/Users/rrics/Documents/!!ResearchBMECOGSCI/gnet,0,0,0,prototype1.png,no,mono,no,18,no,black,no,no,768,1153,3.5.6,legacy,xpyriment,osweb,1.3.13,0,down,space,space,down,34974,27521,34465,34974,2,legacy,824,1536,24,864,24,0,0,1536,1646038939446,1024,2,48000,-16,experiment,p8sarr4.png,1,odd,Win32,80,139392,136377,80,80,662556,664063,657552,140909,657552,80,815007,816511,812002,664064,812002,visual_patterns,0,0,0,yes,1366
undefined,undefined,undefined,undefined,white,no,Mozilla,Netscape,"5.0 (Windows NT 10.0; Win64; x64) AppleWebKit/537.36 (KHTML, like Gecko) Chrome/98.0.4758.102 Safari/537.36",xpyriment,legacy,legacy,0,uniform,0,0,0,0,24,24,24,0,0,74,74,74,74,74,0,74,0,26,26,26,26,26,0,26,28-01-22,28-01-22,10:01:30,Mon Feb 28 2022 10:01:30 GMT+0100 (közép-európai téli idő),The main experiment item,yes,0,0,C:/Users/rrics/Documents/!!ResearchBMECOGSCI/gnet,0,0,0,prototype1.png,no,mono,no,18,no,black,no,no,768,1153,3.5.6,legacy,xpyriment,osweb,1.3.13,0,down,space,space,down,34974,27521,34465,34974,2,legacy,824,1536,24,864,24,0,0,1536,1646038939446,1024,2,48000,-16,experiment,p2sarrshacol4.png,1,odd,Win32,80,139392,136377,80,80,662556,664063,657552,140909,657552,80,819522,821026,816516,664064,816516,visual_patterns,0,0,0,yes,1366
undefined,undefined,undefined,undefined,white,no,Mozilla,Netscape,"5.0 (Windows NT 10.0; Win64; x64) AppleWebKit/537.36 (KHTML, like Gecko) Chrome/98.0.4758.102 Safari/537.36",xpyriment,legacy,legacy,0,uniform,0,0,0,0,24,24,24,0,0,74,74,74,74,74,0,74,0,27,27,27,27,27,0,27,28-01-22,28-01-22,10:01:30,Mon Feb 28 2022 10:01:30 GMT+0100 (közép-európai téli idő),The main experiment item,yes,0,0,C:/Users/rrics/Documents/!!ResearchBMECOGSCI/gnet,0,0,0,prototype1.png,no,mono,no,18,no,black,no,no,768,1153,3.5.6,legacy,xpyriment,osweb,1.3.13,0,down,space,space,down,34974,27521,34465,34974,2,legacy,824,1536,24,864,24,0,0,1536,1646038939446,1024,2,48000,-16,experiment,p4sarrshacol1.png,1,odd,Win32,80,139392,136377,80,80,662556,664063,657552,140909,657552,80,824033,825541,821030,664064,821030,visual_patterns,0,0,0,yes,1366
undefined,undefined,undefined,undefined,white,no,Mozilla,Netscape,"5.0 (Windows NT 10.0; Win64; x64) AppleWebKit/537.36 (KHTML, like Gecko) Chrome/98.0.4758.102 Safari/537.36",xpyriment,legacy,legacy,0,uniform,0,0,0,0,24,24,24,0,0,74,74,74,74,74,0,74,0,28,28,28,28,28,0,28,28-01-22,28-01-22,10:01:30,Mon Feb 28 2022 10:01:30 GMT+0100 (közép-európai téli idő),The main experiment item,yes,0,0,C:/Users/rrics/Documents/!!ResearchBMECOGSCI/gnet,0,0,0,prototype1.png,no,mono,no,18,no,black,no,no,768,1153,3.5.6,legacy,xpyriment,osweb,1.3.13,0,down,space,space,down,34974,27521,34465,34974,2,legacy,824,1536,24,864,24,0,0,1536,1646038939446,1024,2,48000,-16,experiment,p1sarrshacol3.png,1,odd,Win32,80,139392,136377,80,80,662556,664063,657552,140909,657552,80,828553,830056,825547,664064,825547,visual_patterns,0,0,0,yes,1366
undefined,undefined,undefined,undefined,white,no,Mozilla,Netscape,"5.0 (Windows NT 10.0; Win64; x64) AppleWebKit/537.36 (KHTML, like Gecko) Chrome/98.0.4758.102 Safari/537.36",xpyriment,legacy,legacy,0,uniform,0,0,0,0,24,24,24,0,0,74,74,74,74,74,0,74,0,29,29,29,29,29,0,29,28-01-22,28-01-22,10:01:30,Mon Feb 28 2022 10:01:30 GMT+0100 (közép-európai téli idő),The main experiment item,yes,0,0,C:/Users/rrics/Documents/!!ResearchBMECOGSCI/gnet,0,0,0,prototype1.png,no,mono,no,18,no,black,no,no,768,1153,3.5.6,legacy,xpyriment,osweb,1.3.13,0,down,space,space,down,34974,27521,34465,34974,2,legacy,824,1536,24,864,24,0,0,1536,1646038939446,1024,2,48000,-16,experiment,p2sarrsha1.png,1,odd,Win32,80,139392,136377,80,80,662556,664063,657552,140909,657552,80,833062,834571,830061,664064,830061,visual_patterns,0,0,0,yes,1366
undefined,undefined,undefined,undefined,white,no,Mozilla,Netscape,"5.0 (Windows NT 10.0; Win64; x64) AppleWebKit/537.36 (KHTML, like Gecko) Chrome/98.0.4758.102 Safari/537.36",xpyriment,legacy,legacy,0,uniform,0,0,0,0,24,24,24,0,0,74,74,74,74,74,0,74,0,30,30,30,30,30,0,30,28-01-22,28-01-22,10:01:30,Mon Feb 28 2022 10:01:30 GMT+0100 (közép-európai téli idő),The main experiment item,yes,0,0,C:/Users/rrics/Documents/!!ResearchBMECOGSCI/gnet,0,0,0,prototype1.png,no,mono,no,18,no,black,no,no,768,1153,3.5.6,legacy,xpyriment,osweb,1.3.13,0,down,space,space,down,34974,27521,34465,34974,2,legacy,824,1536,24,864,24,0,0,1536,1646038939446,1024,2,48000,-16,experiment,p3sarr2.png,1,odd,Win32,80,139392,136377,80,80,662556,664063,657552,140909,657552,80,837579,839086,834576,664064,834576,visual_patterns,0,0,0,yes,1366
undefined,undefined,undefined,undefined,white,no,Mozilla,Netscape,"5.0 (Windows NT 10.0; Win64; x64) AppleWebKit/537.36 (KHTML, like Gecko) Chrome/98.0.4758.102 Safari/537.36",xpyriment,legacy,legacy,0,uniform,0,0,0,0,24,24,24,0,0,74,74,74,74,74,0,74,0,31,31,31,31,31,0,31,28-01-22,28-01-22,10:01:30,Mon Feb 28 2022 10:01:30 GMT+0100 (közép-európai téli idő),The main experiment item,yes,0,0,C:/Users/rrics/Documents/!!ResearchBMECOGSCI/gnet,0,0,0,prototype1.png,no,mono,no,18,no,black,no,no,768,1153,3.5.6,legacy,xpyriment,osweb,1.3.13,0,down,space,space,down,34974,27521,34465,34974,2,legacy,824,1536,24,864,24,0,0,1536,1646038939446,1024,2,48000,-16,experiment,p3sarrshacol3.png,1,odd,Win32,80,139392,136377,80,80,662556,664063,657552,140909,657552,80,842092,843601,839093,664064,839093,visual_patterns,0,0,0,yes,1366
undefined,undefined,undefined,undefined,white,no,Mozilla,Netscape,"5.0 (Windows NT 10.0; Win64; x64) AppleWebKit/537.36 (KHTML, like Gecko) Chrome/98.0.4758.102 Safari/537.36",xpyriment,legacy,legacy,0,uniform,0,0,0,0,24,24,24,0,0,74,74,74,74,74,0,74,0,32,32,32,32,32,0,32,28-01-22,28-01-22,10:01:30,Mon Feb 28 2022 10:01:30 GMT+0100 (közép-európai téli idő),The main experiment item,yes,0,0,C:/Users/rrics/Documents/!!ResearchBMECOGSCI/gnet,0,0,0,prototype1.png,no,mono,no,18,no,black,no,no,768,1153,3.5.6,legacy,xpyriment,osweb,1.3.13,0,down,space,space,down,34974,27521,34465,34974,2,legacy,824,1536,24,864,24,0,0,1536,1646038939446,1024,2,48000,-16,experiment,p2sarrcol4.png,1,odd,Win32,80,139392,136377,80,80,662556,664063,657552,140909,657552,80,846610,848117,843607,664064,843607,visual_patterns,0,0,0,yes,1366
undefined,undefined,undefined,undefined,white,no,Mozilla,Netscape,"5.0 (Windows NT 10.0; Win64; x64) AppleWebKit/537.36 (KHTML, like Gecko) Chrome/98.0.4758.102 Safari/537.36",xpyriment,legacy,legacy,0,uniform,0,0,0,0,24,24,24,0,0,74,74,74,74,74,0,74,0,33,33,33,33,33,0,33,28-01-22,28-01-22,10:01:30,Mon Feb 28 2022 10:01:30 GMT+0100 (közép-európai téli idő),The main experiment item,yes,0,0,C:/Users/rrics/Documents/!!ResearchBMECOGSCI/gnet,0,0,0,prototype1.png,no,mono,no,18,no,black,no,no,768,1153,3.5.6,legacy,xpyriment,osweb,1.3.13,0,down,space,space,down,34974,27521,34465,34974,2,legacy,824,1536,24,864,24,0,0,1536,1646038939446,1024,2,48000,-16,experiment,p5sarrcol1.png,1,odd,Win32,80,139392,136377,80,80,662556,664063,657552,140909,657552,80,851127,852632,848122,664064,848122,visual_patterns,0,0,0,yes,1366
undefined,undefined,undefined,undefined,white,no,Mozilla,Netscape,"5.0 (Windows NT 10.0; Win64; x64) AppleWebKit/537.36 (KHTML, like Gecko) Chrome/98.0.4758.102 Safari/537.36",xpyriment,legacy,legacy,0,uniform,0,0,0,0,24,24,24,0,0,74,74,74,74,74,0,74,0,34,34,34,34,34,0,34,28-01-22,28-01-22,10:01:30,Mon Feb 28 2022 10:01:30 GMT+0100 (közép-európai téli idő),The main experiment item,yes,0,0,C:/Users/rrics/Documents/!!ResearchBMECOGSCI/gnet,0,0,0,prototype1.png,no,mono,no,18,no,black,no,no,768,1153,3.5.6,legacy,xpyriment,osweb,1.3.13,0,down,space,space,down,34974,27521,34465,34974,2,legacy,824,1536,24,864,24,0,0,1536,1646038939446,1024,2,48000,-16,experiment,p8sarr2.png,1,odd,Win32,80,139392,136377,80,80,662556,664063,657552,140909,657552,80,855648,857163,852643,664064,852643,visual_patterns,0,0,0,yes,1366
undefined,undefined,undefined,undefined,white,no,Mozilla,Netscape,"5.0 (Windows NT 10.0; Win64; x64) AppleWebKit/537.36 (KHTML, like Gecko) Chrome/98.0.4758.102 Safari/537.36",xpyriment,legacy,legacy,0,uniform,0,0,0,0,24,24,24,0,0,74,74,74,74,74,0,74,0,35,35,35,35,35,0,35,28-01-22,28-01-22,10:01:30,Mon Feb 28 2022 10:01:30 GMT+0100 (közép-európai téli idő),The main experiment item,yes,0,0,C:/Users/rrics/Documents/!!ResearchBMECOGSCI/gnet,0,0,0,prototype1.png,no,mono,no,18,no,black,no,no,768,1153,3.5.6,legacy,xpyriment,osweb,1.3.13,0,down,space,space,down,34974,27521,34465,34974,2,legacy,824,1536,24,864,24,0,0,1536,1646038939446,1024,2,48000,-16,experiment,p5sarr3.png,1,odd,Win32,80,139392,136377,80,80,662556,664063,657552,140909,657552,80,860169,861679,857169,664064,857169,visual_patterns,0,0,0,yes,1366
undefined,undefined,undefined,undefined,white,no,Mozilla,Netscape,"5.0 (Windows NT 10.0; Win64; x64) AppleWebKit/537.36 (KHTML, like Gecko) Chrome/98.0.4758.102 Safari/537.36",xpyriment,legacy,legacy,0,uniform,0,0,0,0,24,24,24,0,0,74,74,74,74,74,0,74,0,36,36,36,36,36,0,36,28-01-22,28-01-22,10:01:30,Mon Feb 28 2022 10:01:30 GMT+0100 (közép-európai téli idő),The main experiment item,yes,0,0,C:/Users/rrics/Documents/!!ResearchBMECOGSCI/gnet,0,0,0,prototype1.png,no,mono,no,18,no,black,no,no,768,1153,3.5.6,legacy,xpyriment,osweb,1.3.13,0,down,space,space,down,34974,27521,34465,34974,2,legacy,824,1536,24,864,24,0,0,1536,1646038939446,1024,2,48000,-16,experiment,p7sarr1.png,1,odd,Win32,80,139392,136377,80,80,662556,664063,657552,140909,657552,80,864683,866194,861683,664064,861683,visual_patterns,0,0,0,yes,1366
undefined,undefined,undefined,undefined,white,no,Mozilla,Netscape,"5.0 (Windows NT 10.0; Win64; x64) AppleWebKit/537.36 (KHTML, like Gecko) Chrome/98.0.4758.102 Safari/537.36",xpyriment,legacy,legacy,0,uniform,0,0,0,0,24,24,24,0,0,74,74,74,74,74,0,74,0,37,37,37,37,37,0,37,28-01-22,28-01-22,10:01:30,Mon Feb 28 2022 10:01:30 GMT+0100 (közép-európai téli idő),The main experiment item,yes,0,0,C:/Users/rrics/Documents/!!ResearchBMECOGSCI/gnet,0,0,0,prototype1.png,no,mono,no,18,no,black,no,no,768,1153,3.5.6,legacy,xpyriment,osweb,1.3.13,0,down,space,space,down,34974,27521,34465,34974,2,legacy,824,1536,24,864,24,0,0,1536,1646038939446,1024,2,48000,-16,experiment,p1sarrcol4.png,1,odd,Win32,80,139392,136377,80,80,662556,664063,657552,140909,657552,80,869204,870709,866199,664064,866199,visual_patterns,0,0,0,yes,1366
undefined,undefined,undefined,undefined,white,no,Mozilla,Netscape,"5.0 (Windows NT 10.0; Win64; x64) AppleWebKit/537.36 (KHTML, like Gecko) Chrome/98.0.4758.102 Safari/537.36",xpyriment,legacy,legacy,0,uniform,0,0,0,0,24,24,24,0,0,74,74,74,74,74,0,74,0,38,38,38,38,38,0,38,28-01-22,28-01-22,10:01:30,Mon Feb 28 2022 10:01:30 GMT+0100 (közép-európai téli idő),The main experiment item,yes,0,0,C:/Users/rrics/Documents/!!ResearchBMECOGSCI/gnet,0,0,0,prototype1.png,no,mono,no,18,no,black,no,no,768,1153,3.5.6,legacy,xpyriment,osweb,1.3.13,0,down,space,space,down,34974,27521,34465,34974,2,legacy,824,1536,24,864,24,0,0,1536,1646038939446,1024,2,48000,-16,experiment,p3sarrsha4.png,1,odd,Win32,80,139392,136377,80,80,662556,664063,657552,140909,657552,80,873719,875224,870715,664064,870715,visual_patterns,0,0,0,yes,1366
undefined,undefined,undefined,undefined,white,no,Mozilla,Netscape,"5.0 (Windows NT 10.0; Win64; x64) AppleWebKit/537.36 (KHTML, like Gecko) Chrome/98.0.4758.102 Safari/537.36",xpyriment,legacy,legacy,0,uniform,0,0,0,0,24,24,24,0,0,74,74,74,74,74,0,74,0,39,39,39,39,39,0,39,28-01-22,28-01-22,10:01:30,Mon Feb 28 2022 10:01:30 GMT+0100 (közép-európai téli idő),The main experiment item,yes,0,0,C:/Users/rrics/Documents/!!ResearchBMECOGSCI/gnet,0,0,0,prototype1.png,no,mono,no,18,no,black,no,no,768,1153,3.5.6,legacy,xpyriment,osweb,1.3.13,0,down,space,space,down,34974,27521,34465,34974,2,legacy,824,1536,24,864,24,0,0,1536,1646038939446,1024,2,48000,-16,experiment,p3sarr1.png,1,odd,Win32,80,139392,136377,80,80,662556,664063,657552,140909,657552,80,878239,879756,875236,664064,875236,visual_patterns,0,0,0,yes,1366
undefined,undefined,undefined,undefined,white,no,Mozilla,Netscape,"5.0 (Windows NT 10.0; Win64; x64) AppleWebKit/537.36 (KHTML, like Gecko) Chrome/98.0.4758.102 Safari/537.36",xpyriment,legacy,legacy,0,uniform,0,0,0,0,24,24,24,0,0,74,74,74,74,74,0,74,0,40,40,40,40,40,0,40,28-01-22,28-01-22,10:01:30,Mon Feb 28 2022 10:01:30 GMT+0100 (közép-európai téli idő),The main experiment item,yes,0,0,C:/Users/rrics/Documents/!!ResearchBMECOGSCI/gnet,0,0,0,prototype1.png,no,mono,no,18,no,black,no,no,768,1153,3.5.6,legacy,xpyriment,osweb,1.3.13,0,down,space,space,down,34974,27521,34465,34974,2,legacy,824,1536,24,864,24,0,0,1536,1646038939446,1024,2,48000,-16,experiment,p2sarrsha3.png,1,odd,Win32,80,139392,136377,80,80,662556,664063,657552,140909,657552,80,882762,884271,879761,664064,879761,visual_patterns,0,0,0,yes,1366
undefined,undefined,undefined,undefined,white,no,Mozilla,Netscape,"5.0 (Windows NT 10.0; Win64; x64) AppleWebKit/537.36 (KHTML, like Gecko) Chrome/98.0.4758.102 Safari/537.36",xpyriment,legacy,legacy,0,uniform,0,0,0,0,24,24,24,0,0,74,74,74,74,74,0,74,0,41,41,41,41,41,0,41,28-01-22,28-01-22,10:01:30,Mon Feb 28 2022 10:01:30 GMT+0100 (közép-európai téli idő),The main experiment item,yes,0,0,C:/Users/rrics/Documents/!!ResearchBMECOGSCI/gnet,0,0,0,prototype1.png,no,mono,no,18,no,black,no,no,768,1153,3.5.6,legacy,xpyriment,osweb,1.3.13,0,down,space,space,down,34974,27521,34465,34974,2,legacy,824,1536,24,864,24,0,0,1536,1646038939446,1024,2,48000,-16,experiment,p9sarr3.png,1,odd,Win32,80,139392,136377,80,80,662556,664063,657552,140909,657552,80,887278,888786,884277,664064,884276,visual_patterns,0,0,0,yes,1366
undefined,undefined,undefined,undefined,white,no,Mozilla,Netscape,"5.0 (Windows NT 10.0; Win64; x64) AppleWebKit/537.36 (KHTML, like Gecko) Chrome/98.0.4758.102 Safari/537.36",xpyriment,legacy,legacy,0,uniform,0,0,0,0,24,24,24,0,0,74,74,74,74,74,0,74,0,42,42,42,42,42,0,42,28-01-22,28-01-22,10:01:30,Mon Feb 28 2022 10:01:30 GMT+0100 (közép-európai téli idő),The main experiment item,yes,0,0,C:/Users/rrics/Documents/!!ResearchBMECOGSCI/gnet,0,0,0,prototype1.png,no,mono,no,18,no,black,no,no,768,1153,3.5.6,legacy,xpyriment,osweb,1.3.13,0,down,space,space,down,34974,27521,34465,34974,2,legacy,824,1536,24,864,24,0,0,1536,1646038939446,1024,2,48000,-16,experiment,p10sarr4.png,1,odd,Win32,80,139392,136377,80,80,662556,664063,657552,140909,657552,80,891798,893301,888792,664064,888792,visual_patterns,0,0,0,yes,1366
undefined,undefined,undefined,undefined,white,no,Mozilla,Netscape,"5.0 (Windows NT 10.0; Win64; x64) AppleWebKit/537.36 (KHTML, like Gecko) Chrome/98.0.4758.102 Safari/537.36",xpyriment,legacy,legacy,0,uniform,0,0,0,0,24,24,24,0,0,74,74,74,74,74,0,74,0,43,43,43,43,43,0,43,28-01-22,28-01-22,10:01:30,Mon Feb 28 2022 10:01:30 GMT+0100 (közép-európai téli idő),The main experiment item,yes,0,0,C:/Users/rrics/Documents/!!ResearchBMECOGSCI/gnet,0,0,0,prototype1.png,no,mono,no,18,no,black,no,no,768,1153,3.5.6,legacy,xpyriment,osweb,1.3.13,0,down,space,space,down,34974,27521,34465,34974,2,legacy,824,1536,24,864,24,0,0,1536,1646038939446,1024,2,48000,-16,experiment,p4sarrcol1.png,1,odd,Win32,80,139392,136377,80,80,662556,664063,657552,140909,657552,80,896310,897816,893306,664064,893306,visual_patterns,0,0,0,yes,1366
undefined,undefined,undefined,undefined,white,no,Mozilla,Netscape,"5.0 (Windows NT 10.0; Win64; x64) AppleWebKit/537.36 (KHTML, like Gecko) Chrome/98.0.4758.102 Safari/537.36",xpyriment,legacy,legacy,0,uniform,0,0,0,0,24,24,24,0,0,74,74,74,74,74,0,74,0,44,44,44,44,44,0,44,28-01-22,28-01-22,10:01:30,Mon Feb 28 2022 10:01:30 GMT+0100 (közép-európai téli idő),The main experiment item,yes,0,0,C:/Users/rrics/Documents/!!ResearchBMECOGSCI/gnet,0,0,0,prototype1.png,no,mono,no,18,no,black,no,no,768,1153,3.5.6,legacy,xpyriment,osweb,1.3.13,0,down,space,space,down,34974,27521,34465,34974,2,legacy,824,1536,24,864,24,0,0,1536,1646038939446,1024,2,48000,-16,experiment,p5sarrshacol4.png,1,odd,Win32,80,139392,136377,80,80,662556,664063,657552,140909,657552,80,900832,902348,897828,664064,897828,visual_patterns,0,0,0,yes,1366
undefined,undefined,undefined,undefined,white,no,Mozilla,Netscape,"5.0 (Windows NT 10.0; Win64; x64) AppleWebKit/537.36 (KHTML, like Gecko) Chrome/98.0.4758.102 Safari/537.36",xpyriment,legacy,legacy,0,uniform,0,0,0,0,24,24,24,0,0,74,74,74,74,74,0,74,0,45,45,45,45,45,0,45,28-01-22,28-01-22,10:01:30,Mon Feb 28 2022 10:01:30 GMT+0100 (közép-európai téli idő),The main experiment item,yes,0,0,C:/Users/rrics/Documents/!!ResearchBMECOGSCI/gnet,0,0,0,prototype1.png,no,mono,no,18,no,black,no,no,768,1153,3.5.6,legacy,xpyriment,osweb,1.3.13,0,down,space,space,down,34974,27521,34465,34974,2,legacy,824,1536,24,864,24,0,0,1536,1646038939446,1024,2,48000,-16,experiment,p3sarr3.png,1,odd,Win32,80,139392,136377,80,80,662556,664063,657552,140909,657552,80,905355,906863,902354,664064,902354,visual_patterns,0,0,0,yes,1366
undefined,undefined,undefined,undefined,white,no,Mozilla,Netscape,"5.0 (Windows NT 10.0; Win64; x64) AppleWebKit/537.36 (KHTML, like Gecko) Chrome/98.0.4758.102 Safari/537.36",xpyriment,legacy,legacy,0,uniform,0,0,0,0,24,24,24,0,0,74,74,74,74,74,0,74,0,46,46,46,46,46,0,46,28-01-22,28-01-22,10:01:30,Mon Feb 28 2022 10:01:30 GMT+0100 (közép-európai téli idő),The main experiment item,yes,0,0,C:/Users/rrics/Documents/!!ResearchBMECOGSCI/gnet,0,0,0,prototype1.png,no,mono,no,18,no,black,no,no,768,1153,3.5.6,legacy,xpyriment,osweb,1.3.13,0,down,space,space,down,34974,27521,34465,34974,2,legacy,824,1536,24,864,24,0,0,1536,1646038939446,1024,2,48000,-16,experiment,p2sarr3.png,1,odd,Win32,80,139392,136377,80,80,662556,664063,657552,140909,657552,80,909869,911378,906868,664064,906868,visual_patterns,0,0,0,yes,1366
undefined,undefined,undefined,undefined,white,no,Mozilla,Netscape,"5.0 (Windows NT 10.0; Win64; x64) AppleWebKit/537.36 (KHTML, like Gecko) Chrome/98.0.4758.102 Safari/537.36",xpyriment,legacy,legacy,0,uniform,0,0,0,0,24,24,24,0,0,74,74,74,74,74,0,74,0,47,47,47,47,47,0,47,28-01-22,28-01-22,10:01:30,Mon Feb 28 2022 10:01:30 GMT+0100 (közép-európai téli idő),The main experiment item,yes,0,0,C:/Users/rrics/Documents/!!ResearchBMECOGSCI/gnet,0,0,0,prototype1.png,no,mono,no,18,no,black,no,no,768,1153,3.5.6,legacy,xpyriment,osweb,1.3.13,0,down,space,space,down,34974,27521,34465,34974,2,legacy,824,1536,24,864,24,0,0,1536,1646038939446,1024,2,48000,-16,experiment,p4sarr2.png,1,odd,Win32,80,139392,136377,80,80,662556,664063,657552,140909,657552,80,914388,915893,911383,664064,911383,visual_patterns,0,0,0,yes,1366
undefined,undefined,undefined,undefined,white,no,Mozilla,Netscape,"5.0 (Windows NT 10.0; Win64; x64) AppleWebKit/537.36 (KHTML, like Gecko) Chrome/98.0.4758.102 Safari/537.36",xpyriment,legacy,legacy,0,uniform,0,0,0,0,24,24,24,0,0,74,74,74,74,74,0,74,0,48,48,48,48,48,0,48,28-01-22,28-01-22,10:01:30,Mon Feb 28 2022 10:01:30 GMT+0100 (közép-európai téli idő),The main experiment item,yes,0,0,C:/Users/rrics/Documents/!!ResearchBMECOGSCI/gnet,0,0,0,prototype1.png,no,mono,no,18,no,black,no,no,768,1153,3.5.6,legacy,xpyriment,osweb,1.3.13,0,down,space,space,down,34974,27521,34465,34974,2,legacy,824,1536,24,864,24,0,0,1536,1646038939446,1024,2,48000,-16,experiment,p2sarrshacol3.png,1,odd,Win32,80,139392,136377,80,80,662556,664063,657552,140909,657552,80,918899,920409,915899,664064,915899,visual_patterns,0,0,0,yes,1366
