acc,accuracy,average_response_time,avg_rt,background,bidi,browser_codename,browser_name,browser_version,canvas_backend,clock_backend,color_backend,compensation,coordinates,count_end,count_experiment,count_osweb,count_prestudy,count_prestudy_isi,count_prestudy_sequence,count_prestudy_stimpres,count_start,count_study,count_study_coroutines,count_study_isi,count_study_logger,count_study_response,count_study_sequence,count_study_start,count_study_stimpres,count_test,count_test_coroutines,count_test_isi,count_test_logger,count_test_response,count_test_sequence,count_test_start,count_test_stimpres,date_startdate,date_startdateUTC,date_starttime,datetime,description,disable_garbage_collection,experiment_debug,experiment_parameters,experiment_path,experiment_pilot,experiment_taskname,experiment_taskversion,fampict,font_bold,font_family,font_italic,font_size,font_underline,foreground,form_clicks,fullscreen,height,jatosStudyResultId,jatosVersion,keyboard_backend,mouse_backend,opensesame_codename,opensesame_version,repeat_cycle,response,response_start,response_study_start,response_test_start,response_time,response_time_start,response_time_study_start,response_time_test_start,round_decimals,sampler_backend,screen_availableHeight,screen_availableWidth,screen_colorDepth,screen_height,screen_pixelDepth,screen_screenX,screen_screenY,screen_width,sessionid,sound_buf_size,sound_channels,sound_freq,sound_sample_size,start,stim,subject_nr,subject_parity,system_os,time_prestudy,time_prestudy_isi,time_prestudy_stimpres,time_start,time_study,time_study_isi,time_study_logger,time_study_response,time_study_start,time_study_stimpres,time_test,time_test_isi,time_test_logger,time_test_response,time_test_start,time_test_stimpres,title,total_correct,total_response_time,total_responses,uniform_coordinates,width
undefined,undefined,undefined,undefined,white,no,Mozilla,Netscape,"5.0 (Windows NT 10.0; Win64; x64) AppleWebKit/537.36 (KHTML, like Gecko) Chrome/98.0.4758.102 Safari/537.36",xpyriment,legacy,legacy,0,uniform,0,0,0,0,24,24,24,0,0,0,0,0,0,0,0,0,0,,,,,,0,,28-01-22,28-01-22,15:05:17,Mon Feb 28 2022 15:05:17 GMT+0100 (közép-európai téli idő),The main experiment item,yes,0,0,C:/Users/rrics/Documents/!!ResearchBMECOGSCI/gnet,0,0,0,prototype3.png,no,mono,no,18,no,black,no,no,768,1154,3.5.6,legacy,xpyriment,osweb,1.3.13,0,up,space,up,,31196,23375,31196,,2,legacy,860,1600,24,900,24,0,0,1600,1646057178731,1024,2,48000,-16,experiment,p6sarr1.png,0,even,Win32,164,135321,132314,163,164,173073,174581,168073,136841,168073,164,,,,,,visual_patterns,0,0,0,yes,1366
undefined,undefined,undefined,undefined,white,no,Mozilla,Netscape,"5.0 (Windows NT 10.0; Win64; x64) AppleWebKit/537.36 (KHTML, like Gecko) Chrome/98.0.4758.102 Safari/537.36",xpyriment,legacy,legacy,0,uniform,0,0,0,0,24,24,24,0,0,1,1,1,1,1,0,1,0,,,,,,0,,28-01-22,28-01-22,15:05:17,Mon Feb 28 2022 15:05:17 GMT+0100 (közép-európai téli idő),The main experiment item,yes,0,0,C:/Users/rrics/Documents/!!ResearchBMECOGSCI/gnet,0,0,0,prototype3.png,no,mono,no,18,no,black,no,no,768,1154,3.5.6,legacy,xpyriment,osweb,1.3.13,0,up,space,up,,31196,23375,31196,,2,legacy,860,1600,24,900,24,0,0,1600,1646057178731,1024,2,48000,-16,experiment,prototype3.png,0,even,Win32,164,135321,132314,163,164,179628,181135,174625,136841,174625,164,,,,,,visual_patterns,0,0,0,yes,1366
undefined,undefined,undefined,undefined,white,no,Mozilla,Netscape,"5.0 (Windows NT 10.0; Win64; x64) AppleWebKit/537.36 (KHTML, like Gecko) Chrome/98.0.4758.102 Safari/537.36",xpyriment,legacy,legacy,0,uniform,0,0,0,0,24,24,24,0,0,2,2,2,2,2,0,2,0,,,,,,0,,28-01-22,28-01-22,15:05:17,Mon Feb 28 2022 15:05:17 GMT+0100 (közép-európai téli idő),The main experiment item,yes,0,0,C:/Users/rrics/Documents/!!ResearchBMECOGSCI/gnet,0,0,0,prototype3.png,no,mono,no,18,no,black,no,no,768,1154,3.5.6,legacy,xpyriment,osweb,1.3.13,0,up,space,up,,31196,23375,31196,,2,legacy,860,1600,24,900,24,0,0,1600,1646057178731,1024,2,48000,-16,experiment,p3sarr1.png,0,even,Win32,164,135321,132314,163,164,186164,187675,181180,136841,181179,164,,,,,,visual_patterns,0,0,0,yes,1366
undefined,undefined,undefined,undefined,white,no,Mozilla,Netscape,"5.0 (Windows NT 10.0; Win64; x64) AppleWebKit/537.36 (KHTML, like Gecko) Chrome/98.0.4758.102 Safari/537.36",xpyriment,legacy,legacy,0,uniform,0,0,0,0,24,24,24,0,0,3,3,3,3,3,0,3,0,,,,,,0,,28-01-22,28-01-22,15:05:17,Mon Feb 28 2022 15:05:17 GMT+0100 (közép-európai téli idő),The main experiment item,yes,0,0,C:/Users/rrics/Documents/!!ResearchBMECOGSCI/gnet,0,0,0,prototype3.png,no,mono,no,18,no,black,no,no,768,1154,3.5.6,legacy,xpyriment,osweb,1.3.13,0,up,space,up,,31196,23375,31196,,2,legacy,860,1600,24,900,24,0,0,1600,1646057178731,1024,2,48000,-16,experiment,p9sarr2.png,0,even,Win32,164,135321,132314,163,164,192713,194215,187731,136841,187731,164,,,,,,visual_patterns,0,0,0,yes,1366
undefined,undefined,undefined,undefined,white,no,Mozilla,Netscape,"5.0 (Windows NT 10.0; Win64; x64) AppleWebKit/537.36 (KHTML, like Gecko) Chrome/98.0.4758.102 Safari/537.36",xpyriment,legacy,legacy,0,uniform,0,0,0,0,24,24,24,0,0,4,4,4,4,4,0,4,0,,,,,,0,,28-01-22,28-01-22,15:05:17,Mon Feb 28 2022 15:05:17 GMT+0100 (közép-európai téli idő),The main experiment item,yes,0,0,C:/Users/rrics/Documents/!!ResearchBMECOGSCI/gnet,0,0,0,prototype3.png,no,mono,no,18,no,black,no,no,768,1154,3.5.6,legacy,xpyriment,osweb,1.3.13,0,up,space,up,,31196,23375,31196,,2,legacy,860,1600,24,900,24,0,0,1600,1646057178731,1024,2,48000,-16,experiment,p4sarr2.png,0,even,Win32,164,135321,132314,163,164,199246,200755,194251,136841,194251,164,,,,,,visual_patterns,0,0,0,yes,1366
undefined,undefined,undefined,undefined,white,no,Mozilla,Netscape,"5.0 (Windows NT 10.0; Win64; x64) AppleWebKit/537.36 (KHTML, like Gecko) Chrome/98.0.4758.102 Safari/537.36",xpyriment,legacy,legacy,0,uniform,0,0,0,0,24,24,24,0,0,5,5,5,5,5,0,5,0,,,,,,0,,28-01-22,28-01-22,15:05:17,Mon Feb 28 2022 15:05:17 GMT+0100 (közép-európai téli idő),The main experiment item,yes,0,0,C:/Users/rrics/Documents/!!ResearchBMECOGSCI/gnet,0,0,0,prototype3.png,no,mono,no,18,no,black,no,no,768,1154,3.5.6,legacy,xpyriment,osweb,1.3.13,0,up,space,up,,31196,23375,31196,,2,legacy,860,1600,24,900,24,0,0,1600,1646057178731,1024,2,48000,-16,experiment,p4sarrshacol2.png,0,even,Win32,164,135321,132314,163,164,205786,207296,200800,136841,200797,164,,,,,,visual_patterns,0,0,0,yes,1366
undefined,undefined,undefined,undefined,white,no,Mozilla,Netscape,"5.0 (Windows NT 10.0; Win64; x64) AppleWebKit/537.36 (KHTML, like Gecko) Chrome/98.0.4758.102 Safari/537.36",xpyriment,legacy,legacy,0,uniform,0,0,0,0,24,24,24,0,0,6,6,6,6,6,0,6,0,,,,,,0,,28-01-22,28-01-22,15:05:17,Mon Feb 28 2022 15:05:17 GMT+0100 (közép-európai téli idő),The main experiment item,yes,0,0,C:/Users/rrics/Documents/!!ResearchBMECOGSCI/gnet,0,0,0,prototype3.png,no,mono,no,18,no,black,no,no,768,1154,3.5.6,legacy,xpyriment,osweb,1.3.13,0,up,space,up,,31196,23375,31196,,2,legacy,860,1600,24,900,24,0,0,1600,1646057178731,1024,2,48000,-16,experiment,p5sarrsha2.png,0,even,Win32,164,135321,132314,163,164,212329,213836,207338,136841,207338,164,,,,,,visual_patterns,0,0,0,yes,1366
undefined,undefined,undefined,undefined,white,no,Mozilla,Netscape,"5.0 (Windows NT 10.0; Win64; x64) AppleWebKit/537.36 (KHTML, like Gecko) Chrome/98.0.4758.102 Safari/537.36",xpyriment,legacy,legacy,0,uniform,0,0,0,0,24,24,24,0,0,7,7,7,7,7,0,7,0,,,,,,0,,28-01-22,28-01-22,15:05:17,Mon Feb 28 2022 15:05:17 GMT+0100 (közép-európai téli idő),The main experiment item,yes,0,0,C:/Users/rrics/Documents/!!ResearchBMECOGSCI/gnet,0,0,0,prototype3.png,no,mono,no,18,no,black,no,no,768,1154,3.5.6,legacy,xpyriment,osweb,1.3.13,0,up,space,up,,31196,23375,31196,,2,legacy,860,1600,24,900,24,0,0,1600,1646057178731,1024,2,48000,-16,experiment,p2sarr1.png,0,even,Win32,164,135321,132314,163,164,218864,220376,213872,136841,213872,164,,,,,,visual_patterns,0,0,0,yes,1366
undefined,undefined,undefined,undefined,white,no,Mozilla,Netscape,"5.0 (Windows NT 10.0; Win64; x64) AppleWebKit/537.36 (KHTML, like Gecko) Chrome/98.0.4758.102 Safari/537.36",xpyriment,legacy,legacy,0,uniform,0,0,0,0,24,24,24,0,0,8,8,8,8,8,0,8,0,,,,,,0,,28-01-22,28-01-22,15:05:17,Mon Feb 28 2022 15:05:17 GMT+0100 (közép-európai téli idő),The main experiment item,yes,0,0,C:/Users/rrics/Documents/!!ResearchBMECOGSCI/gnet,0,0,0,prototype3.png,no,mono,no,18,no,black,no,no,768,1154,3.5.6,legacy,xpyriment,osweb,1.3.13,0,up,space,up,,31196,23375,31196,,2,legacy,860,1600,24,900,24,0,0,1600,1646057178731,1024,2,48000,-16,experiment,prototype4.png,0,even,Win32,164,135321,132314,163,164,225406,226917,220406,136841,220406,164,,,,,,visual_patterns,0,0,0,yes,1366
undefined,undefined,undefined,undefined,white,no,Mozilla,Netscape,"5.0 (Windows NT 10.0; Win64; x64) AppleWebKit/537.36 (KHTML, like Gecko) Chrome/98.0.4758.102 Safari/537.36",xpyriment,legacy,legacy,0,uniform,0,0,0,0,24,24,24,0,0,9,9,9,9,9,0,9,0,,,,,,0,,28-01-22,28-01-22,15:05:17,Mon Feb 28 2022 15:05:17 GMT+0100 (közép-európai téli idő),The main experiment item,yes,0,0,C:/Users/rrics/Documents/!!ResearchBMECOGSCI/gnet,0,0,0,prototype3.png,no,mono,no,18,no,black,no,no,768,1154,3.5.6,legacy,xpyriment,osweb,1.3.13,0,up,space,up,,31196,23375,31196,,2,legacy,860,1600,24,900,24,0,0,1600,1646057178731,1024,2,48000,-16,experiment,p5sarrsha1.png,0,even,Win32,164,135321,132314,163,164,231947,233457,226955,136841,226955,164,,,,,,visual_patterns,0,0,0,yes,1366
undefined,undefined,undefined,undefined,white,no,Mozilla,Netscape,"5.0 (Windows NT 10.0; Win64; x64) AppleWebKit/537.36 (KHTML, like Gecko) Chrome/98.0.4758.102 Safari/537.36",xpyriment,legacy,legacy,0,uniform,0,0,0,0,24,24,24,0,0,10,10,10,10,10,0,10,0,,,,,,0,,28-01-22,28-01-22,15:05:17,Mon Feb 28 2022 15:05:17 GMT+0100 (közép-európai téli idő),The main experiment item,yes,0,0,C:/Users/rrics/Documents/!!ResearchBMECOGSCI/gnet,0,0,0,prototype3.png,no,mono,no,18,no,black,no,no,768,1154,3.5.6,legacy,xpyriment,osweb,1.3.13,0,up,space,up,,31196,23375,31196,,2,legacy,860,1600,24,900,24,0,0,1600,1646057178731,1024,2,48000,-16,experiment,p5sarrcol1.png,0,even,Win32,164,135321,132314,163,164,238487,239997,233496,136841,233496,164,,,,,,visual_patterns,0,0,0,yes,1366
undefined,undefined,undefined,undefined,white,no,Mozilla,Netscape,"5.0 (Windows NT 10.0; Win64; x64) AppleWebKit/537.36 (KHTML, like Gecko) Chrome/98.0.4758.102 Safari/537.36",xpyriment,legacy,legacy,0,uniform,0,0,0,0,24,24,24,0,0,11,11,11,11,11,0,11,0,,,,,,0,,28-01-22,28-01-22,15:05:17,Mon Feb 28 2022 15:05:17 GMT+0100 (közép-európai téli idő),The main experiment item,yes,0,0,C:/Users/rrics/Documents/!!ResearchBMECOGSCI/gnet,0,0,0,prototype3.png,no,mono,no,18,no,black,no,no,768,1154,3.5.6,legacy,xpyriment,osweb,1.3.13,0,up,space,up,,31196,23375,31196,,2,legacy,860,1600,24,900,24,0,0,1600,1646057178731,1024,2,48000,-16,experiment,p8sarr2.png,0,even,Win32,164,135321,132314,163,164,245029,246537,240044,136841,240044,164,,,,,,visual_patterns,0,0,0,yes,1366
undefined,undefined,undefined,undefined,white,no,Mozilla,Netscape,"5.0 (Windows NT 10.0; Win64; x64) AppleWebKit/537.36 (KHTML, like Gecko) Chrome/98.0.4758.102 Safari/537.36",xpyriment,legacy,legacy,0,uniform,0,0,0,0,24,24,24,0,0,12,12,12,12,12,0,12,0,,,,,,0,,28-01-22,28-01-22,15:05:17,Mon Feb 28 2022 15:05:17 GMT+0100 (közép-európai téli idő),The main experiment item,yes,0,0,C:/Users/rrics/Documents/!!ResearchBMECOGSCI/gnet,0,0,0,prototype3.png,no,mono,no,18,no,black,no,no,768,1154,3.5.6,legacy,xpyriment,osweb,1.3.13,0,up,space,up,,31196,23375,31196,,2,legacy,860,1600,24,900,24,0,0,1600,1646057178731,1024,2,48000,-16,experiment,p5sarrshacol2.png,0,even,Win32,164,135321,132314,163,164,251568,253078,246572,136841,246572,164,,,,,,visual_patterns,0,0,0,yes,1366
undefined,undefined,undefined,undefined,white,no,Mozilla,Netscape,"5.0 (Windows NT 10.0; Win64; x64) AppleWebKit/537.36 (KHTML, like Gecko) Chrome/98.0.4758.102 Safari/537.36",xpyriment,legacy,legacy,0,uniform,0,0,0,0,24,24,24,0,0,13,13,13,13,13,0,13,0,,,,,,0,,28-01-22,28-01-22,15:05:17,Mon Feb 28 2022 15:05:17 GMT+0100 (közép-európai téli idő),The main experiment item,yes,0,0,C:/Users/rrics/Documents/!!ResearchBMECOGSCI/gnet,0,0,0,prototype3.png,no,mono,no,18,no,black,no,no,768,1154,3.5.6,legacy,xpyriment,osweb,1.3.13,0,up,space,up,,31196,23375,31196,,2,legacy,860,1600,24,900,24,0,0,1600,1646057178731,1024,2,48000,-16,experiment,p8sarr1.png,0,even,Win32,164,135321,132314,163,164,258106,259618,253124,136841,253124,164,,,,,,visual_patterns,0,0,0,yes,1366
undefined,undefined,undefined,undefined,white,no,Mozilla,Netscape,"5.0 (Windows NT 10.0; Win64; x64) AppleWebKit/537.36 (KHTML, like Gecko) Chrome/98.0.4758.102 Safari/537.36",xpyriment,legacy,legacy,0,uniform,0,0,0,0,24,24,24,0,0,14,14,14,14,14,0,14,0,,,,,,0,,28-01-22,28-01-22,15:05:17,Mon Feb 28 2022 15:05:17 GMT+0100 (közép-európai téli idő),The main experiment item,yes,0,0,C:/Users/rrics/Documents/!!ResearchBMECOGSCI/gnet,0,0,0,prototype3.png,no,mono,no,18,no,black,no,no,768,1154,3.5.6,legacy,xpyriment,osweb,1.3.13,0,up,space,up,,31196,23375,31196,,2,legacy,860,1600,24,900,24,0,0,1600,1646057178731,1024,2,48000,-16,experiment,p3sarrcol1.png,0,even,Win32,164,135321,132314,163,164,264646,266158,259657,136841,259657,164,,,,,,visual_patterns,0,0,0,yes,1366
undefined,undefined,undefined,undefined,white,no,Mozilla,Netscape,"5.0 (Windows NT 10.0; Win64; x64) AppleWebKit/537.36 (KHTML, like Gecko) Chrome/98.0.4758.102 Safari/537.36",xpyriment,legacy,legacy,0,uniform,0,0,0,0,24,24,24,0,0,15,15,15,15,15,0,15,0,,,,,,0,,28-01-22,28-01-22,15:05:17,Mon Feb 28 2022 15:05:17 GMT+0100 (közép-európai téli idő),The main experiment item,yes,0,0,C:/Users/rrics/Documents/!!ResearchBMECOGSCI/gnet,0,0,0,prototype3.png,no,mono,no,18,no,black,no,no,768,1154,3.5.6,legacy,xpyriment,osweb,1.3.13,0,up,space,up,,31196,23375,31196,,2,legacy,860,1600,24,900,24,0,0,1600,1646057178731,1024,2,48000,-16,experiment,prototype1.png,0,even,Win32,164,135321,132314,163,164,271189,272698,266187,136841,266187,164,,,,,,visual_patterns,0,0,0,yes,1366
undefined,undefined,undefined,undefined,white,no,Mozilla,Netscape,"5.0 (Windows NT 10.0; Win64; x64) AppleWebKit/537.36 (KHTML, like Gecko) Chrome/98.0.4758.102 Safari/537.36",xpyriment,legacy,legacy,0,uniform,0,0,0,0,24,24,24,0,0,16,16,16,16,16,0,16,0,,,,,,0,,28-01-22,28-01-22,15:05:17,Mon Feb 28 2022 15:05:17 GMT+0100 (közép-európai téli idő),The main experiment item,yes,0,0,C:/Users/rrics/Documents/!!ResearchBMECOGSCI/gnet,0,0,0,prototype3.png,no,mono,no,18,no,black,no,no,768,1154,3.5.6,legacy,xpyriment,osweb,1.3.13,0,up,space,up,,31196,23375,31196,,2,legacy,860,1600,24,900,24,0,0,1600,1646057178731,1024,2,48000,-16,experiment,p2sarr2.png,0,even,Win32,164,135321,132314,163,164,277728,279239,272739,136841,272738,164,,,,,,visual_patterns,0,0,0,yes,1366
undefined,undefined,undefined,undefined,white,no,Mozilla,Netscape,"5.0 (Windows NT 10.0; Win64; x64) AppleWebKit/537.36 (KHTML, like Gecko) Chrome/98.0.4758.102 Safari/537.36",xpyriment,legacy,legacy,0,uniform,0,0,0,0,24,24,24,0,0,17,17,17,17,17,0,17,0,,,,,,0,,28-01-22,28-01-22,15:05:17,Mon Feb 28 2022 15:05:17 GMT+0100 (közép-európai téli idő),The main experiment item,yes,0,0,C:/Users/rrics/Documents/!!ResearchBMECOGSCI/gnet,0,0,0,prototype3.png,no,mono,no,18,no,black,no,no,768,1154,3.5.6,legacy,xpyriment,osweb,1.3.13,0,up,space,up,,31196,23375,31196,,2,legacy,860,1600,24,900,24,0,0,1600,1646057178731,1024,2,48000,-16,experiment,p3sarrsha2.png,0,even,Win32,164,135321,132314,163,164,284270,285779,279278,136841,279278,164,,,,,,visual_patterns,0,0,0,yes,1366
undefined,undefined,undefined,undefined,white,no,Mozilla,Netscape,"5.0 (Windows NT 10.0; Win64; x64) AppleWebKit/537.36 (KHTML, like Gecko) Chrome/98.0.4758.102 Safari/537.36",xpyriment,legacy,legacy,0,uniform,0,0,0,0,24,24,24,0,0,18,18,18,18,18,0,18,0,,,,,,0,,28-01-22,28-01-22,15:05:17,Mon Feb 28 2022 15:05:17 GMT+0100 (közép-európai téli idő),The main experiment item,yes,0,0,C:/Users/rrics/Documents/!!ResearchBMECOGSCI/gnet,0,0,0,prototype3.png,no,mono,no,18,no,black,no,no,768,1154,3.5.6,legacy,xpyriment,osweb,1.3.13,0,up,space,up,,31196,23375,31196,,2,legacy,860,1600,24,900,24,0,0,1600,1646057178731,1024,2,48000,-16,experiment,prototype4.png,0,even,Win32,164,135321,132314,163,164,290805,292319,285806,136841,285806,164,,,,,,visual_patterns,0,0,0,yes,1366
undefined,undefined,undefined,undefined,white,no,Mozilla,Netscape,"5.0 (Windows NT 10.0; Win64; x64) AppleWebKit/537.36 (KHTML, like Gecko) Chrome/98.0.4758.102 Safari/537.36",xpyriment,legacy,legacy,0,uniform,0,0,0,0,24,24,24,0,0,19,19,19,19,19,0,19,0,,,,,,0,,28-01-22,28-01-22,15:05:17,Mon Feb 28 2022 15:05:17 GMT+0100 (közép-európai téli idő),The main experiment item,yes,0,0,C:/Users/rrics/Documents/!!ResearchBMECOGSCI/gnet,0,0,0,prototype3.png,no,mono,no,18,no,black,no,no,768,1154,3.5.6,legacy,xpyriment,osweb,1.3.13,0,up,space,up,,31196,23375,31196,,2,legacy,860,1600,24,900,24,0,0,1600,1646057178731,1024,2,48000,-16,experiment,p3sarrsha1.png,0,even,Win32,164,135321,132314,163,164,297350,298859,292354,136841,292354,164,,,,,,visual_patterns,0,0,0,yes,1366
undefined,undefined,undefined,undefined,white,no,Mozilla,Netscape,"5.0 (Windows NT 10.0; Win64; x64) AppleWebKit/537.36 (KHTML, like Gecko) Chrome/98.0.4758.102 Safari/537.36",xpyriment,legacy,legacy,0,uniform,0,0,0,0,24,24,24,0,0,20,20,20,20,20,0,20,0,,,,,,0,,28-01-22,28-01-22,15:05:17,Mon Feb 28 2022 15:05:17 GMT+0100 (közép-európai téli idő),The main experiment item,yes,0,0,C:/Users/rrics/Documents/!!ResearchBMECOGSCI/gnet,0,0,0,prototype3.png,no,mono,no,18,no,black,no,no,768,1154,3.5.6,legacy,xpyriment,osweb,1.3.13,0,up,space,up,,31196,23375,31196,,2,legacy,860,1600,24,900,24,0,0,1600,1646057178731,1024,2,48000,-16,experiment,prototype2.png,0,even,Win32,164,135321,132314,163,164,303887,305399,298887,136841,298887,164,,,,,,visual_patterns,0,0,0,yes,1366
undefined,undefined,undefined,undefined,white,no,Mozilla,Netscape,"5.0 (Windows NT 10.0; Win64; x64) AppleWebKit/537.36 (KHTML, like Gecko) Chrome/98.0.4758.102 Safari/537.36",xpyriment,legacy,legacy,0,uniform,0,0,0,0,24,24,24,0,0,21,21,21,21,21,0,21,0,,,,,,0,,28-01-22,28-01-22,15:05:17,Mon Feb 28 2022 15:05:17 GMT+0100 (közép-európai téli idő),The main experiment item,yes,0,0,C:/Users/rrics/Documents/!!ResearchBMECOGSCI/gnet,0,0,0,prototype3.png,no,mono,no,18,no,black,no,no,768,1154,3.5.6,legacy,xpyriment,osweb,1.3.13,0,up,space,up,,31196,23375,31196,,2,legacy,860,1600,24,900,24,0,0,1600,1646057178731,1024,2,48000,-16,experiment,p4sarrcol2.png,0,even,Win32,164,135321,132314,163,164,310430,311940,305444,136841,305440,164,,,,,,visual_patterns,0,0,0,yes,1366
undefined,undefined,undefined,undefined,white,no,Mozilla,Netscape,"5.0 (Windows NT 10.0; Win64; x64) AppleWebKit/537.36 (KHTML, like Gecko) Chrome/98.0.4758.102 Safari/537.36",xpyriment,legacy,legacy,0,uniform,0,0,0,0,24,24,24,0,0,22,22,22,22,22,0,22,0,,,,,,0,,28-01-22,28-01-22,15:05:17,Mon Feb 28 2022 15:05:17 GMT+0100 (közép-európai téli idő),The main experiment item,yes,0,0,C:/Users/rrics/Documents/!!ResearchBMECOGSCI/gnet,0,0,0,prototype3.png,no,mono,no,18,no,black,no,no,768,1154,3.5.6,legacy,xpyriment,osweb,1.3.13,0,up,space,up,,31196,23375,31196,,2,legacy,860,1600,24,900,24,0,0,1600,1646057178731,1024,2,48000,-16,experiment,p5sarrshacol1.png,0,even,Win32,164,135321,132314,163,164,316971,318480,311976,136841,311976,164,,,,,,visual_patterns,0,0,0,yes,1366
undefined,undefined,undefined,undefined,white,no,Mozilla,Netscape,"5.0 (Windows NT 10.0; Win64; x64) AppleWebKit/537.36 (KHTML, like Gecko) Chrome/98.0.4758.102 Safari/537.36",xpyriment,legacy,legacy,0,uniform,0,0,0,0,24,24,24,0,0,23,23,23,23,23,0,23,0,,,,,,0,,28-01-22,28-01-22,15:05:17,Mon Feb 28 2022 15:05:17 GMT+0100 (közép-európai téli idő),The main experiment item,yes,0,0,C:/Users/rrics/Documents/!!ResearchBMECOGSCI/gnet,0,0,0,prototype3.png,no,mono,no,18,no,black,no,no,768,1154,3.5.6,legacy,xpyriment,osweb,1.3.13,0,up,space,up,,31196,23375,31196,,2,legacy,860,1600,24,900,24,0,0,1600,1646057178731,1024,2,48000,-16,experiment,prototype2.png,0,even,Win32,164,135321,132314,163,164,323511,325020,318512,136841,318511,164,,,,,,visual_patterns,0,0,0,yes,1366
undefined,undefined,undefined,undefined,white,no,Mozilla,Netscape,"5.0 (Windows NT 10.0; Win64; x64) AppleWebKit/537.36 (KHTML, like Gecko) Chrome/98.0.4758.102 Safari/537.36",xpyriment,legacy,legacy,0,uniform,0,0,0,0,24,24,24,0,0,24,24,24,24,24,0,24,0,,,,,,0,,28-01-22,28-01-22,15:05:17,Mon Feb 28 2022 15:05:17 GMT+0100 (közép-európai téli idő),The main experiment item,yes,0,0,C:/Users/rrics/Documents/!!ResearchBMECOGSCI/gnet,0,0,0,prototype3.png,no,mono,no,18,no,black,no,no,768,1154,3.5.6,legacy,xpyriment,osweb,1.3.13,0,up,space,up,,31196,23375,31196,,2,legacy,860,1600,24,900,24,0,0,1600,1646057178731,1024,2,48000,-16,experiment,p4sarrsha2.png,0,even,Win32,164,135321,132314,163,164,330045,331561,325052,136841,325052,164,,,,,,visual_patterns,0,0,0,yes,1366
undefined,undefined,undefined,undefined,white,no,Mozilla,Netscape,"5.0 (Windows NT 10.0; Win64; x64) AppleWebKit/537.36 (KHTML, like Gecko) Chrome/98.0.4758.102 Safari/537.36",xpyriment,legacy,legacy,0,uniform,0,0,0,0,24,24,24,0,0,25,25,25,25,25,0,25,0,,,,,,0,,28-01-22,28-01-22,15:05:17,Mon Feb 28 2022 15:05:17 GMT+0100 (közép-európai téli idő),The main experiment item,yes,0,0,C:/Users/rrics/Documents/!!ResearchBMECOGSCI/gnet,0,0,0,prototype3.png,no,mono,no,18,no,black,no,no,768,1154,3.5.6,legacy,xpyriment,osweb,1.3.13,0,up,space,up,,31196,23375,31196,,2,legacy,860,1600,24,900,24,0,0,1600,1646057178731,1024,2,48000,-16,experiment,p9sarr1.png,0,even,Win32,164,135321,132314,163,164,336641,338151,331642,136841,331642,164,,,,,,visual_patterns,0,0,0,yes,1366
undefined,undefined,undefined,undefined,white,no,Mozilla,Netscape,"5.0 (Windows NT 10.0; Win64; x64) AppleWebKit/537.36 (KHTML, like Gecko) Chrome/98.0.4758.102 Safari/537.36",xpyriment,legacy,legacy,0,uniform,0,0,0,0,24,24,24,0,0,26,26,26,26,26,0,26,0,,,,,,0,,28-01-22,28-01-22,15:05:17,Mon Feb 28 2022 15:05:17 GMT+0100 (közép-európai téli idő),The main experiment item,yes,0,0,C:/Users/rrics/Documents/!!ResearchBMECOGSCI/gnet,0,0,0,prototype3.png,no,mono,no,18,no,black,no,no,768,1154,3.5.6,legacy,xpyriment,osweb,1.3.13,0,up,space,up,,31196,23375,31196,,2,legacy,860,1600,24,900,24,0,0,1600,1646057178731,1024,2,48000,-16,experiment,prototype1.png,0,even,Win32,164,135321,132314,163,164,343179,344691,338177,136841,338177,164,,,,,,visual_patterns,0,0,0,yes,1366
undefined,undefined,undefined,undefined,white,no,Mozilla,Netscape,"5.0 (Windows NT 10.0; Win64; x64) AppleWebKit/537.36 (KHTML, like Gecko) Chrome/98.0.4758.102 Safari/537.36",xpyriment,legacy,legacy,0,uniform,0,0,0,0,24,24,24,0,0,27,27,27,27,27,0,27,0,,,,,,0,,28-01-22,28-01-22,15:05:17,Mon Feb 28 2022 15:05:17 GMT+0100 (közép-európai téli idő),The main experiment item,yes,0,0,C:/Users/rrics/Documents/!!ResearchBMECOGSCI/gnet,0,0,0,prototype3.png,no,mono,no,18,no,black,no,no,768,1154,3.5.6,legacy,xpyriment,osweb,1.3.13,0,up,space,up,,31196,23375,31196,,2,legacy,860,1600,24,900,24,0,0,1600,1646057178731,1024,2,48000,-16,experiment,p4sarrcol1.png,0,even,Win32,164,135321,132314,163,164,349720,351231,344727,136841,344727,164,,,,,,visual_patterns,0,0,0,yes,1366
undefined,undefined,undefined,undefined,white,no,Mozilla,Netscape,"5.0 (Windows NT 10.0; Win64; x64) AppleWebKit/537.36 (KHTML, like Gecko) Chrome/98.0.4758.102 Safari/537.36",xpyriment,legacy,legacy,0,uniform,0,0,0,0,24,24,24,0,0,28,28,28,28,28,0,28,0,,,,,,0,,28-01-22,28-01-22,15:05:17,Mon Feb 28 2022 15:05:17 GMT+0100 (közép-európai téli idő),The main experiment item,yes,0,0,C:/Users/rrics/Documents/!!ResearchBMECOGSCI/gnet,0,0,0,prototype3.png,no,mono,no,18,no,black,no,no,768,1154,3.5.6,legacy,xpyriment,osweb,1.3.13,0,up,space,up,,31196,23375,31196,,2,legacy,860,1600,24,900,24,0,0,1600,1646057178731,1024,2,48000,-16,experiment,prototype4.png,0,even,Win32,164,135321,132314,163,164,356258,357772,351260,136841,351260,164,,,,,,visual_patterns,0,0,0,yes,1366
undefined,undefined,undefined,undefined,white,no,Mozilla,Netscape,"5.0 (Windows NT 10.0; Win64; x64) AppleWebKit/537.36 (KHTML, like Gecko) Chrome/98.0.4758.102 Safari/537.36",xpyriment,legacy,legacy,0,uniform,0,0,0,0,24,24,24,0,0,29,29,29,29,29,0,29,0,,,,,,0,,28-01-22,28-01-22,15:05:17,Mon Feb 28 2022 15:05:17 GMT+0100 (közép-európai téli idő),The main experiment item,yes,0,0,C:/Users/rrics/Documents/!!ResearchBMECOGSCI/gnet,0,0,0,prototype3.png,no,mono,no,18,no,black,no,no,768,1154,3.5.6,legacy,xpyriment,osweb,1.3.13,0,up,space,up,,31196,23375,31196,,2,legacy,860,1600,24,900,24,0,0,1600,1646057178731,1024,2,48000,-16,experiment,prototype5.png,0,even,Win32,164,135321,132314,163,164,362803,364312,357803,136841,357803,164,,,,,,visual_patterns,0,0,0,yes,1366
undefined,undefined,undefined,undefined,white,no,Mozilla,Netscape,"5.0 (Windows NT 10.0; Win64; x64) AppleWebKit/537.36 (KHTML, like Gecko) Chrome/98.0.4758.102 Safari/537.36",xpyriment,legacy,legacy,0,uniform,0,0,0,0,24,24,24,0,0,30,30,30,30,30,0,30,0,,,,,,0,,28-01-22,28-01-22,15:05:17,Mon Feb 28 2022 15:05:17 GMT+0100 (közép-európai téli idő),The main experiment item,yes,0,0,C:/Users/rrics/Documents/!!ResearchBMECOGSCI/gnet,0,0,0,prototype3.png,no,mono,no,18,no,black,no,no,768,1154,3.5.6,legacy,xpyriment,osweb,1.3.13,0,up,space,up,,31196,23375,31196,,2,legacy,860,1600,24,900,24,0,0,1600,1646057178731,1024,2,48000,-16,experiment,p5sarrcol2.png,0,even,Win32,164,135321,132314,163,164,369339,370852,364352,136841,364352,164,,,,,,visual_patterns,0,0,0,yes,1366
undefined,undefined,undefined,undefined,white,no,Mozilla,Netscape,"5.0 (Windows NT 10.0; Win64; x64) AppleWebKit/537.36 (KHTML, like Gecko) Chrome/98.0.4758.102 Safari/537.36",xpyriment,legacy,legacy,0,uniform,0,0,0,0,24,24,24,0,0,31,31,31,31,31,0,31,0,,,,,,0,,28-01-22,28-01-22,15:05:17,Mon Feb 28 2022 15:05:17 GMT+0100 (közép-európai téli idő),The main experiment item,yes,0,0,C:/Users/rrics/Documents/!!ResearchBMECOGSCI/gnet,0,0,0,prototype3.png,no,mono,no,18,no,black,no,no,768,1154,3.5.6,legacy,xpyriment,osweb,1.3.13,0,up,space,up,,31196,23375,31196,,2,legacy,860,1600,24,900,24,0,0,1600,1646057178731,1024,2,48000,-16,experiment,p2sarrsha2.png,0,even,Win32,164,135321,132314,163,164,375880,377392,370890,136841,370890,164,,,,,,visual_patterns,0,0,0,yes,1366
undefined,undefined,undefined,undefined,white,no,Mozilla,Netscape,"5.0 (Windows NT 10.0; Win64; x64) AppleWebKit/537.36 (KHTML, like Gecko) Chrome/98.0.4758.102 Safari/537.36",xpyriment,legacy,legacy,0,uniform,0,0,0,0,24,24,24,0,0,32,32,32,32,32,0,32,0,,,,,,0,,28-01-22,28-01-22,15:05:17,Mon Feb 28 2022 15:05:17 GMT+0100 (közép-európai téli idő),The main experiment item,yes,0,0,C:/Users/rrics/Documents/!!ResearchBMECOGSCI/gnet,0,0,0,prototype3.png,no,mono,no,18,no,black,no,no,768,1154,3.5.6,legacy,xpyriment,osweb,1.3.13,0,up,space,up,,31196,23375,31196,,2,legacy,860,1600,24,900,24,0,0,1600,1646057178731,1024,2,48000,-16,experiment,p5sarr1.png,0,even,Win32,164,135321,132314,163,164,382420,383933,377426,136841,377426,164,,,,,,visual_patterns,0,0,0,yes,1366
undefined,undefined,undefined,undefined,white,no,Mozilla,Netscape,"5.0 (Windows NT 10.0; Win64; x64) AppleWebKit/537.36 (KHTML, like Gecko) Chrome/98.0.4758.102 Safari/537.36",xpyriment,legacy,legacy,0,uniform,0,0,0,0,24,24,24,0,0,33,33,33,33,33,0,33,0,,,,,,0,,28-01-22,28-01-22,15:05:17,Mon Feb 28 2022 15:05:17 GMT+0100 (közép-európai téli idő),The main experiment item,yes,0,0,C:/Users/rrics/Documents/!!ResearchBMECOGSCI/gnet,0,0,0,prototype3.png,no,mono,no,18,no,black,no,no,768,1154,3.5.6,legacy,xpyriment,osweb,1.3.13,0,up,space,up,,31196,23375,31196,,2,legacy,860,1600,24,900,24,0,0,1600,1646057178731,1024,2,48000,-16,experiment,p3sarrshacol1.png,0,even,Win32,164,135321,132314,163,164,388962,390472,383969,136841,383968,164,,,,,,visual_patterns,0,0,0,yes,1366
undefined,undefined,undefined,undefined,white,no,Mozilla,Netscape,"5.0 (Windows NT 10.0; Win64; x64) AppleWebKit/537.36 (KHTML, like Gecko) Chrome/98.0.4758.102 Safari/537.36",xpyriment,legacy,legacy,0,uniform,0,0,0,0,24,24,24,0,0,34,34,34,34,34,0,34,0,,,,,,0,,28-01-22,28-01-22,15:05:17,Mon Feb 28 2022 15:05:17 GMT+0100 (közép-európai téli idő),The main experiment item,yes,0,0,C:/Users/rrics/Documents/!!ResearchBMECOGSCI/gnet,0,0,0,prototype3.png,no,mono,no,18,no,black,no,no,768,1154,3.5.6,legacy,xpyriment,osweb,1.3.13,0,up,space,up,,31196,23375,31196,,2,legacy,860,1600,24,900,24,0,0,1600,1646057178731,1024,2,48000,-16,experiment,prototype1.png,0,even,Win32,164,135321,132314,163,164,395486,396997,390482,136841,390482,164,,,,,,visual_patterns,0,0,0,yes,1366
undefined,undefined,undefined,undefined,white,no,Mozilla,Netscape,"5.0 (Windows NT 10.0; Win64; x64) AppleWebKit/537.36 (KHTML, like Gecko) Chrome/98.0.4758.102 Safari/537.36",xpyriment,legacy,legacy,0,uniform,0,0,0,0,24,24,24,0,0,35,35,35,35,35,0,35,0,,,,,,0,,28-01-22,28-01-22,15:05:17,Mon Feb 28 2022 15:05:17 GMT+0100 (közép-európai téli idő),The main experiment item,yes,0,0,C:/Users/rrics/Documents/!!ResearchBMECOGSCI/gnet,0,0,0,prototype3.png,no,mono,no,18,no,black,no,no,768,1154,3.5.6,legacy,xpyriment,osweb,1.3.13,0,up,space,up,,31196,23375,31196,,2,legacy,860,1600,24,900,24,0,0,1600,1646057178731,1024,2,48000,-16,experiment,p4sarrshacol1.png,0,even,Win32,164,135321,132314,163,164,402025,403536,397033,136841,397033,164,,,,,,visual_patterns,0,0,0,yes,1366
undefined,undefined,undefined,undefined,white,no,Mozilla,Netscape,"5.0 (Windows NT 10.0; Win64; x64) AppleWebKit/537.36 (KHTML, like Gecko) Chrome/98.0.4758.102 Safari/537.36",xpyriment,legacy,legacy,0,uniform,0,0,0,0,24,24,24,0,0,36,36,36,36,36,0,36,0,,,,,,0,,28-01-22,28-01-22,15:05:17,Mon Feb 28 2022 15:05:17 GMT+0100 (közép-európai téli idő),The main experiment item,yes,0,0,C:/Users/rrics/Documents/!!ResearchBMECOGSCI/gnet,0,0,0,prototype3.png,no,mono,no,18,no,black,no,no,768,1154,3.5.6,legacy,xpyriment,osweb,1.3.13,0,up,space,up,,31196,23375,31196,,2,legacy,860,1600,24,900,24,0,0,1600,1646057178731,1024,2,48000,-16,experiment,prototype3.png,0,even,Win32,164,135321,132314,163,164,408546,410060,403546,136841,403546,164,,,,,,visual_patterns,0,0,0,yes,1366
undefined,undefined,undefined,undefined,white,no,Mozilla,Netscape,"5.0 (Windows NT 10.0; Win64; x64) AppleWebKit/537.36 (KHTML, like Gecko) Chrome/98.0.4758.102 Safari/537.36",xpyriment,legacy,legacy,0,uniform,0,0,0,0,24,24,24,0,0,37,37,37,37,37,0,37,0,,,,,,0,,28-01-22,28-01-22,15:05:17,Mon Feb 28 2022 15:05:17 GMT+0100 (közép-európai téli idő),The main experiment item,yes,0,0,C:/Users/rrics/Documents/!!ResearchBMECOGSCI/gnet,0,0,0,prototype3.png,no,mono,no,18,no,black,no,no,768,1154,3.5.6,legacy,xpyriment,osweb,1.3.13,0,up,space,up,,31196,23375,31196,,2,legacy,860,1600,24,900,24,0,0,1600,1646057178731,1024,2,48000,-16,experiment,prototype3.png,0,even,Win32,164,135321,132314,163,164,415090,416600,410090,136841,410090,164,,,,,,visual_patterns,0,0,0,yes,1366
undefined,undefined,undefined,undefined,white,no,Mozilla,Netscape,"5.0 (Windows NT 10.0; Win64; x64) AppleWebKit/537.36 (KHTML, like Gecko) Chrome/98.0.4758.102 Safari/537.36",xpyriment,legacy,legacy,0,uniform,0,0,0,0,24,24,24,0,0,38,38,38,38,38,0,38,0,,,,,,0,,28-01-22,28-01-22,15:05:17,Mon Feb 28 2022 15:05:17 GMT+0100 (közép-európai téli idő),The main experiment item,yes,0,0,C:/Users/rrics/Documents/!!ResearchBMECOGSCI/gnet,0,0,0,prototype3.png,no,mono,no,18,no,black,no,no,768,1154,3.5.6,legacy,xpyriment,osweb,1.3.13,0,up,space,up,,31196,23375,31196,,2,legacy,860,1600,24,900,24,0,0,1600,1646057178731,1024,2,48000,-16,experiment,p7sarr1.png,0,even,Win32,164,135321,132314,163,164,421631,423141,416639,136841,416638,164,,,,,,visual_patterns,0,0,0,yes,1366
undefined,undefined,undefined,undefined,white,no,Mozilla,Netscape,"5.0 (Windows NT 10.0; Win64; x64) AppleWebKit/537.36 (KHTML, like Gecko) Chrome/98.0.4758.102 Safari/537.36",xpyriment,legacy,legacy,0,uniform,0,0,0,0,24,24,24,0,0,39,39,39,39,39,0,39,0,,,,,,0,,28-01-22,28-01-22,15:05:17,Mon Feb 28 2022 15:05:17 GMT+0100 (közép-európai téli idő),The main experiment item,yes,0,0,C:/Users/rrics/Documents/!!ResearchBMECOGSCI/gnet,0,0,0,prototype3.png,no,mono,no,18,no,black,no,no,768,1154,3.5.6,legacy,xpyriment,osweb,1.3.13,0,up,space,up,,31196,23375,31196,,2,legacy,860,1600,24,900,24,0,0,1600,1646057178731,1024,2,48000,-16,experiment,p1sarrsha1.png,0,even,Win32,164,135321,132314,163,164,428169,429681,423181,136841,423180,164,,,,,,visual_patterns,0,0,0,yes,1366
undefined,undefined,undefined,undefined,white,no,Mozilla,Netscape,"5.0 (Windows NT 10.0; Win64; x64) AppleWebKit/537.36 (KHTML, like Gecko) Chrome/98.0.4758.102 Safari/537.36",xpyriment,legacy,legacy,0,uniform,0,0,0,0,24,24,24,0,0,40,40,40,40,40,0,40,0,,,,,,0,,28-01-22,28-01-22,15:05:17,Mon Feb 28 2022 15:05:17 GMT+0100 (közép-európai téli idő),The main experiment item,yes,0,0,C:/Users/rrics/Documents/!!ResearchBMECOGSCI/gnet,0,0,0,prototype3.png,no,mono,no,18,no,black,no,no,768,1154,3.5.6,legacy,xpyriment,osweb,1.3.13,0,up,space,up,,31196,23375,31196,,2,legacy,860,1600,24,900,24,0,0,1600,1646057178731,1024,2,48000,-16,experiment,prototype5.png,0,even,Win32,164,135321,132314,163,164,434710,436221,429708,136841,429708,164,,,,,,visual_patterns,0,0,0,yes,1366
undefined,undefined,undefined,undefined,white,no,Mozilla,Netscape,"5.0 (Windows NT 10.0; Win64; x64) AppleWebKit/537.36 (KHTML, like Gecko) Chrome/98.0.4758.102 Safari/537.36",xpyriment,legacy,legacy,0,uniform,0,0,0,0,24,24,24,0,0,41,41,41,41,41,0,41,0,,,,,,0,,28-01-22,28-01-22,15:05:17,Mon Feb 28 2022 15:05:17 GMT+0100 (közép-európai téli idő),The main experiment item,yes,0,0,C:/Users/rrics/Documents/!!ResearchBMECOGSCI/gnet,0,0,0,prototype3.png,no,mono,no,18,no,black,no,no,768,1154,3.5.6,legacy,xpyriment,osweb,1.3.13,0,up,space,up,,31196,23375,31196,,2,legacy,860,1600,24,900,24,0,0,1600,1646057178731,1024,2,48000,-16,experiment,p3sarrshacol2.png,0,even,Win32,164,135321,132314,163,164,441250,442762,436268,136841,436268,164,,,,,,visual_patterns,0,0,0,yes,1366
undefined,undefined,undefined,undefined,white,no,Mozilla,Netscape,"5.0 (Windows NT 10.0; Win64; x64) AppleWebKit/537.36 (KHTML, like Gecko) Chrome/98.0.4758.102 Safari/537.36",xpyriment,legacy,legacy,0,uniform,0,0,0,0,24,24,24,0,0,42,42,42,42,42,0,42,0,,,,,,0,,28-01-22,28-01-22,15:05:17,Mon Feb 28 2022 15:05:17 GMT+0100 (közép-európai téli idő),The main experiment item,yes,0,0,C:/Users/rrics/Documents/!!ResearchBMECOGSCI/gnet,0,0,0,prototype3.png,no,mono,no,18,no,black,no,no,768,1154,3.5.6,legacy,xpyriment,osweb,1.3.13,0,up,space,up,,31196,23375,31196,,2,legacy,860,1600,24,900,24,0,0,1600,1646057178731,1024,2,48000,-16,experiment,p3sarrcol2.png,0,even,Win32,164,135321,132314,163,164,447789,449302,442799,136841,442799,164,,,,,,visual_patterns,0,0,0,yes,1366
undefined,undefined,undefined,undefined,white,no,Mozilla,Netscape,"5.0 (Windows NT 10.0; Win64; x64) AppleWebKit/537.36 (KHTML, like Gecko) Chrome/98.0.4758.102 Safari/537.36",xpyriment,legacy,legacy,0,uniform,0,0,0,0,24,24,24,0,0,43,43,43,43,43,0,43,0,,,,,,0,,28-01-22,28-01-22,15:05:17,Mon Feb 28 2022 15:05:17 GMT+0100 (közép-európai téli idő),The main experiment item,yes,0,0,C:/Users/rrics/Documents/!!ResearchBMECOGSCI/gnet,0,0,0,prototype3.png,no,mono,no,18,no,black,no,no,768,1154,3.5.6,legacy,xpyriment,osweb,1.3.13,0,up,space,up,,31196,23375,31196,,2,legacy,860,1600,24,900,24,0,0,1600,1646057178731,1024,2,48000,-16,experiment,p3sarr2.png,0,even,Win32,164,135321,132314,163,164,454330,455842,449340,136841,449340,164,,,,,,visual_patterns,0,0,0,yes,1366
undefined,undefined,undefined,undefined,white,no,Mozilla,Netscape,"5.0 (Windows NT 10.0; Win64; x64) AppleWebKit/537.36 (KHTML, like Gecko) Chrome/98.0.4758.102 Safari/537.36",xpyriment,legacy,legacy,0,uniform,0,0,0,0,24,24,24,0,0,44,44,44,44,44,0,44,0,,,,,,0,,28-01-22,28-01-22,15:05:17,Mon Feb 28 2022 15:05:17 GMT+0100 (közép-európai téli idő),The main experiment item,yes,0,0,C:/Users/rrics/Documents/!!ResearchBMECOGSCI/gnet,0,0,0,prototype3.png,no,mono,no,18,no,black,no,no,768,1154,3.5.6,legacy,xpyriment,osweb,1.3.13,0,up,space,up,,31196,23375,31196,,2,legacy,860,1600,24,900,24,0,0,1600,1646057178731,1024,2,48000,-16,experiment,p2sarrsha1.png,0,even,Win32,164,135321,132314,163,164,460867,462382,455877,136841,455877,164,,,,,,visual_patterns,0,0,0,yes,1366
undefined,undefined,undefined,undefined,white,no,Mozilla,Netscape,"5.0 (Windows NT 10.0; Win64; x64) AppleWebKit/537.36 (KHTML, like Gecko) Chrome/98.0.4758.102 Safari/537.36",xpyriment,legacy,legacy,0,uniform,0,0,0,0,24,24,24,0,0,45,45,45,45,45,0,45,0,,,,,,0,,28-01-22,28-01-22,15:05:17,Mon Feb 28 2022 15:05:17 GMT+0100 (közép-európai téli idő),The main experiment item,yes,0,0,C:/Users/rrics/Documents/!!ResearchBMECOGSCI/gnet,0,0,0,prototype3.png,no,mono,no,18,no,black,no,no,768,1154,3.5.6,legacy,xpyriment,osweb,1.3.13,0,up,space,up,,31196,23375,31196,,2,legacy,860,1600,24,900,24,0,0,1600,1646057178731,1024,2,48000,-16,experiment,p4sarrsha1.png,0,even,Win32,164,135321,132314,163,164,467456,468972,462454,136841,462454,164,,,,,,visual_patterns,0,0,0,yes,1366
undefined,undefined,undefined,undefined,white,no,Mozilla,Netscape,"5.0 (Windows NT 10.0; Win64; x64) AppleWebKit/537.36 (KHTML, like Gecko) Chrome/98.0.4758.102 Safari/537.36",xpyriment,legacy,legacy,0,uniform,0,0,0,0,24,24,24,0,0,46,46,46,46,46,0,46,0,,,,,,0,,28-01-22,28-01-22,15:05:17,Mon Feb 28 2022 15:05:17 GMT+0100 (közép-európai téli idő),The main experiment item,yes,0,0,C:/Users/rrics/Documents/!!ResearchBMECOGSCI/gnet,0,0,0,prototype3.png,no,mono,no,18,no,black,no,no,768,1154,3.5.6,legacy,xpyriment,osweb,1.3.13,0,up,space,up,,31196,23375,31196,,2,legacy,860,1600,24,900,24,0,0,1600,1646057178731,1024,2,48000,-16,experiment,p1sarrcol1.png,0,even,Win32,164,135321,132314,163,164,473999,475513,469007,136841,469007,164,,,,,,visual_patterns,0,0,0,yes,1366
undefined,undefined,undefined,undefined,white,no,Mozilla,Netscape,"5.0 (Windows NT 10.0; Win64; x64) AppleWebKit/537.36 (KHTML, like Gecko) Chrome/98.0.4758.102 Safari/537.36",xpyriment,legacy,legacy,0,uniform,0,0,0,0,24,24,24,0,0,47,47,47,47,47,0,47,0,,,,,,0,,28-01-22,28-01-22,15:05:17,Mon Feb 28 2022 15:05:17 GMT+0100 (közép-európai téli idő),The main experiment item,yes,0,0,C:/Users/rrics/Documents/!!ResearchBMECOGSCI/gnet,0,0,0,prototype3.png,no,mono,no,18,no,black,no,no,768,1154,3.5.6,legacy,xpyriment,osweb,1.3.13,0,up,space,up,,31196,23375,31196,,2,legacy,860,1600,24,900,24,0,0,1600,1646057178731,1024,2,48000,-16,experiment,p1sarrsha2.png,0,even,Win32,164,135321,132314,163,164,480543,482053,475555,136841,475555,164,,,,,,visual_patterns,0,0,0,yes,1366
undefined,undefined,undefined,undefined,white,no,Mozilla,Netscape,"5.0 (Windows NT 10.0; Win64; x64) AppleWebKit/537.36 (KHTML, like Gecko) Chrome/98.0.4758.102 Safari/537.36",xpyriment,legacy,legacy,0,uniform,0,0,0,0,24,24,24,0,0,48,48,48,48,48,0,48,0,,,,,,0,,28-01-22,28-01-22,15:05:17,Mon Feb 28 2022 15:05:17 GMT+0100 (közép-európai téli idő),The main experiment item,yes,0,0,C:/Users/rrics/Documents/!!ResearchBMECOGSCI/gnet,0,0,0,prototype3.png,no,mono,no,18,no,black,no,no,768,1154,3.5.6,legacy,xpyriment,osweb,1.3.13,0,up,space,up,,31196,23375,31196,,2,legacy,860,1600,24,900,24,0,0,1600,1646057178731,1024,2,48000,-16,experiment,p7sarr2.png,0,even,Win32,164,135321,132314,163,164,487081,488593,482095,136841,482095,164,,,,,,visual_patterns,0,0,0,yes,1366
undefined,undefined,undefined,undefined,white,no,Mozilla,Netscape,"5.0 (Windows NT 10.0; Win64; x64) AppleWebKit/537.36 (KHTML, like Gecko) Chrome/98.0.4758.102 Safari/537.36",xpyriment,legacy,legacy,0,uniform,0,0,0,0,24,24,24,0,0,49,49,49,49,49,0,49,0,,,,,,0,,28-01-22,28-01-22,15:05:17,Mon Feb 28 2022 15:05:17 GMT+0100 (közép-európai téli idő),The main experiment item,yes,0,0,C:/Users/rrics/Documents/!!ResearchBMECOGSCI/gnet,0,0,0,prototype3.png,no,mono,no,18,no,black,no,no,768,1154,3.5.6,legacy,xpyriment,osweb,1.3.13,0,up,space,up,,31196,23375,31196,,2,legacy,860,1600,24,900,24,0,0,1600,1646057178731,1024,2,48000,-16,experiment,p4sarr1.png,0,even,Win32,164,135321,132314,163,164,493606,495116,488610,136841,488610,164,,,,,,visual_patterns,0,0,0,yes,1366
undefined,undefined,undefined,undefined,white,no,Mozilla,Netscape,"5.0 (Windows NT 10.0; Win64; x64) AppleWebKit/537.36 (KHTML, like Gecko) Chrome/98.0.4758.102 Safari/537.36",xpyriment,legacy,legacy,0,uniform,0,0,0,0,24,24,24,0,0,50,50,50,50,50,0,50,0,,,,,,0,,28-01-22,28-01-22,15:05:17,Mon Feb 28 2022 15:05:17 GMT+0100 (közép-európai téli idő),The main experiment item,yes,0,0,C:/Users/rrics/Documents/!!ResearchBMECOGSCI/gnet,0,0,0,prototype3.png,no,mono,no,18,no,black,no,no,768,1154,3.5.6,legacy,xpyriment,osweb,1.3.13,0,up,space,up,,31196,23375,31196,,2,legacy,860,1600,24,900,24,0,0,1600,1646057178731,1024,2,48000,-16,experiment,p10sarr1.png,0,even,Win32,164,135321,132314,163,164,500136,501640,495138,136841,495138,164,,,,,,visual_patterns,0,0,0,yes,1366
undefined,undefined,undefined,undefined,white,no,Mozilla,Netscape,"5.0 (Windows NT 10.0; Win64; x64) AppleWebKit/537.36 (KHTML, like Gecko) Chrome/98.0.4758.102 Safari/537.36",xpyriment,legacy,legacy,0,uniform,0,0,0,0,24,24,24,0,0,51,51,51,51,51,0,51,0,,,,,,0,,28-01-22,28-01-22,15:05:17,Mon Feb 28 2022 15:05:17 GMT+0100 (közép-európai téli idő),The main experiment item,yes,0,0,C:/Users/rrics/Documents/!!ResearchBMECOGSCI/gnet,0,0,0,prototype3.png,no,mono,no,18,no,black,no,no,768,1154,3.5.6,legacy,xpyriment,osweb,1.3.13,0,up,space,up,,31196,23375,31196,,2,legacy,860,1600,24,900,24,0,0,1600,1646057178731,1024,2,48000,-16,experiment,prototype3.png,0,even,Win32,164,135321,132314,163,164,506675,508180,501672,136841,501672,164,,,,,,visual_patterns,0,0,0,yes,1366
undefined,undefined,undefined,undefined,white,no,Mozilla,Netscape,"5.0 (Windows NT 10.0; Win64; x64) AppleWebKit/537.36 (KHTML, like Gecko) Chrome/98.0.4758.102 Safari/537.36",xpyriment,legacy,legacy,0,uniform,0,0,0,0,24,24,24,0,0,52,52,52,52,52,0,52,0,,,,,,0,,28-01-22,28-01-22,15:05:17,Mon Feb 28 2022 15:05:17 GMT+0100 (közép-európai téli idő),The main experiment item,yes,0,0,C:/Users/rrics/Documents/!!ResearchBMECOGSCI/gnet,0,0,0,prototype3.png,no,mono,no,18,no,black,no,no,768,1154,3.5.6,legacy,xpyriment,osweb,1.3.13,0,up,space,up,,31196,23375,31196,,2,legacy,860,1600,24,900,24,0,0,1600,1646057178731,1024,2,48000,-16,experiment,p1sarr1.png,0,even,Win32,164,135321,132314,163,164,513189,514703,508195,136841,508195,164,,,,,,visual_patterns,0,0,0,yes,1366
undefined,undefined,undefined,undefined,white,no,Mozilla,Netscape,"5.0 (Windows NT 10.0; Win64; x64) AppleWebKit/537.36 (KHTML, like Gecko) Chrome/98.0.4758.102 Safari/537.36",xpyriment,legacy,legacy,0,uniform,0,0,0,0,24,24,24,0,0,53,53,53,53,53,0,53,0,,,,,,0,,28-01-22,28-01-22,15:05:17,Mon Feb 28 2022 15:05:17 GMT+0100 (közép-európai téli idő),The main experiment item,yes,0,0,C:/Users/rrics/Documents/!!ResearchBMECOGSCI/gnet,0,0,0,prototype3.png,no,mono,no,18,no,black,no,no,768,1154,3.5.6,legacy,xpyriment,osweb,1.3.13,0,up,space,up,,31196,23375,31196,,2,legacy,860,1600,24,900,24,0,0,1600,1646057178731,1024,2,48000,-16,experiment,p1sarrcol2.png,0,even,Win32,164,135321,132314,163,164,519712,521227,514715,136841,514715,164,,,,,,visual_patterns,0,0,0,yes,1366
undefined,undefined,undefined,undefined,white,no,Mozilla,Netscape,"5.0 (Windows NT 10.0; Win64; x64) AppleWebKit/537.36 (KHTML, like Gecko) Chrome/98.0.4758.102 Safari/537.36",xpyriment,legacy,legacy,0,uniform,0,0,0,0,24,24,24,0,0,54,54,54,54,54,0,54,0,,,,,,0,,28-01-22,28-01-22,15:05:17,Mon Feb 28 2022 15:05:17 GMT+0100 (közép-európai téli idő),The main experiment item,yes,0,0,C:/Users/rrics/Documents/!!ResearchBMECOGSCI/gnet,0,0,0,prototype3.png,no,mono,no,18,no,black,no,no,768,1154,3.5.6,legacy,xpyriment,osweb,1.3.13,0,up,space,up,,31196,23375,31196,,2,legacy,860,1600,24,900,24,0,0,1600,1646057178731,1024,2,48000,-16,experiment,p2sarrcol2.png,0,even,Win32,164,135321,132314,163,164,526240,527751,521241,136841,521241,164,,,,,,visual_patterns,0,0,0,yes,1366
undefined,undefined,undefined,undefined,white,no,Mozilla,Netscape,"5.0 (Windows NT 10.0; Win64; x64) AppleWebKit/537.36 (KHTML, like Gecko) Chrome/98.0.4758.102 Safari/537.36",xpyriment,legacy,legacy,0,uniform,0,0,0,0,24,24,24,0,0,55,55,55,55,55,0,55,0,,,,,,0,,28-01-22,28-01-22,15:05:17,Mon Feb 28 2022 15:05:17 GMT+0100 (közép-európai téli idő),The main experiment item,yes,0,0,C:/Users/rrics/Documents/!!ResearchBMECOGSCI/gnet,0,0,0,prototype3.png,no,mono,no,18,no,black,no,no,768,1154,3.5.6,legacy,xpyriment,osweb,1.3.13,0,up,space,up,,31196,23375,31196,,2,legacy,860,1600,24,900,24,0,0,1600,1646057178731,1024,2,48000,-16,experiment,prototype4.png,0,even,Win32,164,135321,132314,163,164,532763,534274,527760,136841,527760,164,,,,,,visual_patterns,0,0,0,yes,1366
undefined,undefined,undefined,undefined,white,no,Mozilla,Netscape,"5.0 (Windows NT 10.0; Win64; x64) AppleWebKit/537.36 (KHTML, like Gecko) Chrome/98.0.4758.102 Safari/537.36",xpyriment,legacy,legacy,0,uniform,0,0,0,0,24,24,24,0,0,56,56,56,56,56,0,56,0,,,,,,0,,28-01-22,28-01-22,15:05:17,Mon Feb 28 2022 15:05:17 GMT+0100 (közép-európai téli idő),The main experiment item,yes,0,0,C:/Users/rrics/Documents/!!ResearchBMECOGSCI/gnet,0,0,0,prototype3.png,no,mono,no,18,no,black,no,no,768,1154,3.5.6,legacy,xpyriment,osweb,1.3.13,0,up,space,up,,31196,23375,31196,,2,legacy,860,1600,24,900,24,0,0,1600,1646057178731,1024,2,48000,-16,experiment,p2sarrshacol1.png,0,even,Win32,164,135321,132314,163,164,539287,540799,534286,136841,534286,164,,,,,,visual_patterns,0,0,0,yes,1366
undefined,undefined,undefined,undefined,white,no,Mozilla,Netscape,"5.0 (Windows NT 10.0; Win64; x64) AppleWebKit/537.36 (KHTML, like Gecko) Chrome/98.0.4758.102 Safari/537.36",xpyriment,legacy,legacy,0,uniform,0,0,0,0,24,24,24,0,0,57,57,57,57,57,0,57,0,,,,,,0,,28-01-22,28-01-22,15:05:17,Mon Feb 28 2022 15:05:17 GMT+0100 (közép-európai téli idő),The main experiment item,yes,0,0,C:/Users/rrics/Documents/!!ResearchBMECOGSCI/gnet,0,0,0,prototype3.png,no,mono,no,18,no,black,no,no,768,1154,3.5.6,legacy,xpyriment,osweb,1.3.13,0,up,space,up,,31196,23375,31196,,2,legacy,860,1600,24,900,24,0,0,1600,1646057178731,1024,2,48000,-16,experiment,prototype5.png,0,even,Win32,164,135321,132314,163,164,545831,547339,540833,136841,540833,164,,,,,,visual_patterns,0,0,0,yes,1366
undefined,undefined,undefined,undefined,white,no,Mozilla,Netscape,"5.0 (Windows NT 10.0; Win64; x64) AppleWebKit/537.36 (KHTML, like Gecko) Chrome/98.0.4758.102 Safari/537.36",xpyriment,legacy,legacy,0,uniform,0,0,0,0,24,24,24,0,0,58,58,58,58,58,0,58,0,,,,,,0,,28-01-22,28-01-22,15:05:17,Mon Feb 28 2022 15:05:17 GMT+0100 (közép-európai téli idő),The main experiment item,yes,0,0,C:/Users/rrics/Documents/!!ResearchBMECOGSCI/gnet,0,0,0,prototype3.png,no,mono,no,18,no,black,no,no,768,1154,3.5.6,legacy,xpyriment,osweb,1.3.13,0,up,space,up,,31196,23375,31196,,2,legacy,860,1600,24,900,24,0,0,1600,1646057178731,1024,2,48000,-16,experiment,prototype2.png,0,even,Win32,164,135321,132314,163,164,552367,553879,547368,136841,547368,164,,,,,,visual_patterns,0,0,0,yes,1366
undefined,undefined,undefined,undefined,white,no,Mozilla,Netscape,"5.0 (Windows NT 10.0; Win64; x64) AppleWebKit/537.36 (KHTML, like Gecko) Chrome/98.0.4758.102 Safari/537.36",xpyriment,legacy,legacy,0,uniform,0,0,0,0,24,24,24,0,0,59,59,59,59,59,0,59,0,,,,,,0,,28-01-22,28-01-22,15:05:17,Mon Feb 28 2022 15:05:17 GMT+0100 (közép-európai téli idő),The main experiment item,yes,0,0,C:/Users/rrics/Documents/!!ResearchBMECOGSCI/gnet,0,0,0,prototype3.png,no,mono,no,18,no,black,no,no,768,1154,3.5.6,legacy,xpyriment,osweb,1.3.13,0,up,space,up,,31196,23375,31196,,2,legacy,860,1600,24,900,24,0,0,1600,1646057178731,1024,2,48000,-16,experiment,prototype5.png,0,even,Win32,164,135321,132314,163,164,558907,560420,553906,136841,553905,164,,,,,,visual_patterns,0,0,0,yes,1366
undefined,undefined,undefined,undefined,white,no,Mozilla,Netscape,"5.0 (Windows NT 10.0; Win64; x64) AppleWebKit/537.36 (KHTML, like Gecko) Chrome/98.0.4758.102 Safari/537.36",xpyriment,legacy,legacy,0,uniform,0,0,0,0,24,24,24,0,0,60,60,60,60,60,0,60,0,,,,,,0,,28-01-22,28-01-22,15:05:17,Mon Feb 28 2022 15:05:17 GMT+0100 (közép-európai téli idő),The main experiment item,yes,0,0,C:/Users/rrics/Documents/!!ResearchBMECOGSCI/gnet,0,0,0,prototype3.png,no,mono,no,18,no,black,no,no,768,1154,3.5.6,legacy,xpyriment,osweb,1.3.13,0,up,space,up,,31196,23375,31196,,2,legacy,860,1600,24,900,24,0,0,1600,1646057178731,1024,2,48000,-16,experiment,p1sarrshacol2.png,0,even,Win32,164,135321,132314,163,164,565450,566960,560453,136841,560453,164,,,,,,visual_patterns,0,0,0,yes,1366
undefined,undefined,undefined,undefined,white,no,Mozilla,Netscape,"5.0 (Windows NT 10.0; Win64; x64) AppleWebKit/537.36 (KHTML, like Gecko) Chrome/98.0.4758.102 Safari/537.36",xpyriment,legacy,legacy,0,uniform,0,0,0,0,24,24,24,0,0,61,61,61,61,61,0,61,0,,,,,,0,,28-01-22,28-01-22,15:05:17,Mon Feb 28 2022 15:05:17 GMT+0100 (közép-európai téli idő),The main experiment item,yes,0,0,C:/Users/rrics/Documents/!!ResearchBMECOGSCI/gnet,0,0,0,prototype3.png,no,mono,no,18,no,black,no,no,768,1154,3.5.6,legacy,xpyriment,osweb,1.3.13,0,up,space,up,,31196,23375,31196,,2,legacy,860,1600,24,900,24,0,0,1600,1646057178731,1024,2,48000,-16,experiment,p2sarrcol1.png,0,even,Win32,164,135321,132314,163,164,571990,573500,566995,136841,566995,164,,,,,,visual_patterns,0,0,0,yes,1366
undefined,undefined,undefined,undefined,white,no,Mozilla,Netscape,"5.0 (Windows NT 10.0; Win64; x64) AppleWebKit/537.36 (KHTML, like Gecko) Chrome/98.0.4758.102 Safari/537.36",xpyriment,legacy,legacy,0,uniform,0,0,0,0,24,24,24,0,0,62,62,62,62,62,0,62,0,,,,,,0,,28-01-22,28-01-22,15:05:17,Mon Feb 28 2022 15:05:17 GMT+0100 (közép-európai téli idő),The main experiment item,yes,0,0,C:/Users/rrics/Documents/!!ResearchBMECOGSCI/gnet,0,0,0,prototype3.png,no,mono,no,18,no,black,no,no,768,1154,3.5.6,legacy,xpyriment,osweb,1.3.13,0,up,space,up,,31196,23375,31196,,2,legacy,860,1600,24,900,24,0,0,1600,1646057178731,1024,2,48000,-16,experiment,p5sarr2.png,0,even,Win32,164,135321,132314,163,164,578527,580040,573543,136841,573543,164,,,,,,visual_patterns,0,0,0,yes,1366
undefined,undefined,undefined,undefined,white,no,Mozilla,Netscape,"5.0 (Windows NT 10.0; Win64; x64) AppleWebKit/537.36 (KHTML, like Gecko) Chrome/98.0.4758.102 Safari/537.36",xpyriment,legacy,legacy,0,uniform,0,0,0,0,24,24,24,0,0,63,63,63,63,63,0,63,0,,,,,,0,,28-01-22,28-01-22,15:05:17,Mon Feb 28 2022 15:05:17 GMT+0100 (közép-európai téli idő),The main experiment item,yes,0,0,C:/Users/rrics/Documents/!!ResearchBMECOGSCI/gnet,0,0,0,prototype3.png,no,mono,no,18,no,black,no,no,768,1154,3.5.6,legacy,xpyriment,osweb,1.3.13,0,up,space,up,,31196,23375,31196,,2,legacy,860,1600,24,900,24,0,0,1600,1646057178731,1024,2,48000,-16,experiment,p10sarr2.png,0,even,Win32,164,135321,132314,163,164,585075,586580,580088,136841,580087,164,,,,,,visual_patterns,0,0,0,yes,1366
undefined,undefined,undefined,undefined,white,no,Mozilla,Netscape,"5.0 (Windows NT 10.0; Win64; x64) AppleWebKit/537.36 (KHTML, like Gecko) Chrome/98.0.4758.102 Safari/537.36",xpyriment,legacy,legacy,0,uniform,0,0,0,0,24,24,24,0,0,64,64,64,64,64,0,64,0,,,,,,0,,28-01-22,28-01-22,15:05:17,Mon Feb 28 2022 15:05:17 GMT+0100 (közép-európai téli idő),The main experiment item,yes,0,0,C:/Users/rrics/Documents/!!ResearchBMECOGSCI/gnet,0,0,0,prototype3.png,no,mono,no,18,no,black,no,no,768,1154,3.5.6,legacy,xpyriment,osweb,1.3.13,0,up,space,up,,31196,23375,31196,,2,legacy,860,1600,24,900,24,0,0,1600,1646057178731,1024,2,48000,-16,experiment,prototype1.png,0,even,Win32,164,135321,132314,163,164,591606,593120,586608,136841,586608,164,,,,,,visual_patterns,0,0,0,yes,1366
undefined,undefined,undefined,undefined,white,no,Mozilla,Netscape,"5.0 (Windows NT 10.0; Win64; x64) AppleWebKit/537.36 (KHTML, like Gecko) Chrome/98.0.4758.102 Safari/537.36",xpyriment,legacy,legacy,0,uniform,0,0,0,0,24,24,24,0,0,65,65,65,65,65,0,65,0,,,,,,0,,28-01-22,28-01-22,15:05:17,Mon Feb 28 2022 15:05:17 GMT+0100 (közép-európai téli idő),The main experiment item,yes,0,0,C:/Users/rrics/Documents/!!ResearchBMECOGSCI/gnet,0,0,0,prototype3.png,no,mono,no,18,no,black,no,no,768,1154,3.5.6,legacy,xpyriment,osweb,1.3.13,0,up,space,up,,31196,23375,31196,,2,legacy,860,1600,24,900,24,0,0,1600,1646057178731,1024,2,48000,-16,experiment,prototype4.png,0,even,Win32,164,135321,132314,163,164,598193,599694,593190,136841,593190,164,,,,,,visual_patterns,0,0,0,yes,1366
undefined,undefined,undefined,undefined,white,no,Mozilla,Netscape,"5.0 (Windows NT 10.0; Win64; x64) AppleWebKit/537.36 (KHTML, like Gecko) Chrome/98.0.4758.102 Safari/537.36",xpyriment,legacy,legacy,0,uniform,0,0,0,0,24,24,24,0,0,66,66,66,66,66,0,66,0,,,,,,0,,28-01-22,28-01-22,15:05:17,Mon Feb 28 2022 15:05:17 GMT+0100 (közép-európai téli idő),The main experiment item,yes,0,0,C:/Users/rrics/Documents/!!ResearchBMECOGSCI/gnet,0,0,0,prototype3.png,no,mono,no,18,no,black,no,no,768,1154,3.5.6,legacy,xpyriment,osweb,1.3.13,0,up,space,up,,31196,23375,31196,,2,legacy,860,1600,24,900,24,0,0,1600,1646057178731,1024,2,48000,-16,experiment,p2sarrshacol2.png,0,even,Win32,164,135321,132314,163,164,604720,606234,599730,136841,599729,164,,,,,,visual_patterns,0,0,0,yes,1366
undefined,undefined,undefined,undefined,white,no,Mozilla,Netscape,"5.0 (Windows NT 10.0; Win64; x64) AppleWebKit/537.36 (KHTML, like Gecko) Chrome/98.0.4758.102 Safari/537.36",xpyriment,legacy,legacy,0,uniform,0,0,0,0,24,24,24,0,0,67,67,67,67,67,0,67,0,,,,,,0,,28-01-22,28-01-22,15:05:17,Mon Feb 28 2022 15:05:17 GMT+0100 (közép-európai téli idő),The main experiment item,yes,0,0,C:/Users/rrics/Documents/!!ResearchBMECOGSCI/gnet,0,0,0,prototype3.png,no,mono,no,18,no,black,no,no,768,1154,3.5.6,legacy,xpyriment,osweb,1.3.13,0,up,space,up,,31196,23375,31196,,2,legacy,860,1600,24,900,24,0,0,1600,1646057178731,1024,2,48000,-16,experiment,p1sarr2.png,0,even,Win32,164,135321,132314,163,164,611261,612775,606272,136841,606272,164,,,,,,visual_patterns,0,0,0,yes,1366
undefined,undefined,undefined,undefined,white,no,Mozilla,Netscape,"5.0 (Windows NT 10.0; Win64; x64) AppleWebKit/537.36 (KHTML, like Gecko) Chrome/98.0.4758.102 Safari/537.36",xpyriment,legacy,legacy,0,uniform,0,0,0,0,24,24,24,0,0,68,68,68,68,68,0,68,0,,,,,,0,,28-01-22,28-01-22,15:05:17,Mon Feb 28 2022 15:05:17 GMT+0100 (közép-európai téli idő),The main experiment item,yes,0,0,C:/Users/rrics/Documents/!!ResearchBMECOGSCI/gnet,0,0,0,prototype3.png,no,mono,no,18,no,black,no,no,768,1154,3.5.6,legacy,xpyriment,osweb,1.3.13,0,up,space,up,,31196,23375,31196,,2,legacy,860,1600,24,900,24,0,0,1600,1646057178731,1024,2,48000,-16,experiment,p6sarr2.png,0,even,Win32,164,135321,132314,163,164,617806,619315,612810,136841,612809,164,,,,,,visual_patterns,0,0,0,yes,1366
undefined,undefined,undefined,undefined,white,no,Mozilla,Netscape,"5.0 (Windows NT 10.0; Win64; x64) AppleWebKit/537.36 (KHTML, like Gecko) Chrome/98.0.4758.102 Safari/537.36",xpyriment,legacy,legacy,0,uniform,0,0,0,0,24,24,24,0,0,69,69,69,69,69,0,69,0,,,,,,0,,28-01-22,28-01-22,15:05:17,Mon Feb 28 2022 15:05:17 GMT+0100 (közép-európai téli idő),The main experiment item,yes,0,0,C:/Users/rrics/Documents/!!ResearchBMECOGSCI/gnet,0,0,0,prototype3.png,no,mono,no,18,no,black,no,no,768,1154,3.5.6,legacy,xpyriment,osweb,1.3.13,0,up,space,up,,31196,23375,31196,,2,legacy,860,1600,24,900,24,0,0,1600,1646057178731,1024,2,48000,-16,experiment,prototype2.png,0,even,Win32,164,135321,132314,163,164,624343,625855,619344,136841,619344,164,,,,,,visual_patterns,0,0,0,yes,1366
undefined,undefined,undefined,undefined,white,no,Mozilla,Netscape,"5.0 (Windows NT 10.0; Win64; x64) AppleWebKit/537.36 (KHTML, like Gecko) Chrome/98.0.4758.102 Safari/537.36",xpyriment,legacy,legacy,0,uniform,0,0,0,0,24,24,24,0,0,70,70,70,70,70,0,70,0,,,,,,0,,28-01-22,28-01-22,15:05:17,Mon Feb 28 2022 15:05:17 GMT+0100 (közép-európai téli idő),The main experiment item,yes,0,0,C:/Users/rrics/Documents/!!ResearchBMECOGSCI/gnet,0,0,0,prototype3.png,no,mono,no,18,no,black,no,no,768,1154,3.5.6,legacy,xpyriment,osweb,1.3.13,0,up,space,up,,31196,23375,31196,,2,legacy,860,1600,24,900,24,0,0,1600,1646057178731,1024,2,48000,-16,experiment,p1sarrshacol1.png,0,even,Win32,164,135321,132314,163,164,630884,632396,625887,136841,625886,164,,,,,,visual_patterns,0,0,0,yes,1366
undefined,undefined,undefined,undefined,white,no,Mozilla,Netscape,"5.0 (Windows NT 10.0; Win64; x64) AppleWebKit/537.36 (KHTML, like Gecko) Chrome/98.0.4758.102 Safari/537.36",xpyriment,legacy,legacy,0,uniform,0,0,0,0,24,24,24,0,0,71,71,71,71,71,0,71,0,,,,,,0,,28-01-22,28-01-22,15:05:17,Mon Feb 28 2022 15:05:17 GMT+0100 (közép-európai téli idő),The main experiment item,yes,0,0,C:/Users/rrics/Documents/!!ResearchBMECOGSCI/gnet,0,0,0,prototype3.png,no,mono,no,18,no,black,no,no,768,1154,3.5.6,legacy,xpyriment,osweb,1.3.13,0,up,space,up,,31196,23375,31196,,2,legacy,860,1600,24,900,24,0,0,1600,1646057178731,1024,2,48000,-16,experiment,prototype1.png,0,even,Win32,164,135321,132314,163,164,637426,638936,632425,136841,632425,164,,,,,,visual_patterns,0,0,0,yes,1366
undefined,undefined,undefined,undefined,white,no,Mozilla,Netscape,"5.0 (Windows NT 10.0; Win64; x64) AppleWebKit/537.36 (KHTML, like Gecko) Chrome/98.0.4758.102 Safari/537.36",xpyriment,legacy,legacy,0,uniform,0,0,0,0,24,24,24,0,0,72,72,72,72,72,0,72,0,,,,,,0,,28-01-22,28-01-22,15:05:17,Mon Feb 28 2022 15:05:17 GMT+0100 (közép-európai téli idő),The main experiment item,yes,0,0,C:/Users/rrics/Documents/!!ResearchBMECOGSCI/gnet,0,0,0,prototype3.png,no,mono,no,18,no,black,no,no,768,1154,3.5.6,legacy,xpyriment,osweb,1.3.13,0,up,space,up,,31196,23375,31196,,2,legacy,860,1600,24,900,24,0,0,1600,1646057178731,1024,2,48000,-16,experiment,prototype5.png,0,even,Win32,164,135321,132314,163,164,643962,645476,638963,136841,638963,164,,,,,,visual_patterns,0,0,0,yes,1366
undefined,undefined,undefined,undefined,white,no,Mozilla,Netscape,"5.0 (Windows NT 10.0; Win64; x64) AppleWebKit/537.36 (KHTML, like Gecko) Chrome/98.0.4758.102 Safari/537.36",xpyriment,legacy,legacy,0,uniform,0,0,0,0,24,24,24,0,0,73,73,73,73,73,0,73,0,,,,,,0,,28-01-22,28-01-22,15:05:17,Mon Feb 28 2022 15:05:17 GMT+0100 (közép-európai téli idő),The main experiment item,yes,0,0,C:/Users/rrics/Documents/!!ResearchBMECOGSCI/gnet,0,0,0,prototype3.png,no,mono,no,18,no,black,no,no,768,1154,3.5.6,legacy,xpyriment,osweb,1.3.13,0,up,space,up,,31196,23375,31196,,2,legacy,860,1600,24,900,24,0,0,1600,1646057178731,1024,2,48000,-16,experiment,prototype3.png,0,even,Win32,164,135321,132314,163,164,650503,652016,645513,136841,645513,164,,,,,,visual_patterns,0,0,0,yes,1366
undefined,undefined,undefined,undefined,white,no,Mozilla,Netscape,"5.0 (Windows NT 10.0; Win64; x64) AppleWebKit/537.36 (KHTML, like Gecko) Chrome/98.0.4758.102 Safari/537.36",xpyriment,legacy,legacy,0,uniform,0,0,0,0,24,24,24,0,0,74,74,74,74,74,0,74,0,,,,,,0,,28-01-22,28-01-22,15:05:17,Mon Feb 28 2022 15:05:17 GMT+0100 (közép-európai téli idő),The main experiment item,yes,0,0,C:/Users/rrics/Documents/!!ResearchBMECOGSCI/gnet,0,0,0,prototype3.png,no,mono,no,18,no,black,no,no,768,1154,3.5.6,legacy,xpyriment,osweb,1.3.13,0,up,space,up,,31196,23375,31196,,2,legacy,860,1600,24,900,24,0,0,1600,1646057178731,1024,2,48000,-16,experiment,prototype2.png,0,even,Win32,164,135321,132314,163,164,657044,658556,652044,136841,652044,164,,,,,,visual_patterns,0,0,0,yes,1366
undefined,undefined,undefined,undefined,white,no,Mozilla,Netscape,"5.0 (Windows NT 10.0; Win64; x64) AppleWebKit/537.36 (KHTML, like Gecko) Chrome/98.0.4758.102 Safari/537.36",xpyriment,legacy,legacy,0,uniform,0,0,0,0,24,24,24,0,0,74,74,74,74,74,0,74,0,0,0,0,0,0,0,0,28-01-22,28-01-22,15:05:17,Mon Feb 28 2022 15:05:17 GMT+0100 (közép-európai téli idő),The main experiment item,yes,0,0,C:/Users/rrics/Documents/!!ResearchBMECOGSCI/gnet,0,0,0,prototype3.png,no,mono,no,18,no,black,no,no,768,1154,3.5.6,legacy,xpyriment,osweb,1.3.13,0,right,space,up,right,48260,23375,31196,48260,2,legacy,860,1600,24,900,24,0,0,1600,1646057178731,1024,2,48000,-16,experiment,p5sarrsha3.png,0,even,Win32,164,135321,132314,163,164,657044,658556,652044,136841,652044,164,709901,711411,706912,658569,706912,visual_patterns,0,0,0,yes,1366
undefined,undefined,undefined,undefined,white,no,Mozilla,Netscape,"5.0 (Windows NT 10.0; Win64; x64) AppleWebKit/537.36 (KHTML, like Gecko) Chrome/98.0.4758.102 Safari/537.36",xpyriment,legacy,legacy,0,uniform,0,0,0,0,24,24,24,0,0,74,74,74,74,74,0,74,0,1,1,1,1,1,0,1,28-01-22,28-01-22,15:05:17,Mon Feb 28 2022 15:05:17 GMT+0100 (közép-európai téli idő),The main experiment item,yes,0,0,C:/Users/rrics/Documents/!!ResearchBMECOGSCI/gnet,0,0,0,prototype3.png,no,mono,no,18,no,black,no,no,768,1154,3.5.6,legacy,xpyriment,osweb,1.3.13,0,right,space,up,right,48260,23375,31196,48260,2,legacy,860,1600,24,900,24,0,0,1600,1646057178731,1024,2,48000,-16,experiment,p2sarrshacol1.png,0,even,Win32,164,135321,132314,163,164,657044,658556,652044,136841,652044,164,714450,715954,711449,658569,711449,visual_patterns,0,0,0,yes,1366
undefined,undefined,undefined,undefined,white,no,Mozilla,Netscape,"5.0 (Windows NT 10.0; Win64; x64) AppleWebKit/537.36 (KHTML, like Gecko) Chrome/98.0.4758.102 Safari/537.36",xpyriment,legacy,legacy,0,uniform,0,0,0,0,24,24,24,0,0,74,74,74,74,74,0,74,0,2,2,2,2,2,0,2,28-01-22,28-01-22,15:05:17,Mon Feb 28 2022 15:05:17 GMT+0100 (közép-európai téli idő),The main experiment item,yes,0,0,C:/Users/rrics/Documents/!!ResearchBMECOGSCI/gnet,0,0,0,prototype3.png,no,mono,no,18,no,black,no,no,768,1154,3.5.6,legacy,xpyriment,osweb,1.3.13,0,right,space,up,right,48260,23375,31196,48260,2,legacy,860,1600,24,900,24,0,0,1600,1646057178731,1024,2,48000,-16,experiment,p4sarr4.png,0,even,Win32,164,135321,132314,163,164,657044,658556,652044,136841,652044,164,718993,720498,716002,658569,716002,visual_patterns,0,0,0,yes,1366
undefined,undefined,undefined,undefined,white,no,Mozilla,Netscape,"5.0 (Windows NT 10.0; Win64; x64) AppleWebKit/537.36 (KHTML, like Gecko) Chrome/98.0.4758.102 Safari/537.36",xpyriment,legacy,legacy,0,uniform,0,0,0,0,24,24,24,0,0,74,74,74,74,74,0,74,0,3,3,3,3,3,0,3,28-01-22,28-01-22,15:05:17,Mon Feb 28 2022 15:05:17 GMT+0100 (közép-európai téli idő),The main experiment item,yes,0,0,C:/Users/rrics/Documents/!!ResearchBMECOGSCI/gnet,0,0,0,prototype3.png,no,mono,no,18,no,black,no,no,768,1154,3.5.6,legacy,xpyriment,osweb,1.3.13,0,right,space,up,right,48260,23375,31196,48260,2,legacy,860,1600,24,900,24,0,0,1600,1646057178731,1024,2,48000,-16,experiment,p5sarrsha2.png,0,even,Win32,164,135321,132314,163,164,657044,658556,652044,136841,652044,164,723540,725041,720540,658569,720540,visual_patterns,0,0,0,yes,1366
undefined,undefined,undefined,undefined,white,no,Mozilla,Netscape,"5.0 (Windows NT 10.0; Win64; x64) AppleWebKit/537.36 (KHTML, like Gecko) Chrome/98.0.4758.102 Safari/537.36",xpyriment,legacy,legacy,0,uniform,0,0,0,0,24,24,24,0,0,74,74,74,74,74,0,74,0,4,4,4,4,4,0,4,28-01-22,28-01-22,15:05:17,Mon Feb 28 2022 15:05:17 GMT+0100 (közép-európai téli idő),The main experiment item,yes,0,0,C:/Users/rrics/Documents/!!ResearchBMECOGSCI/gnet,0,0,0,prototype3.png,no,mono,no,18,no,black,no,no,768,1154,3.5.6,legacy,xpyriment,osweb,1.3.13,0,right,space,up,right,48260,23375,31196,48260,2,legacy,860,1600,24,900,24,0,0,1600,1646057178731,1024,2,48000,-16,experiment,p7sarr2.png,0,even,Win32,164,135321,132314,163,164,657044,658556,652044,136841,652044,164,728077,729584,725078,658569,725078,visual_patterns,0,0,0,yes,1366
undefined,undefined,undefined,undefined,white,no,Mozilla,Netscape,"5.0 (Windows NT 10.0; Win64; x64) AppleWebKit/537.36 (KHTML, like Gecko) Chrome/98.0.4758.102 Safari/537.36",xpyriment,legacy,legacy,0,uniform,0,0,0,0,24,24,24,0,0,74,74,74,74,74,0,74,0,5,5,5,5,5,0,5,28-01-22,28-01-22,15:05:17,Mon Feb 28 2022 15:05:17 GMT+0100 (közép-európai téli idő),The main experiment item,yes,0,0,C:/Users/rrics/Documents/!!ResearchBMECOGSCI/gnet,0,0,0,prototype3.png,no,mono,no,18,no,black,no,no,768,1154,3.5.6,legacy,xpyriment,osweb,1.3.13,0,right,space,up,right,48260,23375,31196,48260,2,legacy,860,1600,24,900,24,0,0,1600,1646057178731,1024,2,48000,-16,experiment,p1sarrsha4.png,0,even,Win32,164,135321,132314,163,164,657044,658556,652044,136841,652044,164,732679,734194,729682,658569,729682,visual_patterns,0,0,0,yes,1366
undefined,undefined,undefined,undefined,white,no,Mozilla,Netscape,"5.0 (Windows NT 10.0; Win64; x64) AppleWebKit/537.36 (KHTML, like Gecko) Chrome/98.0.4758.102 Safari/537.36",xpyriment,legacy,legacy,0,uniform,0,0,0,0,24,24,24,0,0,74,74,74,74,74,0,74,0,6,6,6,6,6,0,6,28-01-22,28-01-22,15:05:17,Mon Feb 28 2022 15:05:17 GMT+0100 (közép-európai téli idő),The main experiment item,yes,0,0,C:/Users/rrics/Documents/!!ResearchBMECOGSCI/gnet,0,0,0,prototype3.png,no,mono,no,18,no,black,no,no,768,1154,3.5.6,legacy,xpyriment,osweb,1.3.13,0,right,space,up,right,48260,23375,31196,48260,2,legacy,860,1600,24,900,24,0,0,1600,1646057178731,1024,2,48000,-16,experiment,p3sarrcol2.png,0,even,Win32,164,135321,132314,163,164,657044,658556,652044,136841,652044,164,737248,738754,734251,658569,734251,visual_patterns,0,0,0,yes,1366
undefined,undefined,undefined,undefined,white,no,Mozilla,Netscape,"5.0 (Windows NT 10.0; Win64; x64) AppleWebKit/537.36 (KHTML, like Gecko) Chrome/98.0.4758.102 Safari/537.36",xpyriment,legacy,legacy,0,uniform,0,0,0,0,24,24,24,0,0,74,74,74,74,74,0,74,0,7,7,7,7,7,0,7,28-01-22,28-01-22,15:05:17,Mon Feb 28 2022 15:05:17 GMT+0100 (közép-európai téli idő),The main experiment item,yes,0,0,C:/Users/rrics/Documents/!!ResearchBMECOGSCI/gnet,0,0,0,prototype3.png,no,mono,no,18,no,black,no,no,768,1154,3.5.6,legacy,xpyriment,osweb,1.3.13,0,right,space,up,right,48260,23375,31196,48260,2,legacy,860,1600,24,900,24,0,0,1600,1646057178731,1024,2,48000,-16,experiment,p3sarrcol3.png,0,even,Win32,164,135321,132314,163,164,657044,658556,652044,136841,652044,164,741787,743297,738798,658569,738797,visual_patterns,0,0,0,yes,1366
undefined,undefined,undefined,undefined,white,no,Mozilla,Netscape,"5.0 (Windows NT 10.0; Win64; x64) AppleWebKit/537.36 (KHTML, like Gecko) Chrome/98.0.4758.102 Safari/537.36",xpyriment,legacy,legacy,0,uniform,0,0,0,0,24,24,24,0,0,74,74,74,74,74,0,74,0,8,8,8,8,8,0,8,28-01-22,28-01-22,15:05:17,Mon Feb 28 2022 15:05:17 GMT+0100 (közép-európai téli idő),The main experiment item,yes,0,0,C:/Users/rrics/Documents/!!ResearchBMECOGSCI/gnet,0,0,0,prototype3.png,no,mono,no,18,no,black,no,no,768,1154,3.5.6,legacy,xpyriment,osweb,1.3.13,0,right,space,up,right,48260,23375,31196,48260,2,legacy,860,1600,24,900,24,0,0,1600,1646057178731,1024,2,48000,-16,experiment,p1sarrsha1.png,0,even,Win32,164,135321,132314,163,164,657044,658556,652044,136841,652044,164,746335,747840,743336,658569,743336,visual_patterns,0,0,0,yes,1366
undefined,undefined,undefined,undefined,white,no,Mozilla,Netscape,"5.0 (Windows NT 10.0; Win64; x64) AppleWebKit/537.36 (KHTML, like Gecko) Chrome/98.0.4758.102 Safari/537.36",xpyriment,legacy,legacy,0,uniform,0,0,0,0,24,24,24,0,0,74,74,74,74,74,0,74,0,9,9,9,9,9,0,9,28-01-22,28-01-22,15:05:17,Mon Feb 28 2022 15:05:17 GMT+0100 (közép-európai téli idő),The main experiment item,yes,0,0,C:/Users/rrics/Documents/!!ResearchBMECOGSCI/gnet,0,0,0,prototype3.png,no,mono,no,18,no,black,no,no,768,1154,3.5.6,legacy,xpyriment,osweb,1.3.13,0,right,space,up,right,48260,23375,31196,48260,2,legacy,860,1600,24,900,24,0,0,1600,1646057178731,1024,2,48000,-16,experiment,p4sarr1.png,0,even,Win32,164,135321,132314,163,164,657044,658556,652044,136841,652044,164,750873,752383,747887,658569,747887,visual_patterns,0,0,0,yes,1366
undefined,undefined,undefined,undefined,white,no,Mozilla,Netscape,"5.0 (Windows NT 10.0; Win64; x64) AppleWebKit/537.36 (KHTML, like Gecko) Chrome/98.0.4758.102 Safari/537.36",xpyriment,legacy,legacy,0,uniform,0,0,0,0,24,24,24,0,0,74,74,74,74,74,0,74,0,10,10,10,10,10,0,10,28-01-22,28-01-22,15:05:17,Mon Feb 28 2022 15:05:17 GMT+0100 (közép-európai téli idő),The main experiment item,yes,0,0,C:/Users/rrics/Documents/!!ResearchBMECOGSCI/gnet,0,0,0,prototype3.png,no,mono,no,18,no,black,no,no,768,1154,3.5.6,legacy,xpyriment,osweb,1.3.13,0,right,space,up,right,48260,23375,31196,48260,2,legacy,860,1600,24,900,24,0,0,1600,1646057178731,1024,2,48000,-16,experiment,p9sarr2.png,0,even,Win32,164,135321,132314,163,164,657044,658556,652044,136841,652044,164,755425,756926,752424,658569,752424,visual_patterns,0,0,0,yes,1366
undefined,undefined,undefined,undefined,white,no,Mozilla,Netscape,"5.0 (Windows NT 10.0; Win64; x64) AppleWebKit/537.36 (KHTML, like Gecko) Chrome/98.0.4758.102 Safari/537.36",xpyriment,legacy,legacy,0,uniform,0,0,0,0,24,24,24,0,0,74,74,74,74,74,0,74,0,11,11,11,11,11,0,11,28-01-22,28-01-22,15:05:17,Mon Feb 28 2022 15:05:17 GMT+0100 (közép-európai téli idő),The main experiment item,yes,0,0,C:/Users/rrics/Documents/!!ResearchBMECOGSCI/gnet,0,0,0,prototype3.png,no,mono,no,18,no,black,no,no,768,1154,3.5.6,legacy,xpyriment,osweb,1.3.13,0,right,space,up,right,48260,23375,31196,48260,2,legacy,860,1600,24,900,24,0,0,1600,1646057178731,1024,2,48000,-16,experiment,p1sarr2.png,0,even,Win32,164,135321,132314,163,164,657044,658556,652044,136841,652044,164,759960,761470,756972,658569,756971,visual_patterns,0,0,0,yes,1366
undefined,undefined,undefined,undefined,white,no,Mozilla,Netscape,"5.0 (Windows NT 10.0; Win64; x64) AppleWebKit/537.36 (KHTML, like Gecko) Chrome/98.0.4758.102 Safari/537.36",xpyriment,legacy,legacy,0,uniform,0,0,0,0,24,24,24,0,0,74,74,74,74,74,0,74,0,12,12,12,12,12,0,12,28-01-22,28-01-22,15:05:17,Mon Feb 28 2022 15:05:17 GMT+0100 (közép-európai téli idő),The main experiment item,yes,0,0,C:/Users/rrics/Documents/!!ResearchBMECOGSCI/gnet,0,0,0,prototype3.png,no,mono,no,18,no,black,no,no,768,1154,3.5.6,legacy,xpyriment,osweb,1.3.13,0,right,space,up,right,48260,23375,31196,48260,2,legacy,860,1600,24,900,24,0,0,1600,1646057178731,1024,2,48000,-16,experiment,p3sarrcol4.png,0,even,Win32,164,135321,132314,163,164,657044,658556,652044,136841,652044,164,764510,766013,761521,658569,761520,visual_patterns,0,0,0,yes,1366
undefined,undefined,undefined,undefined,white,no,Mozilla,Netscape,"5.0 (Windows NT 10.0; Win64; x64) AppleWebKit/537.36 (KHTML, like Gecko) Chrome/98.0.4758.102 Safari/537.36",xpyriment,legacy,legacy,0,uniform,0,0,0,0,24,24,24,0,0,74,74,74,74,74,0,74,0,13,13,13,13,13,0,13,28-01-22,28-01-22,15:05:17,Mon Feb 28 2022 15:05:17 GMT+0100 (közép-európai téli idő),The main experiment item,yes,0,0,C:/Users/rrics/Documents/!!ResearchBMECOGSCI/gnet,0,0,0,prototype3.png,no,mono,no,18,no,black,no,no,768,1154,3.5.6,legacy,xpyriment,osweb,1.3.13,0,right,space,up,right,48260,23375,31196,48260,2,legacy,860,1600,24,900,24,0,0,1600,1646057178731,1024,2,48000,-16,experiment,p2sarrshacol2.png,0,even,Win32,164,135321,132314,163,164,657044,658556,652044,136841,652044,164,769037,770540,766033,658569,766033,visual_patterns,0,0,0,yes,1366
undefined,undefined,undefined,undefined,white,no,Mozilla,Netscape,"5.0 (Windows NT 10.0; Win64; x64) AppleWebKit/537.36 (KHTML, like Gecko) Chrome/98.0.4758.102 Safari/537.36",xpyriment,legacy,legacy,0,uniform,0,0,0,0,24,24,24,0,0,74,74,74,74,74,0,74,0,14,14,14,14,14,0,14,28-01-22,28-01-22,15:05:17,Mon Feb 28 2022 15:05:17 GMT+0100 (közép-európai téli idő),The main experiment item,yes,0,0,C:/Users/rrics/Documents/!!ResearchBMECOGSCI/gnet,0,0,0,prototype3.png,no,mono,no,18,no,black,no,no,768,1154,3.5.6,legacy,xpyriment,osweb,1.3.13,0,right,space,up,right,48260,23375,31196,48260,2,legacy,860,1600,24,900,24,0,0,1600,1646057178731,1024,2,48000,-16,experiment,p6sarr1.png,0,even,Win32,164,135321,132314,163,164,657044,658556,652044,136841,652044,164,773574,775083,770574,658569,770574,visual_patterns,0,0,0,yes,1366
undefined,undefined,undefined,undefined,white,no,Mozilla,Netscape,"5.0 (Windows NT 10.0; Win64; x64) AppleWebKit/537.36 (KHTML, like Gecko) Chrome/98.0.4758.102 Safari/537.36",xpyriment,legacy,legacy,0,uniform,0,0,0,0,24,24,24,0,0,74,74,74,74,74,0,74,0,15,15,15,15,15,0,15,28-01-22,28-01-22,15:05:17,Mon Feb 28 2022 15:05:17 GMT+0100 (közép-európai téli idő),The main experiment item,yes,0,0,C:/Users/rrics/Documents/!!ResearchBMECOGSCI/gnet,0,0,0,prototype3.png,no,mono,no,18,no,black,no,no,768,1154,3.5.6,legacy,xpyriment,osweb,1.3.13,0,right,space,up,right,48260,23375,31196,48260,2,legacy,860,1600,24,900,24,0,0,1600,1646057178731,1024,2,48000,-16,experiment,p4sarrshacol3.png,0,even,Win32,164,135321,132314,163,164,657044,658556,652044,136841,652044,164,778181,779693,775185,658569,775185,visual_patterns,0,0,0,yes,1366
undefined,undefined,undefined,undefined,white,no,Mozilla,Netscape,"5.0 (Windows NT 10.0; Win64; x64) AppleWebKit/537.36 (KHTML, like Gecko) Chrome/98.0.4758.102 Safari/537.36",xpyriment,legacy,legacy,0,uniform,0,0,0,0,24,24,24,0,0,74,74,74,74,74,0,74,0,16,16,16,16,16,0,16,28-01-22,28-01-22,15:05:17,Mon Feb 28 2022 15:05:17 GMT+0100 (közép-európai téli idő),The main experiment item,yes,0,0,C:/Users/rrics/Documents/!!ResearchBMECOGSCI/gnet,0,0,0,prototype3.png,no,mono,no,18,no,black,no,no,768,1154,3.5.6,legacy,xpyriment,osweb,1.3.13,0,right,space,up,right,48260,23375,31196,48260,2,legacy,860,1600,24,900,24,0,0,1600,1646057178731,1024,2,48000,-16,experiment,p4sarrshacol4.png,0,even,Win32,164,135321,132314,163,164,657044,658556,652044,136841,652044,164,782729,784236,779741,658569,779741,visual_patterns,0,0,0,yes,1366
undefined,undefined,undefined,undefined,white,no,Mozilla,Netscape,"5.0 (Windows NT 10.0; Win64; x64) AppleWebKit/537.36 (KHTML, like Gecko) Chrome/98.0.4758.102 Safari/537.36",xpyriment,legacy,legacy,0,uniform,0,0,0,0,24,24,24,0,0,74,74,74,74,74,0,74,0,17,17,17,17,17,0,17,28-01-22,28-01-22,15:05:17,Mon Feb 28 2022 15:05:17 GMT+0100 (közép-európai téli idő),The main experiment item,yes,0,0,C:/Users/rrics/Documents/!!ResearchBMECOGSCI/gnet,0,0,0,prototype3.png,no,mono,no,18,no,black,no,no,768,1154,3.5.6,legacy,xpyriment,osweb,1.3.13,0,right,space,up,right,48260,23375,31196,48260,2,legacy,860,1600,24,900,24,0,0,1600,1646057178731,1024,2,48000,-16,experiment,p2sarrcol1.png,0,even,Win32,164,135321,132314,163,164,657044,658556,652044,136841,652044,164,787269,788779,784271,658569,784271,visual_patterns,0,0,0,yes,1366
undefined,undefined,undefined,undefined,white,no,Mozilla,Netscape,"5.0 (Windows NT 10.0; Win64; x64) AppleWebKit/537.36 (KHTML, like Gecko) Chrome/98.0.4758.102 Safari/537.36",xpyriment,legacy,legacy,0,uniform,0,0,0,0,24,24,24,0,0,74,74,74,74,74,0,74,0,18,18,18,18,18,0,18,28-01-22,28-01-22,15:05:17,Mon Feb 28 2022 15:05:17 GMT+0100 (közép-európai téli idő),The main experiment item,yes,0,0,C:/Users/rrics/Documents/!!ResearchBMECOGSCI/gnet,0,0,0,prototype3.png,no,mono,no,18,no,black,no,no,768,1154,3.5.6,legacy,xpyriment,osweb,1.3.13,0,right,space,up,right,48260,23375,31196,48260,2,legacy,860,1600,24,900,24,0,0,1600,1646057178731,1024,2,48000,-16,experiment,p1sarr4.png,0,even,Win32,164,135321,132314,163,164,657044,658556,652044,136841,652044,164,791816,793322,788828,658569,788828,visual_patterns,0,0,0,yes,1366
undefined,undefined,undefined,undefined,white,no,Mozilla,Netscape,"5.0 (Windows NT 10.0; Win64; x64) AppleWebKit/537.36 (KHTML, like Gecko) Chrome/98.0.4758.102 Safari/537.36",xpyriment,legacy,legacy,0,uniform,0,0,0,0,24,24,24,0,0,74,74,74,74,74,0,74,0,19,19,19,19,19,0,19,28-01-22,28-01-22,15:05:17,Mon Feb 28 2022 15:05:17 GMT+0100 (közép-európai téli idő),The main experiment item,yes,0,0,C:/Users/rrics/Documents/!!ResearchBMECOGSCI/gnet,0,0,0,prototype3.png,no,mono,no,18,no,black,no,no,768,1154,3.5.6,legacy,xpyriment,osweb,1.3.13,0,right,space,up,right,48260,23375,31196,48260,2,legacy,860,1600,24,900,24,0,0,1600,1646057178731,1024,2,48000,-16,experiment,p10sarr1.png,0,even,Win32,164,135321,132314,163,164,657044,658556,652044,136841,652044,164,796356,797866,793372,658569,793372,visual_patterns,0,0,0,yes,1366
undefined,undefined,undefined,undefined,white,no,Mozilla,Netscape,"5.0 (Windows NT 10.0; Win64; x64) AppleWebKit/537.36 (KHTML, like Gecko) Chrome/98.0.4758.102 Safari/537.36",xpyriment,legacy,legacy,0,uniform,0,0,0,0,24,24,24,0,0,74,74,74,74,74,0,74,0,20,20,20,20,20,0,20,28-01-22,28-01-22,15:05:17,Mon Feb 28 2022 15:05:17 GMT+0100 (közép-európai téli idő),The main experiment item,yes,0,0,C:/Users/rrics/Documents/!!ResearchBMECOGSCI/gnet,0,0,0,prototype3.png,no,mono,no,18,no,black,no,no,768,1154,3.5.6,legacy,xpyriment,osweb,1.3.13,0,right,space,up,right,48260,23375,31196,48260,2,legacy,860,1600,24,900,24,0,0,1600,1646057178731,1024,2,48000,-16,experiment,p8sarr3.png,0,even,Win32,164,135321,132314,163,164,657044,658556,652044,136841,652044,164,800961,802475,797963,658569,797963,visual_patterns,0,0,0,yes,1366
undefined,undefined,undefined,undefined,white,no,Mozilla,Netscape,"5.0 (Windows NT 10.0; Win64; x64) AppleWebKit/537.36 (KHTML, like Gecko) Chrome/98.0.4758.102 Safari/537.36",xpyriment,legacy,legacy,0,uniform,0,0,0,0,24,24,24,0,0,74,74,74,74,74,0,74,0,21,21,21,21,21,0,21,28-01-22,28-01-22,15:05:17,Mon Feb 28 2022 15:05:17 GMT+0100 (közép-európai téli idő),The main experiment item,yes,0,0,C:/Users/rrics/Documents/!!ResearchBMECOGSCI/gnet,0,0,0,prototype3.png,no,mono,no,18,no,black,no,no,768,1154,3.5.6,legacy,xpyriment,osweb,1.3.13,0,right,space,up,right,48260,23375,31196,48260,2,legacy,860,1600,24,900,24,0,0,1600,1646057178731,1024,2,48000,-16,experiment,p9sarr4.png,0,even,Win32,164,135321,132314,163,164,657044,658556,652044,136841,652044,164,805514,807019,802526,658569,802526,visual_patterns,0,0,0,yes,1366
undefined,undefined,undefined,undefined,white,no,Mozilla,Netscape,"5.0 (Windows NT 10.0; Win64; x64) AppleWebKit/537.36 (KHTML, like Gecko) Chrome/98.0.4758.102 Safari/537.36",xpyriment,legacy,legacy,0,uniform,0,0,0,0,24,24,24,0,0,74,74,74,74,74,0,74,0,22,22,22,22,22,0,22,28-01-22,28-01-22,15:05:17,Mon Feb 28 2022 15:05:17 GMT+0100 (közép-európai téli idő),The main experiment item,yes,0,0,C:/Users/rrics/Documents/!!ResearchBMECOGSCI/gnet,0,0,0,prototype3.png,no,mono,no,18,no,black,no,no,768,1154,3.5.6,legacy,xpyriment,osweb,1.3.13,0,right,space,up,right,48260,23375,31196,48260,2,legacy,860,1600,24,900,24,0,0,1600,1646057178731,1024,2,48000,-16,experiment,p5sarrcol2.png,0,even,Win32,164,135321,132314,163,164,657044,658556,652044,136841,652044,164,810054,811562,807062,658569,807062,visual_patterns,0,0,0,yes,1366
undefined,undefined,undefined,undefined,white,no,Mozilla,Netscape,"5.0 (Windows NT 10.0; Win64; x64) AppleWebKit/537.36 (KHTML, like Gecko) Chrome/98.0.4758.102 Safari/537.36",xpyriment,legacy,legacy,0,uniform,0,0,0,0,24,24,24,0,0,74,74,74,74,74,0,74,0,23,23,23,23,23,0,23,28-01-22,28-01-22,15:05:17,Mon Feb 28 2022 15:05:17 GMT+0100 (közép-európai téli idő),The main experiment item,yes,0,0,C:/Users/rrics/Documents/!!ResearchBMECOGSCI/gnet,0,0,0,prototype3.png,no,mono,no,18,no,black,no,no,768,1154,3.5.6,legacy,xpyriment,osweb,1.3.13,0,right,space,up,right,48260,23375,31196,48260,2,legacy,860,1600,24,900,24,0,0,1600,1646057178731,1024,2,48000,-16,experiment,p7sarr4.png,0,even,Win32,164,135321,132314,163,164,657044,658556,652044,136841,652044,164,814596,816105,811609,658569,811609,visual_patterns,0,0,0,yes,1366
undefined,undefined,undefined,undefined,white,no,Mozilla,Netscape,"5.0 (Windows NT 10.0; Win64; x64) AppleWebKit/537.36 (KHTML, like Gecko) Chrome/98.0.4758.102 Safari/537.36",xpyriment,legacy,legacy,0,uniform,0,0,0,0,24,24,24,0,0,74,74,74,74,74,0,74,0,24,24,24,24,24,0,24,28-01-22,28-01-22,15:05:17,Mon Feb 28 2022 15:05:17 GMT+0100 (közép-európai téli idő),The main experiment item,yes,0,0,C:/Users/rrics/Documents/!!ResearchBMECOGSCI/gnet,0,0,0,prototype3.png,no,mono,no,18,no,black,no,no,768,1154,3.5.6,legacy,xpyriment,osweb,1.3.13,0,right,space,up,right,48260,23375,31196,48260,2,legacy,860,1600,24,900,24,0,0,1600,1646057178731,1024,2,48000,-16,experiment,p3sarrsha3.png,0,even,Win32,164,135321,132314,163,164,657044,658556,652044,136841,652044,164,819145,820648,816157,658569,816157,visual_patterns,0,0,0,yes,1366
undefined,undefined,undefined,undefined,white,no,Mozilla,Netscape,"5.0 (Windows NT 10.0; Win64; x64) AppleWebKit/537.36 (KHTML, like Gecko) Chrome/98.0.4758.102 Safari/537.36",xpyriment,legacy,legacy,0,uniform,0,0,0,0,24,24,24,0,0,74,74,74,74,74,0,74,0,25,25,25,25,25,0,25,28-01-22,28-01-22,15:05:17,Mon Feb 28 2022 15:05:17 GMT+0100 (közép-európai téli idő),The main experiment item,yes,0,0,C:/Users/rrics/Documents/!!ResearchBMECOGSCI/gnet,0,0,0,prototype3.png,no,mono,no,18,no,black,no,no,768,1154,3.5.6,legacy,xpyriment,osweb,1.3.13,0,right,space,up,right,48260,23375,31196,48260,2,legacy,860,1600,24,900,24,0,0,1600,1646057178731,1024,2,48000,-16,experiment,p8sarr4.png,0,even,Win32,164,135321,132314,163,164,657044,658556,652044,136841,652044,164,823683,825191,820697,658569,820697,visual_patterns,0,0,0,yes,1366
undefined,undefined,undefined,undefined,white,no,Mozilla,Netscape,"5.0 (Windows NT 10.0; Win64; x64) AppleWebKit/537.36 (KHTML, like Gecko) Chrome/98.0.4758.102 Safari/537.36",xpyriment,legacy,legacy,0,uniform,0,0,0,0,24,24,24,0,0,74,74,74,74,74,0,74,0,26,26,26,26,26,0,26,28-01-22,28-01-22,15:05:17,Mon Feb 28 2022 15:05:17 GMT+0100 (közép-európai téli idő),The main experiment item,yes,0,0,C:/Users/rrics/Documents/!!ResearchBMECOGSCI/gnet,0,0,0,prototype3.png,no,mono,no,18,no,black,no,no,768,1154,3.5.6,legacy,xpyriment,osweb,1.3.13,0,right,space,up,right,48260,23375,31196,48260,2,legacy,860,1600,24,900,24,0,0,1600,1646057178731,1024,2,48000,-16,experiment,p2sarrshacol4.png,0,even,Win32,164,135321,132314,163,164,657044,658556,652044,136841,652044,164,828231,829735,825236,658569,825236,visual_patterns,0,0,0,yes,1366
undefined,undefined,undefined,undefined,white,no,Mozilla,Netscape,"5.0 (Windows NT 10.0; Win64; x64) AppleWebKit/537.36 (KHTML, like Gecko) Chrome/98.0.4758.102 Safari/537.36",xpyriment,legacy,legacy,0,uniform,0,0,0,0,24,24,24,0,0,74,74,74,74,74,0,74,0,27,27,27,27,27,0,27,28-01-22,28-01-22,15:05:17,Mon Feb 28 2022 15:05:17 GMT+0100 (közép-európai téli idő),The main experiment item,yes,0,0,C:/Users/rrics/Documents/!!ResearchBMECOGSCI/gnet,0,0,0,prototype3.png,no,mono,no,18,no,black,no,no,768,1154,3.5.6,legacy,xpyriment,osweb,1.3.13,0,right,space,up,right,48260,23375,31196,48260,2,legacy,860,1600,24,900,24,0,0,1600,1646057178731,1024,2,48000,-16,experiment,p4sarrshacol1.png,0,even,Win32,164,135321,132314,163,164,657044,658556,652044,136841,652044,164,832772,834278,829773,658569,829773,visual_patterns,0,0,0,yes,1366
undefined,undefined,undefined,undefined,white,no,Mozilla,Netscape,"5.0 (Windows NT 10.0; Win64; x64) AppleWebKit/537.36 (KHTML, like Gecko) Chrome/98.0.4758.102 Safari/537.36",xpyriment,legacy,legacy,0,uniform,0,0,0,0,24,24,24,0,0,74,74,74,74,74,0,74,0,28,28,28,28,28,0,28,28-01-22,28-01-22,15:05:17,Mon Feb 28 2022 15:05:17 GMT+0100 (közép-európai téli idő),The main experiment item,yes,0,0,C:/Users/rrics/Documents/!!ResearchBMECOGSCI/gnet,0,0,0,prototype3.png,no,mono,no,18,no,black,no,no,768,1154,3.5.6,legacy,xpyriment,osweb,1.3.13,0,right,space,up,right,48260,23375,31196,48260,2,legacy,860,1600,24,900,24,0,0,1600,1646057178731,1024,2,48000,-16,experiment,p1sarrshacol3.png,0,even,Win32,164,135321,132314,163,164,657044,658556,652044,136841,652044,164,837314,838821,834320,658569,834320,visual_patterns,0,0,0,yes,1366
undefined,undefined,undefined,undefined,white,no,Mozilla,Netscape,"5.0 (Windows NT 10.0; Win64; x64) AppleWebKit/537.36 (KHTML, like Gecko) Chrome/98.0.4758.102 Safari/537.36",xpyriment,legacy,legacy,0,uniform,0,0,0,0,24,24,24,0,0,74,74,74,74,74,0,74,0,29,29,29,29,29,0,29,28-01-22,28-01-22,15:05:17,Mon Feb 28 2022 15:05:17 GMT+0100 (közép-európai téli idő),The main experiment item,yes,0,0,C:/Users/rrics/Documents/!!ResearchBMECOGSCI/gnet,0,0,0,prototype3.png,no,mono,no,18,no,black,no,no,768,1154,3.5.6,legacy,xpyriment,osweb,1.3.13,0,right,space,up,right,48260,23375,31196,48260,2,legacy,860,1600,24,900,24,0,0,1600,1646057178731,1024,2,48000,-16,experiment,p2sarrsha1.png,0,even,Win32,164,135321,132314,163,164,657044,658556,652044,136841,652044,164,841858,843364,838864,658569,838864,visual_patterns,0,0,0,yes,1366
undefined,undefined,undefined,undefined,white,no,Mozilla,Netscape,"5.0 (Windows NT 10.0; Win64; x64) AppleWebKit/537.36 (KHTML, like Gecko) Chrome/98.0.4758.102 Safari/537.36",xpyriment,legacy,legacy,0,uniform,0,0,0,0,24,24,24,0,0,74,74,74,74,74,0,74,0,30,30,30,30,30,0,30,28-01-22,28-01-22,15:05:17,Mon Feb 28 2022 15:05:17 GMT+0100 (közép-európai téli idő),The main experiment item,yes,0,0,C:/Users/rrics/Documents/!!ResearchBMECOGSCI/gnet,0,0,0,prototype3.png,no,mono,no,18,no,black,no,no,768,1154,3.5.6,legacy,xpyriment,osweb,1.3.13,0,right,space,up,right,48260,23375,31196,48260,2,legacy,860,1600,24,900,24,0,0,1600,1646057178731,1024,2,48000,-16,experiment,p3sarr2.png,0,even,Win32,164,135321,132314,163,164,657044,658556,652044,136841,652044,164,846447,847957,843446,658569,843446,visual_patterns,0,0,0,yes,1366
undefined,undefined,undefined,undefined,white,no,Mozilla,Netscape,"5.0 (Windows NT 10.0; Win64; x64) AppleWebKit/537.36 (KHTML, like Gecko) Chrome/98.0.4758.102 Safari/537.36",xpyriment,legacy,legacy,0,uniform,0,0,0,0,24,24,24,0,0,74,74,74,74,74,0,74,0,31,31,31,31,31,0,31,28-01-22,28-01-22,15:05:17,Mon Feb 28 2022 15:05:17 GMT+0100 (közép-európai téli idő),The main experiment item,yes,0,0,C:/Users/rrics/Documents/!!ResearchBMECOGSCI/gnet,0,0,0,prototype3.png,no,mono,no,18,no,black,no,no,768,1154,3.5.6,legacy,xpyriment,osweb,1.3.13,0,right,space,up,right,48260,23375,31196,48260,2,legacy,860,1600,24,900,24,0,0,1600,1646057178731,1024,2,48000,-16,experiment,p3sarrshacol3.png,0,even,Win32,164,135321,132314,163,164,657044,658556,652044,136841,652044,164,850993,852501,848009,658569,848009,visual_patterns,0,0,0,yes,1366
undefined,undefined,undefined,undefined,white,no,Mozilla,Netscape,"5.0 (Windows NT 10.0; Win64; x64) AppleWebKit/537.36 (KHTML, like Gecko) Chrome/98.0.4758.102 Safari/537.36",xpyriment,legacy,legacy,0,uniform,0,0,0,0,24,24,24,0,0,74,74,74,74,74,0,74,0,32,32,32,32,32,0,32,28-01-22,28-01-22,15:05:17,Mon Feb 28 2022 15:05:17 GMT+0100 (közép-európai téli idő),The main experiment item,yes,0,0,C:/Users/rrics/Documents/!!ResearchBMECOGSCI/gnet,0,0,0,prototype3.png,no,mono,no,18,no,black,no,no,768,1154,3.5.6,legacy,xpyriment,osweb,1.3.13,0,right,space,up,right,48260,23375,31196,48260,2,legacy,860,1600,24,900,24,0,0,1600,1646057178731,1024,2,48000,-16,experiment,p2sarrcol4.png,0,even,Win32,164,135321,132314,163,164,657044,658556,652044,136841,652044,164,855532,857044,852554,658569,852554,visual_patterns,0,0,0,yes,1366
undefined,undefined,undefined,undefined,white,no,Mozilla,Netscape,"5.0 (Windows NT 10.0; Win64; x64) AppleWebKit/537.36 (KHTML, like Gecko) Chrome/98.0.4758.102 Safari/537.36",xpyriment,legacy,legacy,0,uniform,0,0,0,0,24,24,24,0,0,74,74,74,74,74,0,74,0,33,33,33,33,33,0,33,28-01-22,28-01-22,15:05:17,Mon Feb 28 2022 15:05:17 GMT+0100 (közép-európai téli idő),The main experiment item,yes,0,0,C:/Users/rrics/Documents/!!ResearchBMECOGSCI/gnet,0,0,0,prototype3.png,no,mono,no,18,no,black,no,no,768,1154,3.5.6,legacy,xpyriment,osweb,1.3.13,0,right,space,up,right,48260,23375,31196,48260,2,legacy,860,1600,24,900,24,0,0,1600,1646057178731,1024,2,48000,-16,experiment,p5sarrcol1.png,0,even,Win32,164,135321,132314,163,164,657044,658556,652044,136841,652044,164,860088,861604,857092,658569,857092,visual_patterns,0,0,0,yes,1366
undefined,undefined,undefined,undefined,white,no,Mozilla,Netscape,"5.0 (Windows NT 10.0; Win64; x64) AppleWebKit/537.36 (KHTML, like Gecko) Chrome/98.0.4758.102 Safari/537.36",xpyriment,legacy,legacy,0,uniform,0,0,0,0,24,24,24,0,0,74,74,74,74,74,0,74,0,34,34,34,34,34,0,34,28-01-22,28-01-22,15:05:17,Mon Feb 28 2022 15:05:17 GMT+0100 (közép-európai téli idő),The main experiment item,yes,0,0,C:/Users/rrics/Documents/!!ResearchBMECOGSCI/gnet,0,0,0,prototype3.png,no,mono,no,18,no,black,no,no,768,1154,3.5.6,legacy,xpyriment,osweb,1.3.13,0,right,space,up,right,48260,23375,31196,48260,2,legacy,860,1600,24,900,24,0,0,1600,1646057178731,1024,2,48000,-16,experiment,p8sarr2.png,0,even,Win32,164,135321,132314,163,164,657044,658556,652044,136841,652044,164,864639,866146,861650,658569,861649,visual_patterns,0,0,0,yes,1366
undefined,undefined,undefined,undefined,white,no,Mozilla,Netscape,"5.0 (Windows NT 10.0; Win64; x64) AppleWebKit/537.36 (KHTML, like Gecko) Chrome/98.0.4758.102 Safari/537.36",xpyriment,legacy,legacy,0,uniform,0,0,0,0,24,24,24,0,0,74,74,74,74,74,0,74,0,35,35,35,35,35,0,35,28-01-22,28-01-22,15:05:17,Mon Feb 28 2022 15:05:17 GMT+0100 (közép-európai téli idő),The main experiment item,yes,0,0,C:/Users/rrics/Documents/!!ResearchBMECOGSCI/gnet,0,0,0,prototype3.png,no,mono,no,18,no,black,no,no,768,1154,3.5.6,legacy,xpyriment,osweb,1.3.13,0,right,space,up,right,48260,23375,31196,48260,2,legacy,860,1600,24,900,24,0,0,1600,1646057178731,1024,2,48000,-16,experiment,p5sarr3.png,0,even,Win32,164,135321,132314,163,164,657044,658556,652044,136841,652044,164,869202,870707,866205,658569,866205,visual_patterns,0,0,0,yes,1366
undefined,undefined,undefined,undefined,white,no,Mozilla,Netscape,"5.0 (Windows NT 10.0; Win64; x64) AppleWebKit/537.36 (KHTML, like Gecko) Chrome/98.0.4758.102 Safari/537.36",xpyriment,legacy,legacy,0,uniform,0,0,0,0,24,24,24,0,0,74,74,74,74,74,0,74,0,36,36,36,36,36,0,36,28-01-22,28-01-22,15:05:17,Mon Feb 28 2022 15:05:17 GMT+0100 (közép-európai téli idő),The main experiment item,yes,0,0,C:/Users/rrics/Documents/!!ResearchBMECOGSCI/gnet,0,0,0,prototype3.png,no,mono,no,18,no,black,no,no,768,1154,3.5.6,legacy,xpyriment,osweb,1.3.13,0,right,space,up,right,48260,23375,31196,48260,2,legacy,860,1600,24,900,24,0,0,1600,1646057178731,1024,2,48000,-16,experiment,p7sarr1.png,0,even,Win32,164,135321,132314,163,164,657044,658556,652044,136841,652044,164,873745,875250,870745,658569,870745,visual_patterns,0,0,0,yes,1366
undefined,undefined,undefined,undefined,white,no,Mozilla,Netscape,"5.0 (Windows NT 10.0; Win64; x64) AppleWebKit/537.36 (KHTML, like Gecko) Chrome/98.0.4758.102 Safari/537.36",xpyriment,legacy,legacy,0,uniform,0,0,0,0,24,24,24,0,0,74,74,74,74,74,0,74,0,37,37,37,37,37,0,37,28-01-22,28-01-22,15:05:17,Mon Feb 28 2022 15:05:17 GMT+0100 (közép-európai téli idő),The main experiment item,yes,0,0,C:/Users/rrics/Documents/!!ResearchBMECOGSCI/gnet,0,0,0,prototype3.png,no,mono,no,18,no,black,no,no,768,1154,3.5.6,legacy,xpyriment,osweb,1.3.13,0,right,space,up,right,48260,23375,31196,48260,2,legacy,860,1600,24,900,24,0,0,1600,1646057178731,1024,2,48000,-16,experiment,p1sarrcol4.png,0,even,Win32,164,135321,132314,163,164,657044,658556,652044,136841,652044,164,878284,879794,875300,658569,875300,visual_patterns,0,0,0,yes,1366
undefined,undefined,undefined,undefined,white,no,Mozilla,Netscape,"5.0 (Windows NT 10.0; Win64; x64) AppleWebKit/537.36 (KHTML, like Gecko) Chrome/98.0.4758.102 Safari/537.36",xpyriment,legacy,legacy,0,uniform,0,0,0,0,24,24,24,0,0,74,74,74,74,74,0,74,0,38,38,38,38,38,0,38,28-01-22,28-01-22,15:05:17,Mon Feb 28 2022 15:05:17 GMT+0100 (közép-európai téli idő),The main experiment item,yes,0,0,C:/Users/rrics/Documents/!!ResearchBMECOGSCI/gnet,0,0,0,prototype3.png,no,mono,no,18,no,black,no,no,768,1154,3.5.6,legacy,xpyriment,osweb,1.3.13,0,right,space,up,right,48260,23375,31196,48260,2,legacy,860,1600,24,900,24,0,0,1600,1646057178731,1024,2,48000,-16,experiment,p3sarrsha4.png,0,even,Win32,164,135321,132314,163,164,657044,658556,652044,136841,652044,164,882829,884337,879842,658569,879842,visual_patterns,0,0,0,yes,1366
undefined,undefined,undefined,undefined,white,no,Mozilla,Netscape,"5.0 (Windows NT 10.0; Win64; x64) AppleWebKit/537.36 (KHTML, like Gecko) Chrome/98.0.4758.102 Safari/537.36",xpyriment,legacy,legacy,0,uniform,0,0,0,0,24,24,24,0,0,74,74,74,74,74,0,74,0,39,39,39,39,39,0,39,28-01-22,28-01-22,15:05:17,Mon Feb 28 2022 15:05:17 GMT+0100 (közép-európai téli idő),The main experiment item,yes,0,0,C:/Users/rrics/Documents/!!ResearchBMECOGSCI/gnet,0,0,0,prototype3.png,no,mono,no,18,no,black,no,no,768,1154,3.5.6,legacy,xpyriment,osweb,1.3.13,0,right,space,up,right,48260,23375,31196,48260,2,legacy,860,1600,24,900,24,0,0,1600,1646057178731,1024,2,48000,-16,experiment,p3sarr1.png,0,even,Win32,164,135321,132314,163,164,657044,658556,652044,136841,652044,164,887375,888880,884379,658569,884379,visual_patterns,0,0,0,yes,1366
undefined,undefined,undefined,undefined,white,no,Mozilla,Netscape,"5.0 (Windows NT 10.0; Win64; x64) AppleWebKit/537.36 (KHTML, like Gecko) Chrome/98.0.4758.102 Safari/537.36",xpyriment,legacy,legacy,0,uniform,0,0,0,0,24,24,24,0,0,74,74,74,74,74,0,74,0,40,40,40,40,40,0,40,28-01-22,28-01-22,15:05:17,Mon Feb 28 2022 15:05:17 GMT+0100 (közép-európai téli idő),The main experiment item,yes,0,0,C:/Users/rrics/Documents/!!ResearchBMECOGSCI/gnet,0,0,0,prototype3.png,no,mono,no,18,no,black,no,no,768,1154,3.5.6,legacy,xpyriment,osweb,1.3.13,0,right,space,up,right,48260,23375,31196,48260,2,legacy,860,1600,24,900,24,0,0,1600,1646057178731,1024,2,48000,-16,experiment,p2sarrsha3.png,0,even,Win32,164,135321,132314,163,164,657044,658556,652044,136841,652044,164,891914,893423,888930,658569,888928,visual_patterns,0,0,0,yes,1366
undefined,undefined,undefined,undefined,white,no,Mozilla,Netscape,"5.0 (Windows NT 10.0; Win64; x64) AppleWebKit/537.36 (KHTML, like Gecko) Chrome/98.0.4758.102 Safari/537.36",xpyriment,legacy,legacy,0,uniform,0,0,0,0,24,24,24,0,0,74,74,74,74,74,0,74,0,41,41,41,41,41,0,41,28-01-22,28-01-22,15:05:17,Mon Feb 28 2022 15:05:17 GMT+0100 (közép-európai téli idő),The main experiment item,yes,0,0,C:/Users/rrics/Documents/!!ResearchBMECOGSCI/gnet,0,0,0,prototype3.png,no,mono,no,18,no,black,no,no,768,1154,3.5.6,legacy,xpyriment,osweb,1.3.13,0,right,space,up,right,48260,23375,31196,48260,2,legacy,860,1600,24,900,24,0,0,1600,1646057178731,1024,2,48000,-16,experiment,p9sarr3.png,0,even,Win32,164,135321,132314,163,164,657044,658556,652044,136841,652044,164,896459,897966,893475,658569,893474,visual_patterns,0,0,0,yes,1366
undefined,undefined,undefined,undefined,white,no,Mozilla,Netscape,"5.0 (Windows NT 10.0; Win64; x64) AppleWebKit/537.36 (KHTML, like Gecko) Chrome/98.0.4758.102 Safari/537.36",xpyriment,legacy,legacy,0,uniform,0,0,0,0,24,24,24,0,0,74,74,74,74,74,0,74,0,42,42,42,42,42,0,42,28-01-22,28-01-22,15:05:17,Mon Feb 28 2022 15:05:17 GMT+0100 (közép-európai téli idő),The main experiment item,yes,0,0,C:/Users/rrics/Documents/!!ResearchBMECOGSCI/gnet,0,0,0,prototype3.png,no,mono,no,18,no,black,no,no,768,1154,3.5.6,legacy,xpyriment,osweb,1.3.13,0,right,space,up,right,48260,23375,31196,48260,2,legacy,860,1600,24,900,24,0,0,1600,1646057178731,1024,2,48000,-16,experiment,p10sarr4.png,0,even,Win32,164,135321,132314,163,164,657044,658556,652044,136841,652044,164,900999,902510,898017,658569,898017,visual_patterns,0,0,0,yes,1366
undefined,undefined,undefined,undefined,white,no,Mozilla,Netscape,"5.0 (Windows NT 10.0; Win64; x64) AppleWebKit/537.36 (KHTML, like Gecko) Chrome/98.0.4758.102 Safari/537.36",xpyriment,legacy,legacy,0,uniform,0,0,0,0,24,24,24,0,0,74,74,74,74,74,0,74,0,43,43,43,43,43,0,43,28-01-22,28-01-22,15:05:17,Mon Feb 28 2022 15:05:17 GMT+0100 (közép-európai téli idő),The main experiment item,yes,0,0,C:/Users/rrics/Documents/!!ResearchBMECOGSCI/gnet,0,0,0,prototype3.png,no,mono,no,18,no,black,no,no,768,1154,3.5.6,legacy,xpyriment,osweb,1.3.13,0,right,space,up,right,48260,23375,31196,48260,2,legacy,860,1600,24,900,24,0,0,1600,1646057178731,1024,2,48000,-16,experiment,p4sarrcol1.png,0,even,Win32,164,135321,132314,163,164,657044,658556,652044,136841,652044,164,905542,907053,902547,658569,902546,visual_patterns,0,0,0,yes,1366
undefined,undefined,undefined,undefined,white,no,Mozilla,Netscape,"5.0 (Windows NT 10.0; Win64; x64) AppleWebKit/537.36 (KHTML, like Gecko) Chrome/98.0.4758.102 Safari/537.36",xpyriment,legacy,legacy,0,uniform,0,0,0,0,24,24,24,0,0,74,74,74,74,74,0,74,0,44,44,44,44,44,0,44,28-01-22,28-01-22,15:05:17,Mon Feb 28 2022 15:05:17 GMT+0100 (közép-európai téli idő),The main experiment item,yes,0,0,C:/Users/rrics/Documents/!!ResearchBMECOGSCI/gnet,0,0,0,prototype3.png,no,mono,no,18,no,black,no,no,768,1154,3.5.6,legacy,xpyriment,osweb,1.3.13,0,right,space,up,right,48260,23375,31196,48260,2,legacy,860,1600,24,900,24,0,0,1600,1646057178731,1024,2,48000,-16,experiment,p5sarrshacol4.png,0,even,Win32,164,135321,132314,163,164,657044,658556,652044,136841,652044,164,910088,911596,907096,658569,907096,visual_patterns,0,0,0,yes,1366
undefined,undefined,undefined,undefined,white,no,Mozilla,Netscape,"5.0 (Windows NT 10.0; Win64; x64) AppleWebKit/537.36 (KHTML, like Gecko) Chrome/98.0.4758.102 Safari/537.36",xpyriment,legacy,legacy,0,uniform,0,0,0,0,24,24,24,0,0,74,74,74,74,74,0,74,0,45,45,45,45,45,0,45,28-01-22,28-01-22,15:05:17,Mon Feb 28 2022 15:05:17 GMT+0100 (közép-európai téli idő),The main experiment item,yes,0,0,C:/Users/rrics/Documents/!!ResearchBMECOGSCI/gnet,0,0,0,prototype3.png,no,mono,no,18,no,black,no,no,768,1154,3.5.6,legacy,xpyriment,osweb,1.3.13,0,right,space,up,right,48260,23375,31196,48260,2,legacy,860,1600,24,900,24,0,0,1600,1646057178731,1024,2,48000,-16,experiment,p3sarr3.png,0,even,Win32,164,135321,132314,163,164,657044,658556,652044,136841,652044,164,914676,916189,911679,658569,911679,visual_patterns,0,0,0,yes,1366
undefined,undefined,undefined,undefined,white,no,Mozilla,Netscape,"5.0 (Windows NT 10.0; Win64; x64) AppleWebKit/537.36 (KHTML, like Gecko) Chrome/98.0.4758.102 Safari/537.36",xpyriment,legacy,legacy,0,uniform,0,0,0,0,24,24,24,0,0,74,74,74,74,74,0,74,0,46,46,46,46,46,0,46,28-01-22,28-01-22,15:05:17,Mon Feb 28 2022 15:05:17 GMT+0100 (közép-európai téli idő),The main experiment item,yes,0,0,C:/Users/rrics/Documents/!!ResearchBMECOGSCI/gnet,0,0,0,prototype3.png,no,mono,no,18,no,black,no,no,768,1154,3.5.6,legacy,xpyriment,osweb,1.3.13,0,right,space,up,right,48260,23375,31196,48260,2,legacy,860,1600,24,900,24,0,0,1600,1646057178731,1024,2,48000,-16,experiment,p2sarr3.png,0,even,Win32,164,135321,132314,163,164,657044,658556,652044,136841,652044,164,919226,920732,916233,658569,916233,visual_patterns,0,0,0,yes,1366
undefined,undefined,undefined,undefined,white,no,Mozilla,Netscape,"5.0 (Windows NT 10.0; Win64; x64) AppleWebKit/537.36 (KHTML, like Gecko) Chrome/98.0.4758.102 Safari/537.36",xpyriment,legacy,legacy,0,uniform,0,0,0,0,24,24,24,0,0,74,74,74,74,74,0,74,0,47,47,47,47,47,0,47,28-01-22,28-01-22,15:05:17,Mon Feb 28 2022 15:05:17 GMT+0100 (közép-európai téli idő),The main experiment item,yes,0,0,C:/Users/rrics/Documents/!!ResearchBMECOGSCI/gnet,0,0,0,prototype3.png,no,mono,no,18,no,black,no,no,768,1154,3.5.6,legacy,xpyriment,osweb,1.3.13,0,right,space,up,right,48260,23375,31196,48260,2,legacy,860,1600,24,900,24,0,0,1600,1646057178731,1024,2,48000,-16,experiment,p4sarr2.png,0,even,Win32,164,135321,132314,163,164,657044,658556,652044,136841,652044,164,923768,925275,920771,658569,920770,visual_patterns,0,0,0,yes,1366
undefined,undefined,undefined,undefined,white,no,Mozilla,Netscape,"5.0 (Windows NT 10.0; Win64; x64) AppleWebKit/537.36 (KHTML, like Gecko) Chrome/98.0.4758.102 Safari/537.36",xpyriment,legacy,legacy,0,uniform,0,0,0,0,24,24,24,0,0,74,74,74,74,74,0,74,0,48,48,48,48,48,0,48,28-01-22,28-01-22,15:05:17,Mon Feb 28 2022 15:05:17 GMT+0100 (közép-európai téli idő),The main experiment item,yes,0,0,C:/Users/rrics/Documents/!!ResearchBMECOGSCI/gnet,0,0,0,prototype3.png,no,mono,no,18,no,black,no,no,768,1154,3.5.6,legacy,xpyriment,osweb,1.3.13,0,right,space,up,right,48260,23375,31196,48260,2,legacy,860,1600,24,900,24,0,0,1600,1646057178731,1024,2,48000,-16,experiment,p2sarrshacol3.png,0,even,Win32,164,135321,132314,163,164,657044,658556,652044,136841,652044,164,928313,929819,925322,658569,925322,visual_patterns,0,0,0,yes,1366
