acc,accuracy,average_response_time,avg_rt,background,bidi,browser_codename,browser_name,browser_version,canvas_backend,clock_backend,color_backend,compensation,coordinates,count_end,count_experiment,count_osweb,count_prestudy,count_prestudy_isi,count_prestudy_sequence,count_prestudy_stimpres,count_start,count_study,count_study_coroutines,count_study_isi,count_study_logger,count_study_response,count_study_sequence,count_study_start,count_study_stimpres,count_test,count_test_coroutines,count_test_isi,count_test_logger,count_test_response,count_test_sequence,count_test_start,count_test_stimpres,date_startdate,date_startdateUTC,date_starttime,datetime,description,disable_garbage_collection,experiment_debug,experiment_parameters,experiment_path,experiment_pilot,experiment_taskname,experiment_taskversion,fampict,font_bold,font_family,font_italic,font_size,font_underline,foreground,form_clicks,fullscreen,height,jatosStudyResultId,jatosVersion,keyboard_backend,mouse_backend,opensesame_codename,opensesame_version,repeat_cycle,response,response_start,response_study_start,response_test_start,response_time,response_time_start,response_time_study_start,response_time_test_start,round_decimals,sampler_backend,screen_availableHeight,screen_availableWidth,screen_colorDepth,screen_height,screen_pixelDepth,screen_screenX,screen_screenY,screen_width,sessionid,sound_buf_size,sound_channels,sound_freq,sound_sample_size,start,stim,subject_nr,subject_parity,system_os,time_prestudy,time_prestudy_isi,time_prestudy_stimpres,time_start,time_study,time_study_isi,time_study_logger,time_study_response,time_study_start,time_study_stimpres,time_test,time_test_isi,time_test_logger,time_test_response,time_test_start,time_test_stimpres,title,total_correct,total_response_time,total_responses,uniform_coordinates,width
undefined,undefined,undefined,undefined,white,no,Mozilla,Netscape,"5.0 (Windows NT 10.0; Win64; x64) AppleWebKit/537.36 (KHTML, like Gecko) Chrome/98.0.4758.102 Safari/537.36 OPR/84.0.4316.21",xpyriment,legacy,legacy,0,uniform,0,0,0,0,24,24,24,0,0,0,0,0,0,0,0,0,0,,,,,,0,,28-01-22,28-01-22,15:19:18,Mon Feb 28 2022 15:19:18 GMT+0100 (közép-európai téli idő),The main experiment item,yes,0,0,C:/Users/rrics/Documents/!!ResearchBMECOGSCI/gnet,0,0,0,prototype3.png,no,mono,no,18,no,black,no,no,768,1155,3.5.6,legacy,xpyriment,osweb,1.3.13,0,space,space,space,,62572,20675,62572,,2,legacy,680,1280,24,720,24,0,0,1280,1646058047515,1024,2,48000,-16,experiment,p6sarr1.png,1,odd,Win32,89,132560,129546,89,89,201672,203187,196670,134079,196670,89,,,,,,visual_patterns,0,0,0,yes,1366
undefined,undefined,undefined,undefined,white,no,Mozilla,Netscape,"5.0 (Windows NT 10.0; Win64; x64) AppleWebKit/537.36 (KHTML, like Gecko) Chrome/98.0.4758.102 Safari/537.36 OPR/84.0.4316.21",xpyriment,legacy,legacy,0,uniform,0,0,0,0,24,24,24,0,0,1,1,1,1,1,0,1,0,,,,,,0,,28-01-22,28-01-22,15:19:18,Mon Feb 28 2022 15:19:18 GMT+0100 (közép-európai téli idő),The main experiment item,yes,0,0,C:/Users/rrics/Documents/!!ResearchBMECOGSCI/gnet,0,0,0,prototype3.png,no,mono,no,18,no,black,no,no,768,1155,3.5.6,legacy,xpyriment,osweb,1.3.13,0,space,space,space,,62572,20675,62572,,2,legacy,680,1280,24,720,24,0,0,1280,1646058047515,1024,2,48000,-16,experiment,prototype3.png,1,odd,Win32,89,132560,129546,89,89,208206,209716,203202,134079,203202,89,,,,,,visual_patterns,0,0,0,yes,1366
undefined,undefined,undefined,undefined,white,no,Mozilla,Netscape,"5.0 (Windows NT 10.0; Win64; x64) AppleWebKit/537.36 (KHTML, like Gecko) Chrome/98.0.4758.102 Safari/537.36 OPR/84.0.4316.21",xpyriment,legacy,legacy,0,uniform,0,0,0,0,24,24,24,0,0,2,2,2,2,2,0,2,0,,,,,,0,,28-01-22,28-01-22,15:19:18,Mon Feb 28 2022 15:19:18 GMT+0100 (közép-európai téli idő),The main experiment item,yes,0,0,C:/Users/rrics/Documents/!!ResearchBMECOGSCI/gnet,0,0,0,prototype3.png,no,mono,no,18,no,black,no,no,768,1155,3.5.6,legacy,xpyriment,osweb,1.3.13,0,space,space,space,,62572,20675,62572,,2,legacy,680,1280,24,720,24,0,0,1280,1646058047515,1024,2,48000,-16,experiment,p3sarr1.png,1,odd,Win32,89,132560,129546,89,89,214728,216230,209726,134079,209726,89,,,,,,visual_patterns,0,0,0,yes,1366
undefined,undefined,undefined,undefined,white,no,Mozilla,Netscape,"5.0 (Windows NT 10.0; Win64; x64) AppleWebKit/537.36 (KHTML, like Gecko) Chrome/98.0.4758.102 Safari/537.36 OPR/84.0.4316.21",xpyriment,legacy,legacy,0,uniform,0,0,0,0,24,24,24,0,0,3,3,3,3,3,0,3,0,,,,,,0,,28-01-22,28-01-22,15:19:18,Mon Feb 28 2022 15:19:18 GMT+0100 (közép-európai téli idő),The main experiment item,yes,0,0,C:/Users/rrics/Documents/!!ResearchBMECOGSCI/gnet,0,0,0,prototype3.png,no,mono,no,18,no,black,no,no,768,1155,3.5.6,legacy,xpyriment,osweb,1.3.13,0,space,space,space,,62572,20675,62572,,2,legacy,680,1280,24,720,24,0,0,1280,1646058047515,1024,2,48000,-16,experiment,p9sarr2.png,1,odd,Win32,89,132560,129546,89,89,221243,222745,216247,134079,216247,89,,,,,,visual_patterns,0,0,0,yes,1366
undefined,undefined,undefined,undefined,white,no,Mozilla,Netscape,"5.0 (Windows NT 10.0; Win64; x64) AppleWebKit/537.36 (KHTML, like Gecko) Chrome/98.0.4758.102 Safari/537.36 OPR/84.0.4316.21",xpyriment,legacy,legacy,0,uniform,0,0,0,0,24,24,24,0,0,4,4,4,4,4,0,4,0,,,,,,0,,28-01-22,28-01-22,15:19:18,Mon Feb 28 2022 15:19:18 GMT+0100 (közép-európai téli idő),The main experiment item,yes,0,0,C:/Users/rrics/Documents/!!ResearchBMECOGSCI/gnet,0,0,0,prototype3.png,no,mono,no,18,no,black,no,no,768,1155,3.5.6,legacy,xpyriment,osweb,1.3.13,0,space,space,space,,62572,20675,62572,,2,legacy,680,1280,24,720,24,0,0,1280,1646058047515,1024,2,48000,-16,experiment,p4sarr2.png,1,odd,Win32,89,132560,129546,89,89,227755,229259,222753,134079,222753,89,,,,,,visual_patterns,0,0,0,yes,1366
undefined,undefined,undefined,undefined,white,no,Mozilla,Netscape,"5.0 (Windows NT 10.0; Win64; x64) AppleWebKit/537.36 (KHTML, like Gecko) Chrome/98.0.4758.102 Safari/537.36 OPR/84.0.4316.21",xpyriment,legacy,legacy,0,uniform,0,0,0,0,24,24,24,0,0,5,5,5,5,5,0,5,0,,,,,,0,,28-01-22,28-01-22,15:19:18,Mon Feb 28 2022 15:19:18 GMT+0100 (közép-európai téli idő),The main experiment item,yes,0,0,C:/Users/rrics/Documents/!!ResearchBMECOGSCI/gnet,0,0,0,prototype3.png,no,mono,no,18,no,black,no,no,768,1155,3.5.6,legacy,xpyriment,osweb,1.3.13,0,space,space,space,,62572,20675,62572,,2,legacy,680,1280,24,720,24,0,0,1280,1646058047515,1024,2,48000,-16,experiment,p4sarrshacol2.png,1,odd,Win32,89,132560,129546,89,89,234265,235774,229266,134079,229266,89,,,,,,visual_patterns,0,0,0,yes,1366
undefined,undefined,undefined,undefined,white,no,Mozilla,Netscape,"5.0 (Windows NT 10.0; Win64; x64) AppleWebKit/537.36 (KHTML, like Gecko) Chrome/98.0.4758.102 Safari/537.36 OPR/84.0.4316.21",xpyriment,legacy,legacy,0,uniform,0,0,0,0,24,24,24,0,0,6,6,6,6,6,0,6,0,,,,,,0,,28-01-22,28-01-22,15:19:18,Mon Feb 28 2022 15:19:18 GMT+0100 (közép-európai téli idő),The main experiment item,yes,0,0,C:/Users/rrics/Documents/!!ResearchBMECOGSCI/gnet,0,0,0,prototype3.png,no,mono,no,18,no,black,no,no,768,1155,3.5.6,legacy,xpyriment,osweb,1.3.13,0,space,space,space,,62572,20675,62572,,2,legacy,680,1280,24,720,24,0,0,1280,1646058047515,1024,2,48000,-16,experiment,p5sarrsha2.png,1,odd,Win32,89,132560,129546,89,89,240788,242305,235789,134079,235789,89,,,,,,visual_patterns,0,0,0,yes,1366
undefined,undefined,undefined,undefined,white,no,Mozilla,Netscape,"5.0 (Windows NT 10.0; Win64; x64) AppleWebKit/537.36 (KHTML, like Gecko) Chrome/98.0.4758.102 Safari/537.36 OPR/84.0.4316.21",xpyriment,legacy,legacy,0,uniform,0,0,0,0,24,24,24,0,0,7,7,7,7,7,0,7,0,,,,,,0,,28-01-22,28-01-22,15:19:18,Mon Feb 28 2022 15:19:18 GMT+0100 (közép-európai téli idő),The main experiment item,yes,0,0,C:/Users/rrics/Documents/!!ResearchBMECOGSCI/gnet,0,0,0,prototype3.png,no,mono,no,18,no,black,no,no,768,1155,3.5.6,legacy,xpyriment,osweb,1.3.13,0,space,space,space,,62572,20675,62572,,2,legacy,680,1280,24,720,24,0,0,1280,1646058047515,1024,2,48000,-16,experiment,p2sarr1.png,1,odd,Win32,89,132560,129546,89,89,247321,248836,242320,134079,242320,89,,,,,,visual_patterns,0,0,0,yes,1366
undefined,undefined,undefined,undefined,white,no,Mozilla,Netscape,"5.0 (Windows NT 10.0; Win64; x64) AppleWebKit/537.36 (KHTML, like Gecko) Chrome/98.0.4758.102 Safari/537.36 OPR/84.0.4316.21",xpyriment,legacy,legacy,0,uniform,0,0,0,0,24,24,24,0,0,8,8,8,8,8,0,8,0,,,,,,0,,28-01-22,28-01-22,15:19:18,Mon Feb 28 2022 15:19:18 GMT+0100 (közép-európai téli idő),The main experiment item,yes,0,0,C:/Users/rrics/Documents/!!ResearchBMECOGSCI/gnet,0,0,0,prototype3.png,no,mono,no,18,no,black,no,no,768,1155,3.5.6,legacy,xpyriment,osweb,1.3.13,0,space,space,space,,62572,20675,62572,,2,legacy,680,1280,24,720,24,0,0,1280,1646058047515,1024,2,48000,-16,experiment,prototype4.png,1,odd,Win32,89,132560,129546,89,89,253849,255351,248848,134079,248848,89,,,,,,visual_patterns,0,0,0,yes,1366
undefined,undefined,undefined,undefined,white,no,Mozilla,Netscape,"5.0 (Windows NT 10.0; Win64; x64) AppleWebKit/537.36 (KHTML, like Gecko) Chrome/98.0.4758.102 Safari/537.36 OPR/84.0.4316.21",xpyriment,legacy,legacy,0,uniform,0,0,0,0,24,24,24,0,0,9,9,9,9,9,0,9,0,,,,,,0,,28-01-22,28-01-22,15:19:18,Mon Feb 28 2022 15:19:18 GMT+0100 (közép-európai téli idő),The main experiment item,yes,0,0,C:/Users/rrics/Documents/!!ResearchBMECOGSCI/gnet,0,0,0,prototype3.png,no,mono,no,18,no,black,no,no,768,1155,3.5.6,legacy,xpyriment,osweb,1.3.13,0,space,space,space,,62572,20675,62572,,2,legacy,680,1280,24,720,24,0,0,1280,1646058047515,1024,2,48000,-16,experiment,p5sarrsha1.png,1,odd,Win32,89,132560,129546,89,89,260363,261865,255362,134079,255362,89,,,,,,visual_patterns,0,0,0,yes,1366
undefined,undefined,undefined,undefined,white,no,Mozilla,Netscape,"5.0 (Windows NT 10.0; Win64; x64) AppleWebKit/537.36 (KHTML, like Gecko) Chrome/98.0.4758.102 Safari/537.36 OPR/84.0.4316.21",xpyriment,legacy,legacy,0,uniform,0,0,0,0,24,24,24,0,0,10,10,10,10,10,0,10,0,,,,,,0,,28-01-22,28-01-22,15:19:18,Mon Feb 28 2022 15:19:18 GMT+0100 (közép-európai téli idő),The main experiment item,yes,0,0,C:/Users/rrics/Documents/!!ResearchBMECOGSCI/gnet,0,0,0,prototype3.png,no,mono,no,18,no,black,no,no,768,1155,3.5.6,legacy,xpyriment,osweb,1.3.13,0,space,space,space,,62572,20675,62572,,2,legacy,680,1280,24,720,24,0,0,1280,1646058047515,1024,2,48000,-16,experiment,p5sarrcol1.png,1,odd,Win32,89,132560,129546,89,89,266879,268396,261876,134079,261876,89,,,,,,visual_patterns,0,0,0,yes,1366
undefined,undefined,undefined,undefined,white,no,Mozilla,Netscape,"5.0 (Windows NT 10.0; Win64; x64) AppleWebKit/537.36 (KHTML, like Gecko) Chrome/98.0.4758.102 Safari/537.36 OPR/84.0.4316.21",xpyriment,legacy,legacy,0,uniform,0,0,0,0,24,24,24,0,0,11,11,11,11,11,0,11,0,,,,,,0,,28-01-22,28-01-22,15:19:18,Mon Feb 28 2022 15:19:18 GMT+0100 (közép-európai téli idő),The main experiment item,yes,0,0,C:/Users/rrics/Documents/!!ResearchBMECOGSCI/gnet,0,0,0,prototype3.png,no,mono,no,18,no,black,no,no,768,1155,3.5.6,legacy,xpyriment,osweb,1.3.13,0,space,space,space,,62572,20675,62572,,2,legacy,680,1280,24,720,24,0,0,1280,1646058047515,1024,2,48000,-16,experiment,p8sarr2.png,1,odd,Win32,89,132560,129546,89,89,273407,274910,268409,134079,268409,89,,,,,,visual_patterns,0,0,0,yes,1366
undefined,undefined,undefined,undefined,white,no,Mozilla,Netscape,"5.0 (Windows NT 10.0; Win64; x64) AppleWebKit/537.36 (KHTML, like Gecko) Chrome/98.0.4758.102 Safari/537.36 OPR/84.0.4316.21",xpyriment,legacy,legacy,0,uniform,0,0,0,0,24,24,24,0,0,12,12,12,12,12,0,12,0,,,,,,0,,28-01-22,28-01-22,15:19:18,Mon Feb 28 2022 15:19:18 GMT+0100 (közép-európai téli idő),The main experiment item,yes,0,0,C:/Users/rrics/Documents/!!ResearchBMECOGSCI/gnet,0,0,0,prototype3.png,no,mono,no,18,no,black,no,no,768,1155,3.5.6,legacy,xpyriment,osweb,1.3.13,0,space,space,space,,62572,20675,62572,,2,legacy,680,1280,24,720,24,0,0,1280,1646058047515,1024,2,48000,-16,experiment,p5sarrshacol2.png,1,odd,Win32,89,132560,129546,89,89,279920,281425,274919,134079,274919,89,,,,,,visual_patterns,0,0,0,yes,1366
undefined,undefined,undefined,undefined,white,no,Mozilla,Netscape,"5.0 (Windows NT 10.0; Win64; x64) AppleWebKit/537.36 (KHTML, like Gecko) Chrome/98.0.4758.102 Safari/537.36 OPR/84.0.4316.21",xpyriment,legacy,legacy,0,uniform,0,0,0,0,24,24,24,0,0,13,13,13,13,13,0,13,0,,,,,,0,,28-01-22,28-01-22,15:19:18,Mon Feb 28 2022 15:19:18 GMT+0100 (közép-európai téli idő),The main experiment item,yes,0,0,C:/Users/rrics/Documents/!!ResearchBMECOGSCI/gnet,0,0,0,prototype3.png,no,mono,no,18,no,black,no,no,768,1155,3.5.6,legacy,xpyriment,osweb,1.3.13,0,space,space,space,,62572,20675,62572,,2,legacy,680,1280,24,720,24,0,0,1280,1646058047515,1024,2,48000,-16,experiment,p8sarr1.png,1,odd,Win32,89,132560,129546,89,89,286436,287940,281434,134079,281434,89,,,,,,visual_patterns,0,0,0,yes,1366
undefined,undefined,undefined,undefined,white,no,Mozilla,Netscape,"5.0 (Windows NT 10.0; Win64; x64) AppleWebKit/537.36 (KHTML, like Gecko) Chrome/98.0.4758.102 Safari/537.36 OPR/84.0.4316.21",xpyriment,legacy,legacy,0,uniform,0,0,0,0,24,24,24,0,0,14,14,14,14,14,0,14,0,,,,,,0,,28-01-22,28-01-22,15:19:18,Mon Feb 28 2022 15:19:18 GMT+0100 (közép-európai téli idő),The main experiment item,yes,0,0,C:/Users/rrics/Documents/!!ResearchBMECOGSCI/gnet,0,0,0,prototype3.png,no,mono,no,18,no,black,no,no,768,1155,3.5.6,legacy,xpyriment,osweb,1.3.13,0,space,space,space,,62572,20675,62572,,2,legacy,680,1280,24,720,24,0,0,1280,1646058047515,1024,2,48000,-16,experiment,p3sarrcol1.png,1,odd,Win32,89,132560,129546,89,89,292955,294471,287956,134079,287956,89,,,,,,visual_patterns,0,0,0,yes,1366
undefined,undefined,undefined,undefined,white,no,Mozilla,Netscape,"5.0 (Windows NT 10.0; Win64; x64) AppleWebKit/537.36 (KHTML, like Gecko) Chrome/98.0.4758.102 Safari/537.36 OPR/84.0.4316.21",xpyriment,legacy,legacy,0,uniform,0,0,0,0,24,24,24,0,0,15,15,15,15,15,0,15,0,,,,,,0,,28-01-22,28-01-22,15:19:18,Mon Feb 28 2022 15:19:18 GMT+0100 (közép-európai téli idő),The main experiment item,yes,0,0,C:/Users/rrics/Documents/!!ResearchBMECOGSCI/gnet,0,0,0,prototype3.png,no,mono,no,18,no,black,no,no,768,1155,3.5.6,legacy,xpyriment,osweb,1.3.13,0,space,space,space,,62572,20675,62572,,2,legacy,680,1280,24,720,24,0,0,1280,1646058047515,1024,2,48000,-16,experiment,prototype1.png,1,odd,Win32,89,132560,129546,89,89,299490,301002,294486,134079,294486,89,,,,,,visual_patterns,0,0,0,yes,1366
undefined,undefined,undefined,undefined,white,no,Mozilla,Netscape,"5.0 (Windows NT 10.0; Win64; x64) AppleWebKit/537.36 (KHTML, like Gecko) Chrome/98.0.4758.102 Safari/537.36 OPR/84.0.4316.21",xpyriment,legacy,legacy,0,uniform,0,0,0,0,24,24,24,0,0,16,16,16,16,16,0,16,0,,,,,,0,,28-01-22,28-01-22,15:19:18,Mon Feb 28 2022 15:19:18 GMT+0100 (közép-európai téli idő),The main experiment item,yes,0,0,C:/Users/rrics/Documents/!!ResearchBMECOGSCI/gnet,0,0,0,prototype3.png,no,mono,no,18,no,black,no,no,768,1155,3.5.6,legacy,xpyriment,osweb,1.3.13,0,space,space,space,,62572,20675,62572,,2,legacy,680,1280,24,720,24,0,0,1280,1646058047515,1024,2,48000,-16,experiment,p2sarr2.png,1,odd,Win32,89,132560,129546,89,89,306013,307516,301018,134079,301018,89,,,,,,visual_patterns,0,0,0,yes,1366
undefined,undefined,undefined,undefined,white,no,Mozilla,Netscape,"5.0 (Windows NT 10.0; Win64; x64) AppleWebKit/537.36 (KHTML, like Gecko) Chrome/98.0.4758.102 Safari/537.36 OPR/84.0.4316.21",xpyriment,legacy,legacy,0,uniform,0,0,0,0,24,24,24,0,0,17,17,17,17,17,0,17,0,,,,,,0,,28-01-22,28-01-22,15:19:18,Mon Feb 28 2022 15:19:18 GMT+0100 (közép-európai téli idő),The main experiment item,yes,0,0,C:/Users/rrics/Documents/!!ResearchBMECOGSCI/gnet,0,0,0,prototype3.png,no,mono,no,18,no,black,no,no,768,1155,3.5.6,legacy,xpyriment,osweb,1.3.13,0,space,space,space,,62572,20675,62572,,2,legacy,680,1280,24,720,24,0,0,1280,1646058047515,1024,2,48000,-16,experiment,p3sarrsha2.png,1,odd,Win32,89,132560,129546,89,89,312529,314031,307531,134079,307531,89,,,,,,visual_patterns,0,0,0,yes,1366
undefined,undefined,undefined,undefined,white,no,Mozilla,Netscape,"5.0 (Windows NT 10.0; Win64; x64) AppleWebKit/537.36 (KHTML, like Gecko) Chrome/98.0.4758.102 Safari/537.36 OPR/84.0.4316.21",xpyriment,legacy,legacy,0,uniform,0,0,0,0,24,24,24,0,0,18,18,18,18,18,0,18,0,,,,,,0,,28-01-22,28-01-22,15:19:18,Mon Feb 28 2022 15:19:18 GMT+0100 (közép-európai téli idő),The main experiment item,yes,0,0,C:/Users/rrics/Documents/!!ResearchBMECOGSCI/gnet,0,0,0,prototype3.png,no,mono,no,18,no,black,no,no,768,1155,3.5.6,legacy,xpyriment,osweb,1.3.13,0,space,space,space,,62572,20675,62572,,2,legacy,680,1280,24,720,24,0,0,1280,1646058047515,1024,2,48000,-16,experiment,prototype4.png,1,odd,Win32,89,132560,129546,89,89,319045,320562,314043,134079,314043,89,,,,,,visual_patterns,0,0,0,yes,1366
undefined,undefined,undefined,undefined,white,no,Mozilla,Netscape,"5.0 (Windows NT 10.0; Win64; x64) AppleWebKit/537.36 (KHTML, like Gecko) Chrome/98.0.4758.102 Safari/537.36 OPR/84.0.4316.21",xpyriment,legacy,legacy,0,uniform,0,0,0,0,24,24,24,0,0,19,19,19,19,19,0,19,0,,,,,,0,,28-01-22,28-01-22,15:19:18,Mon Feb 28 2022 15:19:18 GMT+0100 (közép-európai téli idő),The main experiment item,yes,0,0,C:/Users/rrics/Documents/!!ResearchBMECOGSCI/gnet,0,0,0,prototype3.png,no,mono,no,18,no,black,no,no,768,1155,3.5.6,legacy,xpyriment,osweb,1.3.13,0,space,space,space,,62572,20675,62572,,2,legacy,680,1280,24,720,24,0,0,1280,1646058047515,1024,2,48000,-16,experiment,p3sarrsha1.png,1,odd,Win32,89,132560,129546,89,89,325571,327076,320571,134079,320571,89,,,,,,visual_patterns,0,0,0,yes,1366
undefined,undefined,undefined,undefined,white,no,Mozilla,Netscape,"5.0 (Windows NT 10.0; Win64; x64) AppleWebKit/537.36 (KHTML, like Gecko) Chrome/98.0.4758.102 Safari/537.36 OPR/84.0.4316.21",xpyriment,legacy,legacy,0,uniform,0,0,0,0,24,24,24,0,0,20,20,20,20,20,0,20,0,,,,,,0,,28-01-22,28-01-22,15:19:18,Mon Feb 28 2022 15:19:18 GMT+0100 (közép-európai téli idő),The main experiment item,yes,0,0,C:/Users/rrics/Documents/!!ResearchBMECOGSCI/gnet,0,0,0,prototype3.png,no,mono,no,18,no,black,no,no,768,1155,3.5.6,legacy,xpyriment,osweb,1.3.13,0,space,space,space,,62572,20675,62572,,2,legacy,680,1280,24,720,24,0,0,1280,1646058047515,1024,2,48000,-16,experiment,prototype2.png,1,odd,Win32,89,132560,129546,89,89,332079,333591,327079,134079,327079,89,,,,,,visual_patterns,0,0,0,yes,1366
undefined,undefined,undefined,undefined,white,no,Mozilla,Netscape,"5.0 (Windows NT 10.0; Win64; x64) AppleWebKit/537.36 (KHTML, like Gecko) Chrome/98.0.4758.102 Safari/537.36 OPR/84.0.4316.21",xpyriment,legacy,legacy,0,uniform,0,0,0,0,24,24,24,0,0,21,21,21,21,21,0,21,0,,,,,,0,,28-01-22,28-01-22,15:19:18,Mon Feb 28 2022 15:19:18 GMT+0100 (közép-európai téli idő),The main experiment item,yes,0,0,C:/Users/rrics/Documents/!!ResearchBMECOGSCI/gnet,0,0,0,prototype3.png,no,mono,no,18,no,black,no,no,768,1155,3.5.6,legacy,xpyriment,osweb,1.3.13,0,space,space,space,,62572,20675,62572,,2,legacy,680,1280,24,720,24,0,0,1280,1646058047515,1024,2,48000,-16,experiment,p4sarrcol2.png,1,odd,Win32,89,132560,129546,89,89,338601,340105,333599,134079,333599,89,,,,,,visual_patterns,0,0,0,yes,1366
undefined,undefined,undefined,undefined,white,no,Mozilla,Netscape,"5.0 (Windows NT 10.0; Win64; x64) AppleWebKit/537.36 (KHTML, like Gecko) Chrome/98.0.4758.102 Safari/537.36 OPR/84.0.4316.21",xpyriment,legacy,legacy,0,uniform,0,0,0,0,24,24,24,0,0,22,22,22,22,22,0,22,0,,,,,,0,,28-01-22,28-01-22,15:19:18,Mon Feb 28 2022 15:19:18 GMT+0100 (közép-európai téli idő),The main experiment item,yes,0,0,C:/Users/rrics/Documents/!!ResearchBMECOGSCI/gnet,0,0,0,prototype3.png,no,mono,no,18,no,black,no,no,768,1155,3.5.6,legacy,xpyriment,osweb,1.3.13,0,space,space,space,,62572,20675,62572,,2,legacy,680,1280,24,720,24,0,0,1280,1646058047515,1024,2,48000,-16,experiment,p5sarrshacol1.png,1,odd,Win32,89,132560,129546,89,89,345110,346620,340110,134079,340110,89,,,,,,visual_patterns,0,0,0,yes,1366
undefined,undefined,undefined,undefined,white,no,Mozilla,Netscape,"5.0 (Windows NT 10.0; Win64; x64) AppleWebKit/537.36 (KHTML, like Gecko) Chrome/98.0.4758.102 Safari/537.36 OPR/84.0.4316.21",xpyriment,legacy,legacy,0,uniform,0,0,0,0,24,24,24,0,0,23,23,23,23,23,0,23,0,,,,,,0,,28-01-22,28-01-22,15:19:18,Mon Feb 28 2022 15:19:18 GMT+0100 (közép-európai téli idő),The main experiment item,yes,0,0,C:/Users/rrics/Documents/!!ResearchBMECOGSCI/gnet,0,0,0,prototype3.png,no,mono,no,18,no,black,no,no,768,1155,3.5.6,legacy,xpyriment,osweb,1.3.13,0,space,space,space,,62572,20675,62572,,2,legacy,680,1280,24,720,24,0,0,1280,1646058047515,1024,2,48000,-16,experiment,prototype2.png,1,odd,Win32,89,132560,129546,89,89,351629,353134,346629,134079,346629,89,,,,,,visual_patterns,0,0,0,yes,1366
undefined,undefined,undefined,undefined,white,no,Mozilla,Netscape,"5.0 (Windows NT 10.0; Win64; x64) AppleWebKit/537.36 (KHTML, like Gecko) Chrome/98.0.4758.102 Safari/537.36 OPR/84.0.4316.21",xpyriment,legacy,legacy,0,uniform,0,0,0,0,24,24,24,0,0,24,24,24,24,24,0,24,0,,,,,,0,,28-01-22,28-01-22,15:19:18,Mon Feb 28 2022 15:19:18 GMT+0100 (közép-európai téli idő),The main experiment item,yes,0,0,C:/Users/rrics/Documents/!!ResearchBMECOGSCI/gnet,0,0,0,prototype3.png,no,mono,no,18,no,black,no,no,768,1155,3.5.6,legacy,xpyriment,osweb,1.3.13,0,space,space,space,,62572,20675,62572,,2,legacy,680,1280,24,720,24,0,0,1280,1646058047515,1024,2,48000,-16,experiment,p4sarrsha2.png,1,odd,Win32,89,132560,129546,89,89,358147,359649,353151,134079,353151,89,,,,,,visual_patterns,0,0,0,yes,1366
undefined,undefined,undefined,undefined,white,no,Mozilla,Netscape,"5.0 (Windows NT 10.0; Win64; x64) AppleWebKit/537.36 (KHTML, like Gecko) Chrome/98.0.4758.102 Safari/537.36 OPR/84.0.4316.21",xpyriment,legacy,legacy,0,uniform,0,0,0,0,24,24,24,0,0,25,25,25,25,25,0,25,0,,,,,,0,,28-01-22,28-01-22,15:19:18,Mon Feb 28 2022 15:19:18 GMT+0100 (közép-európai téli idő),The main experiment item,yes,0,0,C:/Users/rrics/Documents/!!ResearchBMECOGSCI/gnet,0,0,0,prototype3.png,no,mono,no,18,no,black,no,no,768,1155,3.5.6,legacy,xpyriment,osweb,1.3.13,0,space,space,space,,62572,20675,62572,,2,legacy,680,1280,24,720,24,0,0,1280,1646058047515,1024,2,48000,-16,experiment,p9sarr1.png,1,odd,Win32,89,132560,129546,89,89,364661,366164,359659,134079,359659,89,,,,,,visual_patterns,0,0,0,yes,1366
undefined,undefined,undefined,undefined,white,no,Mozilla,Netscape,"5.0 (Windows NT 10.0; Win64; x64) AppleWebKit/537.36 (KHTML, like Gecko) Chrome/98.0.4758.102 Safari/537.36 OPR/84.0.4316.21",xpyriment,legacy,legacy,0,uniform,0,0,0,0,24,24,24,0,0,26,26,26,26,26,0,26,0,,,,,,0,,28-01-22,28-01-22,15:19:18,Mon Feb 28 2022 15:19:18 GMT+0100 (közép-európai téli idő),The main experiment item,yes,0,0,C:/Users/rrics/Documents/!!ResearchBMECOGSCI/gnet,0,0,0,prototype3.png,no,mono,no,18,no,black,no,no,768,1155,3.5.6,legacy,xpyriment,osweb,1.3.13,0,space,space,space,,62572,20675,62572,,2,legacy,680,1280,24,720,24,0,0,1280,1646058047515,1024,2,48000,-16,experiment,prototype1.png,1,odd,Win32,89,132560,129546,89,89,371174,372678,366175,134079,366175,89,,,,,,visual_patterns,0,0,0,yes,1366
undefined,undefined,undefined,undefined,white,no,Mozilla,Netscape,"5.0 (Windows NT 10.0; Win64; x64) AppleWebKit/537.36 (KHTML, like Gecko) Chrome/98.0.4758.102 Safari/537.36 OPR/84.0.4316.21",xpyriment,legacy,legacy,0,uniform,0,0,0,0,24,24,24,0,0,27,27,27,27,27,0,27,0,,,,,,0,,28-01-22,28-01-22,15:19:18,Mon Feb 28 2022 15:19:18 GMT+0100 (közép-európai téli idő),The main experiment item,yes,0,0,C:/Users/rrics/Documents/!!ResearchBMECOGSCI/gnet,0,0,0,prototype3.png,no,mono,no,18,no,black,no,no,768,1155,3.5.6,legacy,xpyriment,osweb,1.3.13,0,space,space,space,,62572,20675,62572,,2,legacy,680,1280,24,720,24,0,0,1280,1646058047515,1024,2,48000,-16,experiment,p4sarrcol1.png,1,odd,Win32,89,132560,129546,89,89,377697,379209,372696,134079,372696,89,,,,,,visual_patterns,0,0,0,yes,1366
undefined,undefined,undefined,undefined,white,no,Mozilla,Netscape,"5.0 (Windows NT 10.0; Win64; x64) AppleWebKit/537.36 (KHTML, like Gecko) Chrome/98.0.4758.102 Safari/537.36 OPR/84.0.4316.21",xpyriment,legacy,legacy,0,uniform,0,0,0,0,24,24,24,0,0,28,28,28,28,28,0,28,0,,,,,,0,,28-01-22,28-01-22,15:19:18,Mon Feb 28 2022 15:19:18 GMT+0100 (közép-európai téli idő),The main experiment item,yes,0,0,C:/Users/rrics/Documents/!!ResearchBMECOGSCI/gnet,0,0,0,prototype3.png,no,mono,no,18,no,black,no,no,768,1155,3.5.6,legacy,xpyriment,osweb,1.3.13,0,space,space,space,,62572,20675,62572,,2,legacy,680,1280,24,720,24,0,0,1280,1646058047515,1024,2,48000,-16,experiment,prototype4.png,1,odd,Win32,89,132560,129546,89,89,384221,385723,379220,134079,379220,89,,,,,,visual_patterns,0,0,0,yes,1366
undefined,undefined,undefined,undefined,white,no,Mozilla,Netscape,"5.0 (Windows NT 10.0; Win64; x64) AppleWebKit/537.36 (KHTML, like Gecko) Chrome/98.0.4758.102 Safari/537.36 OPR/84.0.4316.21",xpyriment,legacy,legacy,0,uniform,0,0,0,0,24,24,24,0,0,29,29,29,29,29,0,29,0,,,,,,0,,28-01-22,28-01-22,15:19:18,Mon Feb 28 2022 15:19:18 GMT+0100 (közép-európai téli idő),The main experiment item,yes,0,0,C:/Users/rrics/Documents/!!ResearchBMECOGSCI/gnet,0,0,0,prototype3.png,no,mono,no,18,no,black,no,no,768,1155,3.5.6,legacy,xpyriment,osweb,1.3.13,0,space,space,space,,62572,20675,62572,,2,legacy,680,1280,24,720,24,0,0,1280,1646058047515,1024,2,48000,-16,experiment,prototype5.png,1,odd,Win32,89,132560,129546,89,89,390732,392237,385730,134079,385730,89,,,,,,visual_patterns,0,0,0,yes,1366
undefined,undefined,undefined,undefined,white,no,Mozilla,Netscape,"5.0 (Windows NT 10.0; Win64; x64) AppleWebKit/537.36 (KHTML, like Gecko) Chrome/98.0.4758.102 Safari/537.36 OPR/84.0.4316.21",xpyriment,legacy,legacy,0,uniform,0,0,0,0,24,24,24,0,0,30,30,30,30,30,0,30,0,,,,,,0,,28-01-22,28-01-22,15:19:18,Mon Feb 28 2022 15:19:18 GMT+0100 (közép-európai téli idő),The main experiment item,yes,0,0,C:/Users/rrics/Documents/!!ResearchBMECOGSCI/gnet,0,0,0,prototype3.png,no,mono,no,18,no,black,no,no,768,1155,3.5.6,legacy,xpyriment,osweb,1.3.13,0,space,space,space,,62572,20675,62572,,2,legacy,680,1280,24,720,24,0,0,1280,1646058047515,1024,2,48000,-16,experiment,p5sarrcol2.png,1,odd,Win32,89,132560,129546,89,89,397246,398753,392246,134079,392246,89,,,,,,visual_patterns,0,0,0,yes,1366
undefined,undefined,undefined,undefined,white,no,Mozilla,Netscape,"5.0 (Windows NT 10.0; Win64; x64) AppleWebKit/537.36 (KHTML, like Gecko) Chrome/98.0.4758.102 Safari/537.36 OPR/84.0.4316.21",xpyriment,legacy,legacy,0,uniform,0,0,0,0,24,24,24,0,0,31,31,31,31,31,0,31,0,,,,,,0,,28-01-22,28-01-22,15:19:18,Mon Feb 28 2022 15:19:18 GMT+0100 (közép-európai téli idő),The main experiment item,yes,0,0,C:/Users/rrics/Documents/!!ResearchBMECOGSCI/gnet,0,0,0,prototype3.png,no,mono,no,18,no,black,no,no,768,1155,3.5.6,legacy,xpyriment,osweb,1.3.13,0,space,space,space,,62572,20675,62572,,2,legacy,680,1280,24,720,24,0,0,1280,1646058047515,1024,2,48000,-16,experiment,p2sarrsha2.png,1,odd,Win32,89,132560,129546,89,89,403762,405267,398761,134079,398761,89,,,,,,visual_patterns,0,0,0,yes,1366
undefined,undefined,undefined,undefined,white,no,Mozilla,Netscape,"5.0 (Windows NT 10.0; Win64; x64) AppleWebKit/537.36 (KHTML, like Gecko) Chrome/98.0.4758.102 Safari/537.36 OPR/84.0.4316.21",xpyriment,legacy,legacy,0,uniform,0,0,0,0,24,24,24,0,0,32,32,32,32,32,0,32,0,,,,,,0,,28-01-22,28-01-22,15:19:18,Mon Feb 28 2022 15:19:18 GMT+0100 (közép-európai téli idő),The main experiment item,yes,0,0,C:/Users/rrics/Documents/!!ResearchBMECOGSCI/gnet,0,0,0,prototype3.png,no,mono,no,18,no,black,no,no,768,1155,3.5.6,legacy,xpyriment,osweb,1.3.13,0,space,space,space,,62572,20675,62572,,2,legacy,680,1280,24,720,24,0,0,1280,1646058047515,1024,2,48000,-16,experiment,p5sarr1.png,1,odd,Win32,89,132560,129546,89,89,410288,411798,405285,134079,405285,89,,,,,,visual_patterns,0,0,0,yes,1366
undefined,undefined,undefined,undefined,white,no,Mozilla,Netscape,"5.0 (Windows NT 10.0; Win64; x64) AppleWebKit/537.36 (KHTML, like Gecko) Chrome/98.0.4758.102 Safari/537.36 OPR/84.0.4316.21",xpyriment,legacy,legacy,0,uniform,0,0,0,0,24,24,24,0,0,33,33,33,33,33,0,33,0,,,,,,0,,28-01-22,28-01-22,15:19:18,Mon Feb 28 2022 15:19:18 GMT+0100 (közép-európai téli idő),The main experiment item,yes,0,0,C:/Users/rrics/Documents/!!ResearchBMECOGSCI/gnet,0,0,0,prototype3.png,no,mono,no,18,no,black,no,no,768,1155,3.5.6,legacy,xpyriment,osweb,1.3.13,0,space,space,space,,62572,20675,62572,,2,legacy,680,1280,24,720,24,0,0,1280,1646058047515,1024,2,48000,-16,experiment,p3sarrshacol1.png,1,odd,Win32,89,132560,129546,89,89,416812,418329,411814,134079,411814,89,,,,,,visual_patterns,0,0,0,yes,1366
undefined,undefined,undefined,undefined,white,no,Mozilla,Netscape,"5.0 (Windows NT 10.0; Win64; x64) AppleWebKit/537.36 (KHTML, like Gecko) Chrome/98.0.4758.102 Safari/537.36 OPR/84.0.4316.21",xpyriment,legacy,legacy,0,uniform,0,0,0,0,24,24,24,0,0,34,34,34,34,34,0,34,0,,,,,,0,,28-01-22,28-01-22,15:19:18,Mon Feb 28 2022 15:19:18 GMT+0100 (közép-európai téli idő),The main experiment item,yes,0,0,C:/Users/rrics/Documents/!!ResearchBMECOGSCI/gnet,0,0,0,prototype3.png,no,mono,no,18,no,black,no,no,768,1155,3.5.6,legacy,xpyriment,osweb,1.3.13,0,space,space,space,,62572,20675,62572,,2,legacy,680,1280,24,720,24,0,0,1280,1646058047515,1024,2,48000,-16,experiment,prototype1.png,1,odd,Win32,89,132560,129546,89,89,423341,424843,418342,134079,418342,89,,,,,,visual_patterns,0,0,0,yes,1366
undefined,undefined,undefined,undefined,white,no,Mozilla,Netscape,"5.0 (Windows NT 10.0; Win64; x64) AppleWebKit/537.36 (KHTML, like Gecko) Chrome/98.0.4758.102 Safari/537.36 OPR/84.0.4316.21",xpyriment,legacy,legacy,0,uniform,0,0,0,0,24,24,24,0,0,35,35,35,35,35,0,35,0,,,,,,0,,28-01-22,28-01-22,15:19:18,Mon Feb 28 2022 15:19:18 GMT+0100 (közép-európai téli idő),The main experiment item,yes,0,0,C:/Users/rrics/Documents/!!ResearchBMECOGSCI/gnet,0,0,0,prototype3.png,no,mono,no,18,no,black,no,no,768,1155,3.5.6,legacy,xpyriment,osweb,1.3.13,0,space,space,space,,62572,20675,62572,,2,legacy,680,1280,24,720,24,0,0,1280,1646058047515,1024,2,48000,-16,experiment,p4sarrshacol1.png,1,odd,Win32,89,132560,129546,89,89,429854,431358,424853,134079,424853,89,,,,,,visual_patterns,0,0,0,yes,1366
undefined,undefined,undefined,undefined,white,no,Mozilla,Netscape,"5.0 (Windows NT 10.0; Win64; x64) AppleWebKit/537.36 (KHTML, like Gecko) Chrome/98.0.4758.102 Safari/537.36 OPR/84.0.4316.21",xpyriment,legacy,legacy,0,uniform,0,0,0,0,24,24,24,0,0,36,36,36,36,36,0,36,0,,,,,,0,,28-01-22,28-01-22,15:19:18,Mon Feb 28 2022 15:19:18 GMT+0100 (közép-európai téli idő),The main experiment item,yes,0,0,C:/Users/rrics/Documents/!!ResearchBMECOGSCI/gnet,0,0,0,prototype3.png,no,mono,no,18,no,black,no,no,768,1155,3.5.6,legacy,xpyriment,osweb,1.3.13,0,space,space,space,,62572,20675,62572,,2,legacy,680,1280,24,720,24,0,0,1280,1646058047515,1024,2,48000,-16,experiment,prototype3.png,1,odd,Win32,89,132560,129546,89,89,436370,437872,431366,134079,431366,89,,,,,,visual_patterns,0,0,0,yes,1366
undefined,undefined,undefined,undefined,white,no,Mozilla,Netscape,"5.0 (Windows NT 10.0; Win64; x64) AppleWebKit/537.36 (KHTML, like Gecko) Chrome/98.0.4758.102 Safari/537.36 OPR/84.0.4316.21",xpyriment,legacy,legacy,0,uniform,0,0,0,0,24,24,24,0,0,37,37,37,37,37,0,37,0,,,,,,0,,28-01-22,28-01-22,15:19:18,Mon Feb 28 2022 15:19:18 GMT+0100 (közép-európai téli idő),The main experiment item,yes,0,0,C:/Users/rrics/Documents/!!ResearchBMECOGSCI/gnet,0,0,0,prototype3.png,no,mono,no,18,no,black,no,no,768,1155,3.5.6,legacy,xpyriment,osweb,1.3.13,0,space,space,space,,62572,20675,62572,,2,legacy,680,1280,24,720,24,0,0,1280,1646058047515,1024,2,48000,-16,experiment,prototype3.png,1,odd,Win32,89,132560,129546,89,89,442885,444386,437884,134079,437884,89,,,,,,visual_patterns,0,0,0,yes,1366
undefined,undefined,undefined,undefined,white,no,Mozilla,Netscape,"5.0 (Windows NT 10.0; Win64; x64) AppleWebKit/537.36 (KHTML, like Gecko) Chrome/98.0.4758.102 Safari/537.36 OPR/84.0.4316.21",xpyriment,legacy,legacy,0,uniform,0,0,0,0,24,24,24,0,0,38,38,38,38,38,0,38,0,,,,,,0,,28-01-22,28-01-22,15:19:18,Mon Feb 28 2022 15:19:18 GMT+0100 (közép-európai téli idő),The main experiment item,yes,0,0,C:/Users/rrics/Documents/!!ResearchBMECOGSCI/gnet,0,0,0,prototype3.png,no,mono,no,18,no,black,no,no,768,1155,3.5.6,legacy,xpyriment,osweb,1.3.13,0,space,space,space,,62572,20675,62572,,2,legacy,680,1280,24,720,24,0,0,1280,1646058047515,1024,2,48000,-16,experiment,p7sarr1.png,1,odd,Win32,89,132560,129546,89,89,449402,450917,444404,134079,444404,89,,,,,,visual_patterns,0,0,0,yes,1366
undefined,undefined,undefined,undefined,white,no,Mozilla,Netscape,"5.0 (Windows NT 10.0; Win64; x64) AppleWebKit/537.36 (KHTML, like Gecko) Chrome/98.0.4758.102 Safari/537.36 OPR/84.0.4316.21",xpyriment,legacy,legacy,0,uniform,0,0,0,0,24,24,24,0,0,39,39,39,39,39,0,39,0,,,,,,0,,28-01-22,28-01-22,15:19:18,Mon Feb 28 2022 15:19:18 GMT+0100 (közép-európai téli idő),The main experiment item,yes,0,0,C:/Users/rrics/Documents/!!ResearchBMECOGSCI/gnet,0,0,0,prototype3.png,no,mono,no,18,no,black,no,no,768,1155,3.5.6,legacy,xpyriment,osweb,1.3.13,0,space,space,space,,62572,20675,62572,,2,legacy,680,1280,24,720,24,0,0,1280,1646058047515,1024,2,48000,-16,experiment,p1sarrsha1.png,1,odd,Win32,89,132560,129546,89,89,455922,457432,450922,134079,450922,89,,,,,,visual_patterns,0,0,0,yes,1366
undefined,undefined,undefined,undefined,white,no,Mozilla,Netscape,"5.0 (Windows NT 10.0; Win64; x64) AppleWebKit/537.36 (KHTML, like Gecko) Chrome/98.0.4758.102 Safari/537.36 OPR/84.0.4316.21",xpyriment,legacy,legacy,0,uniform,0,0,0,0,24,24,24,0,0,40,40,40,40,40,0,40,0,,,,,,0,,28-01-22,28-01-22,15:19:18,Mon Feb 28 2022 15:19:18 GMT+0100 (közép-európai téli idő),The main experiment item,yes,0,0,C:/Users/rrics/Documents/!!ResearchBMECOGSCI/gnet,0,0,0,prototype3.png,no,mono,no,18,no,black,no,no,768,1155,3.5.6,legacy,xpyriment,osweb,1.3.13,0,space,space,space,,62572,20675,62572,,2,legacy,680,1280,24,720,24,0,0,1280,1646058047515,1024,2,48000,-16,experiment,prototype5.png,1,odd,Win32,89,132560,129546,89,89,462444,463946,457441,134079,457441,89,,,,,,visual_patterns,0,0,0,yes,1366
undefined,undefined,undefined,undefined,white,no,Mozilla,Netscape,"5.0 (Windows NT 10.0; Win64; x64) AppleWebKit/537.36 (KHTML, like Gecko) Chrome/98.0.4758.102 Safari/537.36 OPR/84.0.4316.21",xpyriment,legacy,legacy,0,uniform,0,0,0,0,24,24,24,0,0,41,41,41,41,41,0,41,0,,,,,,0,,28-01-22,28-01-22,15:19:18,Mon Feb 28 2022 15:19:18 GMT+0100 (közép-európai téli idő),The main experiment item,yes,0,0,C:/Users/rrics/Documents/!!ResearchBMECOGSCI/gnet,0,0,0,prototype3.png,no,mono,no,18,no,black,no,no,768,1155,3.5.6,legacy,xpyriment,osweb,1.3.13,0,space,space,space,,62572,20675,62572,,2,legacy,680,1280,24,720,24,0,0,1280,1646058047515,1024,2,48000,-16,experiment,p3sarrshacol2.png,1,odd,Win32,89,132560,129546,89,89,468955,470461,463952,134079,463952,89,,,,,,visual_patterns,0,0,0,yes,1366
undefined,undefined,undefined,undefined,white,no,Mozilla,Netscape,"5.0 (Windows NT 10.0; Win64; x64) AppleWebKit/537.36 (KHTML, like Gecko) Chrome/98.0.4758.102 Safari/537.36 OPR/84.0.4316.21",xpyriment,legacy,legacy,0,uniform,0,0,0,0,24,24,24,0,0,42,42,42,42,42,0,42,0,,,,,,0,,28-01-22,28-01-22,15:19:18,Mon Feb 28 2022 15:19:18 GMT+0100 (közép-európai téli idő),The main experiment item,yes,0,0,C:/Users/rrics/Documents/!!ResearchBMECOGSCI/gnet,0,0,0,prototype3.png,no,mono,no,18,no,black,no,no,768,1155,3.5.6,legacy,xpyriment,osweb,1.3.13,0,space,space,space,,62572,20675,62572,,2,legacy,680,1280,24,720,24,0,0,1280,1646058047515,1024,2,48000,-16,experiment,p3sarrcol2.png,1,odd,Win32,89,132560,129546,89,89,475477,476992,470474,134079,470474,89,,,,,,visual_patterns,0,0,0,yes,1366
undefined,undefined,undefined,undefined,white,no,Mozilla,Netscape,"5.0 (Windows NT 10.0; Win64; x64) AppleWebKit/537.36 (KHTML, like Gecko) Chrome/98.0.4758.102 Safari/537.36 OPR/84.0.4316.21",xpyriment,legacy,legacy,0,uniform,0,0,0,0,24,24,24,0,0,43,43,43,43,43,0,43,0,,,,,,0,,28-01-22,28-01-22,15:19:18,Mon Feb 28 2022 15:19:18 GMT+0100 (közép-európai téli idő),The main experiment item,yes,0,0,C:/Users/rrics/Documents/!!ResearchBMECOGSCI/gnet,0,0,0,prototype3.png,no,mono,no,18,no,black,no,no,768,1155,3.5.6,legacy,xpyriment,osweb,1.3.13,0,space,space,space,,62572,20675,62572,,2,legacy,680,1280,24,720,24,0,0,1280,1646058047515,1024,2,48000,-16,experiment,p3sarr2.png,1,odd,Win32,89,132560,129546,89,89,482008,483524,477008,134079,477008,89,,,,,,visual_patterns,0,0,0,yes,1366
undefined,undefined,undefined,undefined,white,no,Mozilla,Netscape,"5.0 (Windows NT 10.0; Win64; x64) AppleWebKit/537.36 (KHTML, like Gecko) Chrome/98.0.4758.102 Safari/537.36 OPR/84.0.4316.21",xpyriment,legacy,legacy,0,uniform,0,0,0,0,24,24,24,0,0,44,44,44,44,44,0,44,0,,,,,,0,,28-01-22,28-01-22,15:19:18,Mon Feb 28 2022 15:19:18 GMT+0100 (közép-európai téli idő),The main experiment item,yes,0,0,C:/Users/rrics/Documents/!!ResearchBMECOGSCI/gnet,0,0,0,prototype3.png,no,mono,no,18,no,black,no,no,768,1155,3.5.6,legacy,xpyriment,osweb,1.3.13,0,space,space,space,,62572,20675,62572,,2,legacy,680,1280,24,720,24,0,0,1280,1646058047515,1024,2,48000,-16,experiment,p2sarrsha1.png,1,odd,Win32,89,132560,129546,89,89,488537,490038,483538,134079,483538,89,,,,,,visual_patterns,0,0,0,yes,1366
undefined,undefined,undefined,undefined,white,no,Mozilla,Netscape,"5.0 (Windows NT 10.0; Win64; x64) AppleWebKit/537.36 (KHTML, like Gecko) Chrome/98.0.4758.102 Safari/537.36 OPR/84.0.4316.21",xpyriment,legacy,legacy,0,uniform,0,0,0,0,24,24,24,0,0,45,45,45,45,45,0,45,0,,,,,,0,,28-01-22,28-01-22,15:19:18,Mon Feb 28 2022 15:19:18 GMT+0100 (közép-európai téli idő),The main experiment item,yes,0,0,C:/Users/rrics/Documents/!!ResearchBMECOGSCI/gnet,0,0,0,prototype3.png,no,mono,no,18,no,black,no,no,768,1155,3.5.6,legacy,xpyriment,osweb,1.3.13,0,space,space,space,,62572,20675,62572,,2,legacy,680,1280,24,720,24,0,0,1280,1646058047515,1024,2,48000,-16,experiment,p4sarrsha1.png,1,odd,Win32,89,132560,129546,89,89,495051,496552,490048,134079,490048,89,,,,,,visual_patterns,0,0,0,yes,1366
undefined,undefined,undefined,undefined,white,no,Mozilla,Netscape,"5.0 (Windows NT 10.0; Win64; x64) AppleWebKit/537.36 (KHTML, like Gecko) Chrome/98.0.4758.102 Safari/537.36 OPR/84.0.4316.21",xpyriment,legacy,legacy,0,uniform,0,0,0,0,24,24,24,0,0,46,46,46,46,46,0,46,0,,,,,,0,,28-01-22,28-01-22,15:19:18,Mon Feb 28 2022 15:19:18 GMT+0100 (közép-európai téli idő),The main experiment item,yes,0,0,C:/Users/rrics/Documents/!!ResearchBMECOGSCI/gnet,0,0,0,prototype3.png,no,mono,no,18,no,black,no,no,768,1155,3.5.6,legacy,xpyriment,osweb,1.3.13,0,space,space,space,,62572,20675,62572,,2,legacy,680,1280,24,720,24,0,0,1280,1646058047515,1024,2,48000,-16,experiment,p1sarrcol1.png,1,odd,Win32,89,132560,129546,89,89,501564,503067,496568,134079,496567,89,,,,,,visual_patterns,0,0,0,yes,1366
undefined,undefined,undefined,undefined,white,no,Mozilla,Netscape,"5.0 (Windows NT 10.0; Win64; x64) AppleWebKit/537.36 (KHTML, like Gecko) Chrome/98.0.4758.102 Safari/537.36 OPR/84.0.4316.21",xpyriment,legacy,legacy,0,uniform,0,0,0,0,24,24,24,0,0,47,47,47,47,47,0,47,0,,,,,,0,,28-01-22,28-01-22,15:19:18,Mon Feb 28 2022 15:19:18 GMT+0100 (közép-európai téli idő),The main experiment item,yes,0,0,C:/Users/rrics/Documents/!!ResearchBMECOGSCI/gnet,0,0,0,prototype3.png,no,mono,no,18,no,black,no,no,768,1155,3.5.6,legacy,xpyriment,osweb,1.3.13,0,space,space,space,,62572,20675,62572,,2,legacy,680,1280,24,720,24,0,0,1280,1646058047515,1024,2,48000,-16,experiment,p1sarrsha2.png,1,odd,Win32,89,132560,129546,89,89,508079,509581,503076,134079,503076,89,,,,,,visual_patterns,0,0,0,yes,1366
undefined,undefined,undefined,undefined,white,no,Mozilla,Netscape,"5.0 (Windows NT 10.0; Win64; x64) AppleWebKit/537.36 (KHTML, like Gecko) Chrome/98.0.4758.102 Safari/537.36 OPR/84.0.4316.21",xpyriment,legacy,legacy,0,uniform,0,0,0,0,24,24,24,0,0,48,48,48,48,48,0,48,0,,,,,,0,,28-01-22,28-01-22,15:19:18,Mon Feb 28 2022 15:19:18 GMT+0100 (közép-európai téli idő),The main experiment item,yes,0,0,C:/Users/rrics/Documents/!!ResearchBMECOGSCI/gnet,0,0,0,prototype3.png,no,mono,no,18,no,black,no,no,768,1155,3.5.6,legacy,xpyriment,osweb,1.3.13,0,space,space,space,,62572,20675,62572,,2,legacy,680,1280,24,720,24,0,0,1280,1646058047515,1024,2,48000,-16,experiment,p7sarr2.png,1,odd,Win32,89,132560,129546,89,89,514599,516113,509600,134079,509600,89,,,,,,visual_patterns,0,0,0,yes,1366
undefined,undefined,undefined,undefined,white,no,Mozilla,Netscape,"5.0 (Windows NT 10.0; Win64; x64) AppleWebKit/537.36 (KHTML, like Gecko) Chrome/98.0.4758.102 Safari/537.36 OPR/84.0.4316.21",xpyriment,legacy,legacy,0,uniform,0,0,0,0,24,24,24,0,0,49,49,49,49,49,0,49,0,,,,,,0,,28-01-22,28-01-22,15:19:18,Mon Feb 28 2022 15:19:18 GMT+0100 (közép-európai téli idő),The main experiment item,yes,0,0,C:/Users/rrics/Documents/!!ResearchBMECOGSCI/gnet,0,0,0,prototype3.png,no,mono,no,18,no,black,no,no,768,1155,3.5.6,legacy,xpyriment,osweb,1.3.13,0,space,space,space,,62572,20675,62572,,2,legacy,680,1280,24,720,24,0,0,1280,1646058047515,1024,2,48000,-16,experiment,p4sarr1.png,1,odd,Win32,89,132560,129546,89,89,521125,522627,516123,134079,516122,89,,,,,,visual_patterns,0,0,0,yes,1366
undefined,undefined,undefined,undefined,white,no,Mozilla,Netscape,"5.0 (Windows NT 10.0; Win64; x64) AppleWebKit/537.36 (KHTML, like Gecko) Chrome/98.0.4758.102 Safari/537.36 OPR/84.0.4316.21",xpyriment,legacy,legacy,0,uniform,0,0,0,0,24,24,24,0,0,50,50,50,50,50,0,50,0,,,,,,0,,28-01-22,28-01-22,15:19:18,Mon Feb 28 2022 15:19:18 GMT+0100 (közép-európai téli idő),The main experiment item,yes,0,0,C:/Users/rrics/Documents/!!ResearchBMECOGSCI/gnet,0,0,0,prototype3.png,no,mono,no,18,no,black,no,no,768,1155,3.5.6,legacy,xpyriment,osweb,1.3.13,0,space,space,space,,62572,20675,62572,,2,legacy,680,1280,24,720,24,0,0,1280,1646058047515,1024,2,48000,-16,experiment,p10sarr1.png,1,odd,Win32,89,132560,129546,89,89,527639,529141,522641,134079,522641,89,,,,,,visual_patterns,0,0,0,yes,1366
undefined,undefined,undefined,undefined,white,no,Mozilla,Netscape,"5.0 (Windows NT 10.0; Win64; x64) AppleWebKit/537.36 (KHTML, like Gecko) Chrome/98.0.4758.102 Safari/537.36 OPR/84.0.4316.21",xpyriment,legacy,legacy,0,uniform,0,0,0,0,24,24,24,0,0,51,51,51,51,51,0,51,0,,,,,,0,,28-01-22,28-01-22,15:19:18,Mon Feb 28 2022 15:19:18 GMT+0100 (közép-európai téli idő),The main experiment item,yes,0,0,C:/Users/rrics/Documents/!!ResearchBMECOGSCI/gnet,0,0,0,prototype3.png,no,mono,no,18,no,black,no,no,768,1155,3.5.6,legacy,xpyriment,osweb,1.3.13,0,space,space,space,,62572,20675,62572,,2,legacy,680,1280,24,720,24,0,0,1280,1646058047515,1024,2,48000,-16,experiment,prototype3.png,1,odd,Win32,89,132560,129546,89,89,534153,535656,529152,134079,529152,89,,,,,,visual_patterns,0,0,0,yes,1366
undefined,undefined,undefined,undefined,white,no,Mozilla,Netscape,"5.0 (Windows NT 10.0; Win64; x64) AppleWebKit/537.36 (KHTML, like Gecko) Chrome/98.0.4758.102 Safari/537.36 OPR/84.0.4316.21",xpyriment,legacy,legacy,0,uniform,0,0,0,0,24,24,24,0,0,52,52,52,52,52,0,52,0,,,,,,0,,28-01-22,28-01-22,15:19:18,Mon Feb 28 2022 15:19:18 GMT+0100 (közép-európai téli idő),The main experiment item,yes,0,0,C:/Users/rrics/Documents/!!ResearchBMECOGSCI/gnet,0,0,0,prototype3.png,no,mono,no,18,no,black,no,no,768,1155,3.5.6,legacy,xpyriment,osweb,1.3.13,0,space,space,space,,62572,20675,62572,,2,legacy,680,1280,24,720,24,0,0,1280,1646058047515,1024,2,48000,-16,experiment,p1sarr1.png,1,odd,Win32,89,132560,129546,89,89,540669,542171,535668,134079,535668,89,,,,,,visual_patterns,0,0,0,yes,1366
undefined,undefined,undefined,undefined,white,no,Mozilla,Netscape,"5.0 (Windows NT 10.0; Win64; x64) AppleWebKit/537.36 (KHTML, like Gecko) Chrome/98.0.4758.102 Safari/537.36 OPR/84.0.4316.21",xpyriment,legacy,legacy,0,uniform,0,0,0,0,24,24,24,0,0,53,53,53,53,53,0,53,0,,,,,,0,,28-01-22,28-01-22,15:19:18,Mon Feb 28 2022 15:19:18 GMT+0100 (közép-európai téli idő),The main experiment item,yes,0,0,C:/Users/rrics/Documents/!!ResearchBMECOGSCI/gnet,0,0,0,prototype3.png,no,mono,no,18,no,black,no,no,768,1155,3.5.6,legacy,xpyriment,osweb,1.3.13,0,space,space,space,,62572,20675,62572,,2,legacy,680,1280,24,720,24,0,0,1280,1646058047515,1024,2,48000,-16,experiment,p1sarrcol2.png,1,odd,Win32,89,132560,129546,89,89,547184,548685,542181,134079,542181,89,,,,,,visual_patterns,0,0,0,yes,1366
undefined,undefined,undefined,undefined,white,no,Mozilla,Netscape,"5.0 (Windows NT 10.0; Win64; x64) AppleWebKit/537.36 (KHTML, like Gecko) Chrome/98.0.4758.102 Safari/537.36 OPR/84.0.4316.21",xpyriment,legacy,legacy,0,uniform,0,0,0,0,24,24,24,0,0,54,54,54,54,54,0,54,0,,,,,,0,,28-01-22,28-01-22,15:19:18,Mon Feb 28 2022 15:19:18 GMT+0100 (közép-európai téli idő),The main experiment item,yes,0,0,C:/Users/rrics/Documents/!!ResearchBMECOGSCI/gnet,0,0,0,prototype3.png,no,mono,no,18,no,black,no,no,768,1155,3.5.6,legacy,xpyriment,osweb,1.3.13,0,space,space,space,,62572,20675,62572,,2,legacy,680,1280,24,720,24,0,0,1280,1646058047515,1024,2,48000,-16,experiment,p2sarrcol2.png,1,odd,Win32,89,132560,129546,89,89,553695,555199,548698,134079,548698,89,,,,,,visual_patterns,0,0,0,yes,1366
undefined,undefined,undefined,undefined,white,no,Mozilla,Netscape,"5.0 (Windows NT 10.0; Win64; x64) AppleWebKit/537.36 (KHTML, like Gecko) Chrome/98.0.4758.102 Safari/537.36 OPR/84.0.4316.21",xpyriment,legacy,legacy,0,uniform,0,0,0,0,24,24,24,0,0,55,55,55,55,55,0,55,0,,,,,,0,,28-01-22,28-01-22,15:19:18,Mon Feb 28 2022 15:19:18 GMT+0100 (közép-európai téli idő),The main experiment item,yes,0,0,C:/Users/rrics/Documents/!!ResearchBMECOGSCI/gnet,0,0,0,prototype3.png,no,mono,no,18,no,black,no,no,768,1155,3.5.6,legacy,xpyriment,osweb,1.3.13,0,space,space,space,,62572,20675,62572,,2,legacy,680,1280,24,720,24,0,0,1280,1646058047515,1024,2,48000,-16,experiment,prototype4.png,1,odd,Win32,89,132560,129546,89,89,560204,561714,555203,134079,555203,89,,,,,,visual_patterns,0,0,0,yes,1366
undefined,undefined,undefined,undefined,white,no,Mozilla,Netscape,"5.0 (Windows NT 10.0; Win64; x64) AppleWebKit/537.36 (KHTML, like Gecko) Chrome/98.0.4758.102 Safari/537.36 OPR/84.0.4316.21",xpyriment,legacy,legacy,0,uniform,0,0,0,0,24,24,24,0,0,56,56,56,56,56,0,56,0,,,,,,0,,28-01-22,28-01-22,15:19:18,Mon Feb 28 2022 15:19:18 GMT+0100 (közép-európai téli idő),The main experiment item,yes,0,0,C:/Users/rrics/Documents/!!ResearchBMECOGSCI/gnet,0,0,0,prototype3.png,no,mono,no,18,no,black,no,no,768,1155,3.5.6,legacy,xpyriment,osweb,1.3.13,0,space,space,space,,62572,20675,62572,,2,legacy,680,1280,24,720,24,0,0,1280,1646058047515,1024,2,48000,-16,experiment,p2sarrshacol1.png,1,odd,Win32,89,132560,129546,89,89,566721,568229,561721,134079,561721,89,,,,,,visual_patterns,0,0,0,yes,1366
undefined,undefined,undefined,undefined,white,no,Mozilla,Netscape,"5.0 (Windows NT 10.0; Win64; x64) AppleWebKit/537.36 (KHTML, like Gecko) Chrome/98.0.4758.102 Safari/537.36 OPR/84.0.4316.21",xpyriment,legacy,legacy,0,uniform,0,0,0,0,24,24,24,0,0,57,57,57,57,57,0,57,0,,,,,,0,,28-01-22,28-01-22,15:19:18,Mon Feb 28 2022 15:19:18 GMT+0100 (közép-európai téli idő),The main experiment item,yes,0,0,C:/Users/rrics/Documents/!!ResearchBMECOGSCI/gnet,0,0,0,prototype3.png,no,mono,no,18,no,black,no,no,768,1155,3.5.6,legacy,xpyriment,osweb,1.3.13,0,space,space,space,,62572,20675,62572,,2,legacy,680,1280,24,720,24,0,0,1280,1646058047515,1024,2,48000,-16,experiment,prototype5.png,1,odd,Win32,89,132560,129546,89,89,573246,574759,568245,134079,568245,89,,,,,,visual_patterns,0,0,0,yes,1366
undefined,undefined,undefined,undefined,white,no,Mozilla,Netscape,"5.0 (Windows NT 10.0; Win64; x64) AppleWebKit/537.36 (KHTML, like Gecko) Chrome/98.0.4758.102 Safari/537.36 OPR/84.0.4316.21",xpyriment,legacy,legacy,0,uniform,0,0,0,0,24,24,24,0,0,58,58,58,58,58,0,58,0,,,,,,0,,28-01-22,28-01-22,15:19:18,Mon Feb 28 2022 15:19:18 GMT+0100 (közép-európai téli idő),The main experiment item,yes,0,0,C:/Users/rrics/Documents/!!ResearchBMECOGSCI/gnet,0,0,0,prototype3.png,no,mono,no,18,no,black,no,no,768,1155,3.5.6,legacy,xpyriment,osweb,1.3.13,0,space,space,space,,62572,20675,62572,,2,legacy,680,1280,24,720,24,0,0,1280,1646058047515,1024,2,48000,-16,experiment,prototype2.png,1,odd,Win32,89,132560,129546,89,89,579767,581274,574764,134079,574764,89,,,,,,visual_patterns,0,0,0,yes,1366
undefined,undefined,undefined,undefined,white,no,Mozilla,Netscape,"5.0 (Windows NT 10.0; Win64; x64) AppleWebKit/537.36 (KHTML, like Gecko) Chrome/98.0.4758.102 Safari/537.36 OPR/84.0.4316.21",xpyriment,legacy,legacy,0,uniform,0,0,0,0,24,24,24,0,0,59,59,59,59,59,0,59,0,,,,,,0,,28-01-22,28-01-22,15:19:18,Mon Feb 28 2022 15:19:18 GMT+0100 (közép-európai téli idő),The main experiment item,yes,0,0,C:/Users/rrics/Documents/!!ResearchBMECOGSCI/gnet,0,0,0,prototype3.png,no,mono,no,18,no,black,no,no,768,1155,3.5.6,legacy,xpyriment,osweb,1.3.13,0,space,space,space,,62572,20675,62572,,2,legacy,680,1280,24,720,24,0,0,1280,1646058047515,1024,2,48000,-16,experiment,prototype5.png,1,odd,Win32,89,132560,129546,89,89,586283,587788,581281,134079,581281,89,,,,,,visual_patterns,0,0,0,yes,1366
undefined,undefined,undefined,undefined,white,no,Mozilla,Netscape,"5.0 (Windows NT 10.0; Win64; x64) AppleWebKit/537.36 (KHTML, like Gecko) Chrome/98.0.4758.102 Safari/537.36 OPR/84.0.4316.21",xpyriment,legacy,legacy,0,uniform,0,0,0,0,24,24,24,0,0,60,60,60,60,60,0,60,0,,,,,,0,,28-01-22,28-01-22,15:19:18,Mon Feb 28 2022 15:19:18 GMT+0100 (közép-európai téli idő),The main experiment item,yes,0,0,C:/Users/rrics/Documents/!!ResearchBMECOGSCI/gnet,0,0,0,prototype3.png,no,mono,no,18,no,black,no,no,768,1155,3.5.6,legacy,xpyriment,osweb,1.3.13,0,space,space,space,,62572,20675,62572,,2,legacy,680,1280,24,720,24,0,0,1280,1646058047515,1024,2,48000,-16,experiment,p1sarrshacol2.png,1,odd,Win32,89,132560,129546,89,89,592805,594320,587806,134079,587806,89,,,,,,visual_patterns,0,0,0,yes,1366
undefined,undefined,undefined,undefined,white,no,Mozilla,Netscape,"5.0 (Windows NT 10.0; Win64; x64) AppleWebKit/537.36 (KHTML, like Gecko) Chrome/98.0.4758.102 Safari/537.36 OPR/84.0.4316.21",xpyriment,legacy,legacy,0,uniform,0,0,0,0,24,24,24,0,0,61,61,61,61,61,0,61,0,,,,,,0,,28-01-22,28-01-22,15:19:18,Mon Feb 28 2022 15:19:18 GMT+0100 (közép-európai téli idő),The main experiment item,yes,0,0,C:/Users/rrics/Documents/!!ResearchBMECOGSCI/gnet,0,0,0,prototype3.png,no,mono,no,18,no,black,no,no,768,1155,3.5.6,legacy,xpyriment,osweb,1.3.13,0,space,space,space,,62572,20675,62572,,2,legacy,680,1280,24,720,24,0,0,1280,1646058047515,1024,2,48000,-16,experiment,p2sarrcol1.png,1,odd,Win32,89,132560,129546,89,89,599333,600834,594334,134079,594334,89,,,,,,visual_patterns,0,0,0,yes,1366
undefined,undefined,undefined,undefined,white,no,Mozilla,Netscape,"5.0 (Windows NT 10.0; Win64; x64) AppleWebKit/537.36 (KHTML, like Gecko) Chrome/98.0.4758.102 Safari/537.36 OPR/84.0.4316.21",xpyriment,legacy,legacy,0,uniform,0,0,0,0,24,24,24,0,0,62,62,62,62,62,0,62,0,,,,,,0,,28-01-22,28-01-22,15:19:18,Mon Feb 28 2022 15:19:18 GMT+0100 (közép-európai téli idő),The main experiment item,yes,0,0,C:/Users/rrics/Documents/!!ResearchBMECOGSCI/gnet,0,0,0,prototype3.png,no,mono,no,18,no,black,no,no,768,1155,3.5.6,legacy,xpyriment,osweb,1.3.13,0,space,space,space,,62572,20675,62572,,2,legacy,680,1280,24,720,24,0,0,1280,1646058047515,1024,2,48000,-16,experiment,p5sarr2.png,1,odd,Win32,89,132560,129546,89,89,605848,607365,600851,134079,600851,89,,,,,,visual_patterns,0,0,0,yes,1366
undefined,undefined,undefined,undefined,white,no,Mozilla,Netscape,"5.0 (Windows NT 10.0; Win64; x64) AppleWebKit/537.36 (KHTML, like Gecko) Chrome/98.0.4758.102 Safari/537.36 OPR/84.0.4316.21",xpyriment,legacy,legacy,0,uniform,0,0,0,0,24,24,24,0,0,63,63,63,63,63,0,63,0,,,,,,0,,28-01-22,28-01-22,15:19:18,Mon Feb 28 2022 15:19:18 GMT+0100 (közép-európai téli idő),The main experiment item,yes,0,0,C:/Users/rrics/Documents/!!ResearchBMECOGSCI/gnet,0,0,0,prototype3.png,no,mono,no,18,no,black,no,no,768,1155,3.5.6,legacy,xpyriment,osweb,1.3.13,0,space,space,space,,62572,20675,62572,,2,legacy,680,1280,24,720,24,0,0,1280,1646058047515,1024,2,48000,-16,experiment,p10sarr2.png,1,odd,Win32,89,132560,129546,89,89,612374,613879,607374,134079,607374,89,,,,,,visual_patterns,0,0,0,yes,1366
undefined,undefined,undefined,undefined,white,no,Mozilla,Netscape,"5.0 (Windows NT 10.0; Win64; x64) AppleWebKit/537.36 (KHTML, like Gecko) Chrome/98.0.4758.102 Safari/537.36 OPR/84.0.4316.21",xpyriment,legacy,legacy,0,uniform,0,0,0,0,24,24,24,0,0,64,64,64,64,64,0,64,0,,,,,,0,,28-01-22,28-01-22,15:19:18,Mon Feb 28 2022 15:19:18 GMT+0100 (közép-európai téli idő),The main experiment item,yes,0,0,C:/Users/rrics/Documents/!!ResearchBMECOGSCI/gnet,0,0,0,prototype3.png,no,mono,no,18,no,black,no,no,768,1155,3.5.6,legacy,xpyriment,osweb,1.3.13,0,space,space,space,,62572,20675,62572,,2,legacy,680,1280,24,720,24,0,0,1280,1646058047515,1024,2,48000,-16,experiment,prototype1.png,1,odd,Win32,89,132560,129546,89,89,618890,620394,613891,134079,613891,89,,,,,,visual_patterns,0,0,0,yes,1366
undefined,undefined,undefined,undefined,white,no,Mozilla,Netscape,"5.0 (Windows NT 10.0; Win64; x64) AppleWebKit/537.36 (KHTML, like Gecko) Chrome/98.0.4758.102 Safari/537.36 OPR/84.0.4316.21",xpyriment,legacy,legacy,0,uniform,0,0,0,0,24,24,24,0,0,65,65,65,65,65,0,65,0,,,,,,0,,28-01-22,28-01-22,15:19:18,Mon Feb 28 2022 15:19:18 GMT+0100 (közép-európai téli idő),The main experiment item,yes,0,0,C:/Users/rrics/Documents/!!ResearchBMECOGSCI/gnet,0,0,0,prototype3.png,no,mono,no,18,no,black,no,no,768,1155,3.5.6,legacy,xpyriment,osweb,1.3.13,0,space,space,space,,62572,20675,62572,,2,legacy,680,1280,24,720,24,0,0,1280,1646058047515,1024,2,48000,-16,experiment,prototype4.png,1,odd,Win32,89,132560,129546,89,89,625401,626909,620401,134079,620401,89,,,,,,visual_patterns,0,0,0,yes,1366
undefined,undefined,undefined,undefined,white,no,Mozilla,Netscape,"5.0 (Windows NT 10.0; Win64; x64) AppleWebKit/537.36 (KHTML, like Gecko) Chrome/98.0.4758.102 Safari/537.36 OPR/84.0.4316.21",xpyriment,legacy,legacy,0,uniform,0,0,0,0,24,24,24,0,0,66,66,66,66,66,0,66,0,,,,,,0,,28-01-22,28-01-22,15:19:18,Mon Feb 28 2022 15:19:18 GMT+0100 (közép-európai téli idő),The main experiment item,yes,0,0,C:/Users/rrics/Documents/!!ResearchBMECOGSCI/gnet,0,0,0,prototype3.png,no,mono,no,18,no,black,no,no,768,1155,3.5.6,legacy,xpyriment,osweb,1.3.13,0,space,space,space,,62572,20675,62572,,2,legacy,680,1280,24,720,24,0,0,1280,1646058047515,1024,2,48000,-16,experiment,p2sarrshacol2.png,1,odd,Win32,89,132560,129546,89,89,631919,633423,626917,134079,626917,89,,,,,,visual_patterns,0,0,0,yes,1366
undefined,undefined,undefined,undefined,white,no,Mozilla,Netscape,"5.0 (Windows NT 10.0; Win64; x64) AppleWebKit/537.36 (KHTML, like Gecko) Chrome/98.0.4758.102 Safari/537.36 OPR/84.0.4316.21",xpyriment,legacy,legacy,0,uniform,0,0,0,0,24,24,24,0,0,67,67,67,67,67,0,67,0,,,,,,0,,28-01-22,28-01-22,15:19:18,Mon Feb 28 2022 15:19:18 GMT+0100 (közép-európai téli idő),The main experiment item,yes,0,0,C:/Users/rrics/Documents/!!ResearchBMECOGSCI/gnet,0,0,0,prototype3.png,no,mono,no,18,no,black,no,no,768,1155,3.5.6,legacy,xpyriment,osweb,1.3.13,0,space,space,space,,62572,20675,62572,,2,legacy,680,1280,24,720,24,0,0,1280,1646058047515,1024,2,48000,-16,experiment,p1sarr2.png,1,odd,Win32,89,132560,129546,89,89,638436,639937,633440,134079,633440,89,,,,,,visual_patterns,0,0,0,yes,1366
undefined,undefined,undefined,undefined,white,no,Mozilla,Netscape,"5.0 (Windows NT 10.0; Win64; x64) AppleWebKit/537.36 (KHTML, like Gecko) Chrome/98.0.4758.102 Safari/537.36 OPR/84.0.4316.21",xpyriment,legacy,legacy,0,uniform,0,0,0,0,24,24,24,0,0,68,68,68,68,68,0,68,0,,,,,,0,,28-01-22,28-01-22,15:19:18,Mon Feb 28 2022 15:19:18 GMT+0100 (közép-európai téli idő),The main experiment item,yes,0,0,C:/Users/rrics/Documents/!!ResearchBMECOGSCI/gnet,0,0,0,prototype3.png,no,mono,no,18,no,black,no,no,768,1155,3.5.6,legacy,xpyriment,osweb,1.3.13,0,space,space,space,,62572,20675,62572,,2,legacy,680,1280,24,720,24,0,0,1280,1646058047515,1024,2,48000,-16,experiment,p6sarr2.png,1,odd,Win32,89,132560,129546,89,89,644949,646452,639949,134079,639949,89,,,,,,visual_patterns,0,0,0,yes,1366
undefined,undefined,undefined,undefined,white,no,Mozilla,Netscape,"5.0 (Windows NT 10.0; Win64; x64) AppleWebKit/537.36 (KHTML, like Gecko) Chrome/98.0.4758.102 Safari/537.36 OPR/84.0.4316.21",xpyriment,legacy,legacy,0,uniform,0,0,0,0,24,24,24,0,0,69,69,69,69,69,0,69,0,,,,,,0,,28-01-22,28-01-22,15:19:18,Mon Feb 28 2022 15:19:18 GMT+0100 (közép-európai téli idő),The main experiment item,yes,0,0,C:/Users/rrics/Documents/!!ResearchBMECOGSCI/gnet,0,0,0,prototype3.png,no,mono,no,18,no,black,no,no,768,1155,3.5.6,legacy,xpyriment,osweb,1.3.13,0,space,space,space,,62572,20675,62572,,2,legacy,680,1280,24,720,24,0,0,1280,1646058047515,1024,2,48000,-16,experiment,prototype2.png,1,odd,Win32,89,132560,129546,89,89,651463,652966,646463,134079,646463,89,,,,,,visual_patterns,0,0,0,yes,1366
undefined,undefined,undefined,undefined,white,no,Mozilla,Netscape,"5.0 (Windows NT 10.0; Win64; x64) AppleWebKit/537.36 (KHTML, like Gecko) Chrome/98.0.4758.102 Safari/537.36 OPR/84.0.4316.21",xpyriment,legacy,legacy,0,uniform,0,0,0,0,24,24,24,0,0,70,70,70,70,70,0,70,0,,,,,,0,,28-01-22,28-01-22,15:19:18,Mon Feb 28 2022 15:19:18 GMT+0100 (közép-európai téli idő),The main experiment item,yes,0,0,C:/Users/rrics/Documents/!!ResearchBMECOGSCI/gnet,0,0,0,prototype3.png,no,mono,no,18,no,black,no,no,768,1155,3.5.6,legacy,xpyriment,osweb,1.3.13,0,space,space,space,,62572,20675,62572,,2,legacy,680,1280,24,720,24,0,0,1280,1646058047515,1024,2,48000,-16,experiment,p1sarrshacol1.png,1,odd,Win32,89,132560,129546,89,89,657981,659497,652982,134079,652982,89,,,,,,visual_patterns,0,0,0,yes,1366
undefined,undefined,undefined,undefined,white,no,Mozilla,Netscape,"5.0 (Windows NT 10.0; Win64; x64) AppleWebKit/537.36 (KHTML, like Gecko) Chrome/98.0.4758.102 Safari/537.36 OPR/84.0.4316.21",xpyriment,legacy,legacy,0,uniform,0,0,0,0,24,24,24,0,0,71,71,71,71,71,0,71,0,,,,,,0,,28-01-22,28-01-22,15:19:18,Mon Feb 28 2022 15:19:18 GMT+0100 (közép-európai téli idő),The main experiment item,yes,0,0,C:/Users/rrics/Documents/!!ResearchBMECOGSCI/gnet,0,0,0,prototype3.png,no,mono,no,18,no,black,no,no,768,1155,3.5.6,legacy,xpyriment,osweb,1.3.13,0,space,space,space,,62572,20675,62572,,2,legacy,680,1280,24,720,24,0,0,1280,1646058047515,1024,2,48000,-16,experiment,prototype1.png,1,odd,Win32,89,132560,129546,89,89,664508,666012,659509,134079,659509,89,,,,,,visual_patterns,0,0,0,yes,1366
undefined,undefined,undefined,undefined,white,no,Mozilla,Netscape,"5.0 (Windows NT 10.0; Win64; x64) AppleWebKit/537.36 (KHTML, like Gecko) Chrome/98.0.4758.102 Safari/537.36 OPR/84.0.4316.21",xpyriment,legacy,legacy,0,uniform,0,0,0,0,24,24,24,0,0,72,72,72,72,72,0,72,0,,,,,,0,,28-01-22,28-01-22,15:19:18,Mon Feb 28 2022 15:19:18 GMT+0100 (közép-európai téli idő),The main experiment item,yes,0,0,C:/Users/rrics/Documents/!!ResearchBMECOGSCI/gnet,0,0,0,prototype3.png,no,mono,no,18,no,black,no,no,768,1155,3.5.6,legacy,xpyriment,osweb,1.3.13,0,space,space,space,,62572,20675,62572,,2,legacy,680,1280,24,720,24,0,0,1280,1646058047515,1024,2,48000,-16,experiment,prototype5.png,1,odd,Win32,89,132560,129546,89,89,671032,672543,666028,134079,666028,89,,,,,,visual_patterns,0,0,0,yes,1366
undefined,undefined,undefined,undefined,white,no,Mozilla,Netscape,"5.0 (Windows NT 10.0; Win64; x64) AppleWebKit/537.36 (KHTML, like Gecko) Chrome/98.0.4758.102 Safari/537.36 OPR/84.0.4316.21",xpyriment,legacy,legacy,0,uniform,0,0,0,0,24,24,24,0,0,73,73,73,73,73,0,73,0,,,,,,0,,28-01-22,28-01-22,15:19:18,Mon Feb 28 2022 15:19:18 GMT+0100 (közép-európai téli idő),The main experiment item,yes,0,0,C:/Users/rrics/Documents/!!ResearchBMECOGSCI/gnet,0,0,0,prototype3.png,no,mono,no,18,no,black,no,no,768,1155,3.5.6,legacy,xpyriment,osweb,1.3.13,0,space,space,space,,62572,20675,62572,,2,legacy,680,1280,24,720,24,0,0,1280,1646058047515,1024,2,48000,-16,experiment,prototype3.png,1,odd,Win32,89,132560,129546,89,89,677558,679074,672555,134079,672555,89,,,,,,visual_patterns,0,0,0,yes,1366
undefined,undefined,undefined,undefined,white,no,Mozilla,Netscape,"5.0 (Windows NT 10.0; Win64; x64) AppleWebKit/537.36 (KHTML, like Gecko) Chrome/98.0.4758.102 Safari/537.36 OPR/84.0.4316.21",xpyriment,legacy,legacy,0,uniform,0,0,0,0,24,24,24,0,0,74,74,74,74,74,0,74,0,,,,,,0,,28-01-22,28-01-22,15:19:18,Mon Feb 28 2022 15:19:18 GMT+0100 (közép-európai téli idő),The main experiment item,yes,0,0,C:/Users/rrics/Documents/!!ResearchBMECOGSCI/gnet,0,0,0,prototype3.png,no,mono,no,18,no,black,no,no,768,1155,3.5.6,legacy,xpyriment,osweb,1.3.13,0,space,space,space,,62572,20675,62572,,2,legacy,680,1280,24,720,24,0,0,1280,1646058047515,1024,2,48000,-16,experiment,prototype2.png,1,odd,Win32,89,132560,129546,89,89,684084,685589,679083,134079,679083,89,,,,,,visual_patterns,0,0,0,yes,1366
undefined,undefined,undefined,undefined,white,no,Mozilla,Netscape,"5.0 (Windows NT 10.0; Win64; x64) AppleWebKit/537.36 (KHTML, like Gecko) Chrome/98.0.4758.102 Safari/537.36 OPR/84.0.4316.21",xpyriment,legacy,legacy,0,uniform,0,0,0,0,24,24,24,0,0,74,74,74,74,74,0,74,0,0,0,0,0,0,0,0,28-01-22,28-01-22,15:19:18,Mon Feb 28 2022 15:19:18 GMT+0100 (közép-európai téli idő),The main experiment item,yes,0,0,C:/Users/rrics/Documents/!!ResearchBMECOGSCI/gnet,0,0,0,prototype3.png,no,mono,no,18,no,black,no,no,768,1155,3.5.6,legacy,xpyriment,osweb,1.3.13,0,space,space,space,space,33403,20675,62572,33403,2,legacy,680,1280,24,720,24,0,0,1280,1646058047515,1024,2,48000,-16,experiment,p5sarrsha3.png,1,odd,Win32,89,132560,129546,89,89,684084,685589,679083,134079,679083,89,722039,723542,719038,685594,719038,visual_patterns,0,0,0,yes,1366
undefined,undefined,undefined,undefined,white,no,Mozilla,Netscape,"5.0 (Windows NT 10.0; Win64; x64) AppleWebKit/537.36 (KHTML, like Gecko) Chrome/98.0.4758.102 Safari/537.36 OPR/84.0.4316.21",xpyriment,legacy,legacy,0,uniform,0,0,0,0,24,24,24,0,0,74,74,74,74,74,0,74,0,1,1,1,1,1,0,1,28-01-22,28-01-22,15:19:18,Mon Feb 28 2022 15:19:18 GMT+0100 (közép-európai téli idő),The main experiment item,yes,0,0,C:/Users/rrics/Documents/!!ResearchBMECOGSCI/gnet,0,0,0,prototype3.png,no,mono,no,18,no,black,no,no,768,1155,3.5.6,legacy,xpyriment,osweb,1.3.13,0,space,space,space,space,33403,20675,62572,33403,2,legacy,680,1280,24,720,24,0,0,1280,1646058047515,1024,2,48000,-16,experiment,p2sarrshacol1.png,1,odd,Win32,89,132560,129546,89,89,684084,685589,679083,134079,679083,89,726555,728058,723552,685594,723552,visual_patterns,0,0,0,yes,1366
undefined,undefined,undefined,undefined,white,no,Mozilla,Netscape,"5.0 (Windows NT 10.0; Win64; x64) AppleWebKit/537.36 (KHTML, like Gecko) Chrome/98.0.4758.102 Safari/537.36 OPR/84.0.4316.21",xpyriment,legacy,legacy,0,uniform,0,0,0,0,24,24,24,0,0,74,74,74,74,74,0,74,0,2,2,2,2,2,0,2,28-01-22,28-01-22,15:19:18,Mon Feb 28 2022 15:19:18 GMT+0100 (közép-európai téli idő),The main experiment item,yes,0,0,C:/Users/rrics/Documents/!!ResearchBMECOGSCI/gnet,0,0,0,prototype3.png,no,mono,no,18,no,black,no,no,768,1155,3.5.6,legacy,xpyriment,osweb,1.3.13,0,space,space,space,space,33403,20675,62572,33403,2,legacy,680,1280,24,720,24,0,0,1280,1646058047515,1024,2,48000,-16,experiment,p4sarr4.png,1,odd,Win32,89,132560,129546,89,89,684084,685589,679083,134079,679083,89,731076,732589,728073,685594,728073,visual_patterns,0,0,0,yes,1366
undefined,undefined,undefined,undefined,white,no,Mozilla,Netscape,"5.0 (Windows NT 10.0; Win64; x64) AppleWebKit/537.36 (KHTML, like Gecko) Chrome/98.0.4758.102 Safari/537.36 OPR/84.0.4316.21",xpyriment,legacy,legacy,0,uniform,0,0,0,0,24,24,24,0,0,74,74,74,74,74,0,74,0,3,3,3,3,3,0,3,28-01-22,28-01-22,15:19:18,Mon Feb 28 2022 15:19:18 GMT+0100 (közép-európai téli idő),The main experiment item,yes,0,0,C:/Users/rrics/Documents/!!ResearchBMECOGSCI/gnet,0,0,0,prototype3.png,no,mono,no,18,no,black,no,no,768,1155,3.5.6,legacy,xpyriment,osweb,1.3.13,0,space,space,space,space,33403,20675,62572,33403,2,legacy,680,1280,24,720,24,0,0,1280,1646058047515,1024,2,48000,-16,experiment,p5sarrsha2.png,1,odd,Win32,89,132560,129546,89,89,684084,685589,679083,134079,679083,89,735602,737105,732599,685594,732599,visual_patterns,0,0,0,yes,1366
undefined,undefined,undefined,undefined,white,no,Mozilla,Netscape,"5.0 (Windows NT 10.0; Win64; x64) AppleWebKit/537.36 (KHTML, like Gecko) Chrome/98.0.4758.102 Safari/537.36 OPR/84.0.4316.21",xpyriment,legacy,legacy,0,uniform,0,0,0,0,24,24,24,0,0,74,74,74,74,74,0,74,0,4,4,4,4,4,0,4,28-01-22,28-01-22,15:19:18,Mon Feb 28 2022 15:19:18 GMT+0100 (közép-európai téli idő),The main experiment item,yes,0,0,C:/Users/rrics/Documents/!!ResearchBMECOGSCI/gnet,0,0,0,prototype3.png,no,mono,no,18,no,black,no,no,768,1155,3.5.6,legacy,xpyriment,osweb,1.3.13,0,space,space,space,space,33403,20675,62572,33403,2,legacy,680,1280,24,720,24,0,0,1280,1646058047515,1024,2,48000,-16,experiment,p7sarr2.png,1,odd,Win32,89,132560,129546,89,89,684084,685589,679083,134079,679083,89,740118,741620,737115,685594,737115,visual_patterns,0,0,0,yes,1366
undefined,undefined,undefined,undefined,white,no,Mozilla,Netscape,"5.0 (Windows NT 10.0; Win64; x64) AppleWebKit/537.36 (KHTML, like Gecko) Chrome/98.0.4758.102 Safari/537.36 OPR/84.0.4316.21",xpyriment,legacy,legacy,0,uniform,0,0,0,0,24,24,24,0,0,74,74,74,74,74,0,74,0,5,5,5,5,5,0,5,28-01-22,28-01-22,15:19:18,Mon Feb 28 2022 15:19:18 GMT+0100 (közép-európai téli idő),The main experiment item,yes,0,0,C:/Users/rrics/Documents/!!ResearchBMECOGSCI/gnet,0,0,0,prototype3.png,no,mono,no,18,no,black,no,no,768,1155,3.5.6,legacy,xpyriment,osweb,1.3.13,0,space,space,space,space,33403,20675,62572,33403,2,legacy,680,1280,24,720,24,0,0,1280,1646058047515,1024,2,48000,-16,experiment,p1sarrsha4.png,1,odd,Win32,89,132560,129546,89,89,684084,685589,679083,134079,679083,89,744634,746135,741631,685594,741631,visual_patterns,0,0,0,yes,1366
undefined,undefined,undefined,undefined,white,no,Mozilla,Netscape,"5.0 (Windows NT 10.0; Win64; x64) AppleWebKit/537.36 (KHTML, like Gecko) Chrome/98.0.4758.102 Safari/537.36 OPR/84.0.4316.21",xpyriment,legacy,legacy,0,uniform,0,0,0,0,24,24,24,0,0,74,74,74,74,74,0,74,0,6,6,6,6,6,0,6,28-01-22,28-01-22,15:19:18,Mon Feb 28 2022 15:19:18 GMT+0100 (közép-európai téli idő),The main experiment item,yes,0,0,C:/Users/rrics/Documents/!!ResearchBMECOGSCI/gnet,0,0,0,prototype3.png,no,mono,no,18,no,black,no,no,768,1155,3.5.6,legacy,xpyriment,osweb,1.3.13,0,space,space,space,space,33403,20675,62572,33403,2,legacy,680,1280,24,720,24,0,0,1280,1646058047515,1024,2,48000,-16,experiment,p3sarrcol2.png,1,odd,Win32,89,132560,129546,89,89,684084,685589,679083,134079,679083,89,749144,750649,746144,685594,746144,visual_patterns,0,0,0,yes,1366
undefined,undefined,undefined,undefined,white,no,Mozilla,Netscape,"5.0 (Windows NT 10.0; Win64; x64) AppleWebKit/537.36 (KHTML, like Gecko) Chrome/98.0.4758.102 Safari/537.36 OPR/84.0.4316.21",xpyriment,legacy,legacy,0,uniform,0,0,0,0,24,24,24,0,0,74,74,74,74,74,0,74,0,7,7,7,7,7,0,7,28-01-22,28-01-22,15:19:18,Mon Feb 28 2022 15:19:18 GMT+0100 (közép-európai téli idő),The main experiment item,yes,0,0,C:/Users/rrics/Documents/!!ResearchBMECOGSCI/gnet,0,0,0,prototype3.png,no,mono,no,18,no,black,no,no,768,1155,3.5.6,legacy,xpyriment,osweb,1.3.13,0,space,space,space,space,33403,20675,62572,33403,2,legacy,680,1280,24,720,24,0,0,1280,1646058047515,1024,2,48000,-16,experiment,p3sarrcol3.png,1,odd,Win32,89,132560,129546,89,89,684084,685589,679083,134079,679083,89,753658,755165,750658,685594,750658,visual_patterns,0,0,0,yes,1366
undefined,undefined,undefined,undefined,white,no,Mozilla,Netscape,"5.0 (Windows NT 10.0; Win64; x64) AppleWebKit/537.36 (KHTML, like Gecko) Chrome/98.0.4758.102 Safari/537.36 OPR/84.0.4316.21",xpyriment,legacy,legacy,0,uniform,0,0,0,0,24,24,24,0,0,74,74,74,74,74,0,74,0,8,8,8,8,8,0,8,28-01-22,28-01-22,15:19:18,Mon Feb 28 2022 15:19:18 GMT+0100 (közép-európai téli idő),The main experiment item,yes,0,0,C:/Users/rrics/Documents/!!ResearchBMECOGSCI/gnet,0,0,0,prototype3.png,no,mono,no,18,no,black,no,no,768,1155,3.5.6,legacy,xpyriment,osweb,1.3.13,0,space,space,space,space,33403,20675,62572,33403,2,legacy,680,1280,24,720,24,0,0,1280,1646058047515,1024,2,48000,-16,experiment,p1sarrsha1.png,1,odd,Win32,89,132560,129546,89,89,684084,685589,679083,134079,679083,89,758181,759697,755180,685594,755180,visual_patterns,0,0,0,yes,1366
undefined,undefined,undefined,undefined,white,no,Mozilla,Netscape,"5.0 (Windows NT 10.0; Win64; x64) AppleWebKit/537.36 (KHTML, like Gecko) Chrome/98.0.4758.102 Safari/537.36 OPR/84.0.4316.21",xpyriment,legacy,legacy,0,uniform,0,0,0,0,24,24,24,0,0,74,74,74,74,74,0,74,0,9,9,9,9,9,0,9,28-01-22,28-01-22,15:19:18,Mon Feb 28 2022 15:19:18 GMT+0100 (közép-európai téli idő),The main experiment item,yes,0,0,C:/Users/rrics/Documents/!!ResearchBMECOGSCI/gnet,0,0,0,prototype3.png,no,mono,no,18,no,black,no,no,768,1155,3.5.6,legacy,xpyriment,osweb,1.3.13,0,space,space,space,space,33403,20675,62572,33403,2,legacy,680,1280,24,720,24,0,0,1280,1646058047515,1024,2,48000,-16,experiment,p4sarr1.png,1,odd,Win32,89,132560,129546,89,89,684084,685589,679083,134079,679083,89,762715,764228,759712,685594,759712,visual_patterns,0,0,0,yes,1366
undefined,undefined,undefined,undefined,white,no,Mozilla,Netscape,"5.0 (Windows NT 10.0; Win64; x64) AppleWebKit/537.36 (KHTML, like Gecko) Chrome/98.0.4758.102 Safari/537.36 OPR/84.0.4316.21",xpyriment,legacy,legacy,0,uniform,0,0,0,0,24,24,24,0,0,74,74,74,74,74,0,74,0,10,10,10,10,10,0,10,28-01-22,28-01-22,15:19:18,Mon Feb 28 2022 15:19:18 GMT+0100 (közép-európai téli idő),The main experiment item,yes,0,0,C:/Users/rrics/Documents/!!ResearchBMECOGSCI/gnet,0,0,0,prototype3.png,no,mono,no,18,no,black,no,no,768,1155,3.5.6,legacy,xpyriment,osweb,1.3.13,0,space,space,space,space,33403,20675,62572,33403,2,legacy,680,1280,24,720,24,0,0,1280,1646058047515,1024,2,48000,-16,experiment,p9sarr2.png,1,odd,Win32,89,132560,129546,89,89,684084,685589,679083,134079,679083,89,767234,768744,764234,685594,764233,visual_patterns,0,0,0,yes,1366
undefined,undefined,undefined,undefined,white,no,Mozilla,Netscape,"5.0 (Windows NT 10.0; Win64; x64) AppleWebKit/537.36 (KHTML, like Gecko) Chrome/98.0.4758.102 Safari/537.36 OPR/84.0.4316.21",xpyriment,legacy,legacy,0,uniform,0,0,0,0,24,24,24,0,0,74,74,74,74,74,0,74,0,11,11,11,11,11,0,11,28-01-22,28-01-22,15:19:18,Mon Feb 28 2022 15:19:18 GMT+0100 (közép-európai téli idő),The main experiment item,yes,0,0,C:/Users/rrics/Documents/!!ResearchBMECOGSCI/gnet,0,0,0,prototype3.png,no,mono,no,18,no,black,no,no,768,1155,3.5.6,legacy,xpyriment,osweb,1.3.13,0,space,space,space,space,33403,20675,62572,33403,2,legacy,680,1280,24,720,24,0,0,1280,1646058047515,1024,2,48000,-16,experiment,p1sarr2.png,1,odd,Win32,89,132560,129546,89,89,684084,685589,679083,134079,679083,89,771760,773276,768760,685594,768760,visual_patterns,0,0,0,yes,1366
undefined,undefined,undefined,undefined,white,no,Mozilla,Netscape,"5.0 (Windows NT 10.0; Win64; x64) AppleWebKit/537.36 (KHTML, like Gecko) Chrome/98.0.4758.102 Safari/537.36 OPR/84.0.4316.21",xpyriment,legacy,legacy,0,uniform,0,0,0,0,24,24,24,0,0,74,74,74,74,74,0,74,0,12,12,12,12,12,0,12,28-01-22,28-01-22,15:19:18,Mon Feb 28 2022 15:19:18 GMT+0100 (közép-európai téli idő),The main experiment item,yes,0,0,C:/Users/rrics/Documents/!!ResearchBMECOGSCI/gnet,0,0,0,prototype3.png,no,mono,no,18,no,black,no,no,768,1155,3.5.6,legacy,xpyriment,osweb,1.3.13,0,space,space,space,space,33403,20675,62572,33403,2,legacy,680,1280,24,720,24,0,0,1280,1646058047515,1024,2,48000,-16,experiment,p3sarrcol4.png,1,odd,Win32,89,132560,129546,89,89,684084,685589,679083,134079,679083,89,776293,777807,773294,685594,773294,visual_patterns,0,0,0,yes,1366
undefined,undefined,undefined,undefined,white,no,Mozilla,Netscape,"5.0 (Windows NT 10.0; Win64; x64) AppleWebKit/537.36 (KHTML, like Gecko) Chrome/98.0.4758.102 Safari/537.36 OPR/84.0.4316.21",xpyriment,legacy,legacy,0,uniform,0,0,0,0,24,24,24,0,0,74,74,74,74,74,0,74,0,13,13,13,13,13,0,13,28-01-22,28-01-22,15:19:18,Mon Feb 28 2022 15:19:18 GMT+0100 (közép-európai téli idő),The main experiment item,yes,0,0,C:/Users/rrics/Documents/!!ResearchBMECOGSCI/gnet,0,0,0,prototype3.png,no,mono,no,18,no,black,no,no,768,1155,3.5.6,legacy,xpyriment,osweb,1.3.13,0,space,space,space,space,33403,20675,62572,33403,2,legacy,680,1280,24,720,24,0,0,1280,1646058047515,1024,2,48000,-16,experiment,p2sarrshacol2.png,1,odd,Win32,89,132560,129546,89,89,684084,685589,679083,134079,679083,89,780818,782323,777817,685594,777817,visual_patterns,0,0,0,yes,1366
undefined,undefined,undefined,undefined,white,no,Mozilla,Netscape,"5.0 (Windows NT 10.0; Win64; x64) AppleWebKit/537.36 (KHTML, like Gecko) Chrome/98.0.4758.102 Safari/537.36 OPR/84.0.4316.21",xpyriment,legacy,legacy,0,uniform,0,0,0,0,24,24,24,0,0,74,74,74,74,74,0,74,0,14,14,14,14,14,0,14,28-01-22,28-01-22,15:19:18,Mon Feb 28 2022 15:19:18 GMT+0100 (közép-európai téli idő),The main experiment item,yes,0,0,C:/Users/rrics/Documents/!!ResearchBMECOGSCI/gnet,0,0,0,prototype3.png,no,mono,no,18,no,black,no,no,768,1155,3.5.6,legacy,xpyriment,osweb,1.3.13,0,space,space,space,space,33403,20675,62572,33403,2,legacy,680,1280,24,720,24,0,0,1280,1646058047515,1024,2,48000,-16,experiment,p6sarr1.png,1,odd,Win32,89,132560,129546,89,89,684084,685589,679083,134079,679083,89,785331,786838,782330,685594,782330,visual_patterns,0,0,0,yes,1366
undefined,undefined,undefined,undefined,white,no,Mozilla,Netscape,"5.0 (Windows NT 10.0; Win64; x64) AppleWebKit/537.36 (KHTML, like Gecko) Chrome/98.0.4758.102 Safari/537.36 OPR/84.0.4316.21",xpyriment,legacy,legacy,0,uniform,0,0,0,0,24,24,24,0,0,74,74,74,74,74,0,74,0,15,15,15,15,15,0,15,28-01-22,28-01-22,15:19:18,Mon Feb 28 2022 15:19:18 GMT+0100 (közép-európai téli idő),The main experiment item,yes,0,0,C:/Users/rrics/Documents/!!ResearchBMECOGSCI/gnet,0,0,0,prototype3.png,no,mono,no,18,no,black,no,no,768,1155,3.5.6,legacy,xpyriment,osweb,1.3.13,0,space,space,space,space,33403,20675,62572,33403,2,legacy,680,1280,24,720,24,0,0,1280,1646058047515,1024,2,48000,-16,experiment,p4sarrshacol3.png,1,odd,Win32,89,132560,129546,89,89,684084,685589,679083,134079,679083,89,789852,791353,786857,685594,786857,visual_patterns,0,0,0,yes,1366
undefined,undefined,undefined,undefined,white,no,Mozilla,Netscape,"5.0 (Windows NT 10.0; Win64; x64) AppleWebKit/537.36 (KHTML, like Gecko) Chrome/98.0.4758.102 Safari/537.36 OPR/84.0.4316.21",xpyriment,legacy,legacy,0,uniform,0,0,0,0,24,24,24,0,0,74,74,74,74,74,0,74,0,16,16,16,16,16,0,16,28-01-22,28-01-22,15:19:18,Mon Feb 28 2022 15:19:18 GMT+0100 (közép-európai téli idő),The main experiment item,yes,0,0,C:/Users/rrics/Documents/!!ResearchBMECOGSCI/gnet,0,0,0,prototype3.png,no,mono,no,18,no,black,no,no,768,1155,3.5.6,legacy,xpyriment,osweb,1.3.13,0,space,space,space,space,33403,20675,62572,33403,2,legacy,680,1280,24,720,24,0,0,1280,1646058047515,1024,2,48000,-16,experiment,p4sarrshacol4.png,1,odd,Win32,89,132560,129546,89,89,684084,685589,679083,134079,679083,89,794371,795885,791370,685594,791370,visual_patterns,0,0,0,yes,1366
undefined,undefined,undefined,undefined,white,no,Mozilla,Netscape,"5.0 (Windows NT 10.0; Win64; x64) AppleWebKit/537.36 (KHTML, like Gecko) Chrome/98.0.4758.102 Safari/537.36 OPR/84.0.4316.21",xpyriment,legacy,legacy,0,uniform,0,0,0,0,24,24,24,0,0,74,74,74,74,74,0,74,0,17,17,17,17,17,0,17,28-01-22,28-01-22,15:19:18,Mon Feb 28 2022 15:19:18 GMT+0100 (közép-európai téli idő),The main experiment item,yes,0,0,C:/Users/rrics/Documents/!!ResearchBMECOGSCI/gnet,0,0,0,prototype3.png,no,mono,no,18,no,black,no,no,768,1155,3.5.6,legacy,xpyriment,osweb,1.3.13,0,space,space,space,space,33403,20675,62572,33403,2,legacy,680,1280,24,720,24,0,0,1280,1646058047515,1024,2,48000,-16,experiment,p2sarrcol1.png,1,odd,Win32,89,132560,129546,89,89,684084,685589,679083,134079,679083,89,798911,800417,795909,685594,795909,visual_patterns,0,0,0,yes,1366
undefined,undefined,undefined,undefined,white,no,Mozilla,Netscape,"5.0 (Windows NT 10.0; Win64; x64) AppleWebKit/537.36 (KHTML, like Gecko) Chrome/98.0.4758.102 Safari/537.36 OPR/84.0.4316.21",xpyriment,legacy,legacy,0,uniform,0,0,0,0,24,24,24,0,0,74,74,74,74,74,0,74,0,18,18,18,18,18,0,18,28-01-22,28-01-22,15:19:18,Mon Feb 28 2022 15:19:18 GMT+0100 (közép-európai téli idő),The main experiment item,yes,0,0,C:/Users/rrics/Documents/!!ResearchBMECOGSCI/gnet,0,0,0,prototype3.png,no,mono,no,18,no,black,no,no,768,1155,3.5.6,legacy,xpyriment,osweb,1.3.13,0,space,space,space,space,33403,20675,62572,33403,2,legacy,680,1280,24,720,24,0,0,1280,1646058047515,1024,2,48000,-16,experiment,p1sarr4.png,1,odd,Win32,89,132560,129546,89,89,684084,685589,679083,134079,679083,89,803437,804949,800435,685594,800435,visual_patterns,0,0,0,yes,1366
undefined,undefined,undefined,undefined,white,no,Mozilla,Netscape,"5.0 (Windows NT 10.0; Win64; x64) AppleWebKit/537.36 (KHTML, like Gecko) Chrome/98.0.4758.102 Safari/537.36 OPR/84.0.4316.21",xpyriment,legacy,legacy,0,uniform,0,0,0,0,24,24,24,0,0,74,74,74,74,74,0,74,0,19,19,19,19,19,0,19,28-01-22,28-01-22,15:19:18,Mon Feb 28 2022 15:19:18 GMT+0100 (közép-európai téli idő),The main experiment item,yes,0,0,C:/Users/rrics/Documents/!!ResearchBMECOGSCI/gnet,0,0,0,prototype3.png,no,mono,no,18,no,black,no,no,768,1155,3.5.6,legacy,xpyriment,osweb,1.3.13,0,space,space,space,space,33403,20675,62572,33403,2,legacy,680,1280,24,720,24,0,0,1280,1646058047515,1024,2,48000,-16,experiment,p10sarr1.png,1,odd,Win32,89,132560,129546,89,89,684084,685589,679083,134079,679083,89,807968,809480,804966,685594,804966,visual_patterns,0,0,0,yes,1366
undefined,undefined,undefined,undefined,white,no,Mozilla,Netscape,"5.0 (Windows NT 10.0; Win64; x64) AppleWebKit/537.36 (KHTML, like Gecko) Chrome/98.0.4758.102 Safari/537.36 OPR/84.0.4316.21",xpyriment,legacy,legacy,0,uniform,0,0,0,0,24,24,24,0,0,74,74,74,74,74,0,74,0,20,20,20,20,20,0,20,28-01-22,28-01-22,15:19:18,Mon Feb 28 2022 15:19:18 GMT+0100 (közép-európai téli idő),The main experiment item,yes,0,0,C:/Users/rrics/Documents/!!ResearchBMECOGSCI/gnet,0,0,0,prototype3.png,no,mono,no,18,no,black,no,no,768,1155,3.5.6,legacy,xpyriment,osweb,1.3.13,0,space,space,space,space,33403,20675,62572,33403,2,legacy,680,1280,24,720,24,0,0,1280,1646058047515,1024,2,48000,-16,experiment,p8sarr3.png,1,odd,Win32,89,132560,129546,89,89,684084,685589,679083,134079,679083,89,812490,813995,809490,685594,809490,visual_patterns,0,0,0,yes,1366
undefined,undefined,undefined,undefined,white,no,Mozilla,Netscape,"5.0 (Windows NT 10.0; Win64; x64) AppleWebKit/537.36 (KHTML, like Gecko) Chrome/98.0.4758.102 Safari/537.36 OPR/84.0.4316.21",xpyriment,legacy,legacy,0,uniform,0,0,0,0,24,24,24,0,0,74,74,74,74,74,0,74,0,21,21,21,21,21,0,21,28-01-22,28-01-22,15:19:18,Mon Feb 28 2022 15:19:18 GMT+0100 (közép-európai téli idő),The main experiment item,yes,0,0,C:/Users/rrics/Documents/!!ResearchBMECOGSCI/gnet,0,0,0,prototype3.png,no,mono,no,18,no,black,no,no,768,1155,3.5.6,legacy,xpyriment,osweb,1.3.13,0,space,space,space,space,33403,20675,62572,33403,2,legacy,680,1280,24,720,24,0,0,1280,1646058047515,1024,2,48000,-16,experiment,p9sarr4.png,1,odd,Win32,89,132560,129546,89,89,684084,685589,679083,134079,679083,89,817013,818527,814013,685594,814013,visual_patterns,0,0,0,yes,1366
undefined,undefined,undefined,undefined,white,no,Mozilla,Netscape,"5.0 (Windows NT 10.0; Win64; x64) AppleWebKit/537.36 (KHTML, like Gecko) Chrome/98.0.4758.102 Safari/537.36 OPR/84.0.4316.21",xpyriment,legacy,legacy,0,uniform,0,0,0,0,24,24,24,0,0,74,74,74,74,74,0,74,0,22,22,22,22,22,0,22,28-01-22,28-01-22,15:19:18,Mon Feb 28 2022 15:19:18 GMT+0100 (közép-európai téli idő),The main experiment item,yes,0,0,C:/Users/rrics/Documents/!!ResearchBMECOGSCI/gnet,0,0,0,prototype3.png,no,mono,no,18,no,black,no,no,768,1155,3.5.6,legacy,xpyriment,osweb,1.3.13,0,space,space,space,space,33403,20675,62572,33403,2,legacy,680,1280,24,720,24,0,0,1280,1646058047515,1024,2,48000,-16,experiment,p5sarrcol2.png,1,odd,Win32,89,132560,129546,89,89,684084,685589,679083,134079,679083,89,821551,823059,818550,685594,818550,visual_patterns,0,0,0,yes,1366
undefined,undefined,undefined,undefined,white,no,Mozilla,Netscape,"5.0 (Windows NT 10.0; Win64; x64) AppleWebKit/537.36 (KHTML, like Gecko) Chrome/98.0.4758.102 Safari/537.36 OPR/84.0.4316.21",xpyriment,legacy,legacy,0,uniform,0,0,0,0,24,24,24,0,0,74,74,74,74,74,0,74,0,23,23,23,23,23,0,23,28-01-22,28-01-22,15:19:18,Mon Feb 28 2022 15:19:18 GMT+0100 (közép-európai téli idő),The main experiment item,yes,0,0,C:/Users/rrics/Documents/!!ResearchBMECOGSCI/gnet,0,0,0,prototype3.png,no,mono,no,18,no,black,no,no,768,1155,3.5.6,legacy,xpyriment,osweb,1.3.13,0,space,space,space,space,33403,20675,62572,33403,2,legacy,680,1280,24,720,24,0,0,1280,1646058047515,1024,2,48000,-16,experiment,p7sarr4.png,1,odd,Win32,89,132560,129546,89,89,684084,685589,679083,134079,679083,89,826073,827574,823075,685594,823075,visual_patterns,0,0,0,yes,1366
undefined,undefined,undefined,undefined,white,no,Mozilla,Netscape,"5.0 (Windows NT 10.0; Win64; x64) AppleWebKit/537.36 (KHTML, like Gecko) Chrome/98.0.4758.102 Safari/537.36 OPR/84.0.4316.21",xpyriment,legacy,legacy,0,uniform,0,0,0,0,24,24,24,0,0,74,74,74,74,74,0,74,0,24,24,24,24,24,0,24,28-01-22,28-01-22,15:19:18,Mon Feb 28 2022 15:19:18 GMT+0100 (közép-európai téli idő),The main experiment item,yes,0,0,C:/Users/rrics/Documents/!!ResearchBMECOGSCI/gnet,0,0,0,prototype3.png,no,mono,no,18,no,black,no,no,768,1155,3.5.6,legacy,xpyriment,osweb,1.3.13,0,space,space,space,space,33403,20675,62572,33403,2,legacy,680,1280,24,720,24,0,0,1280,1646058047515,1024,2,48000,-16,experiment,p3sarrsha3.png,1,odd,Win32,89,132560,129546,89,89,684084,685589,679083,134079,679083,89,830590,832106,827586,685594,827586,visual_patterns,0,0,0,yes,1366
undefined,undefined,undefined,undefined,white,no,Mozilla,Netscape,"5.0 (Windows NT 10.0; Win64; x64) AppleWebKit/537.36 (KHTML, like Gecko) Chrome/98.0.4758.102 Safari/537.36 OPR/84.0.4316.21",xpyriment,legacy,legacy,0,uniform,0,0,0,0,24,24,24,0,0,74,74,74,74,74,0,74,0,25,25,25,25,25,0,25,28-01-22,28-01-22,15:19:18,Mon Feb 28 2022 15:19:18 GMT+0100 (közép-európai téli idő),The main experiment item,yes,0,0,C:/Users/rrics/Documents/!!ResearchBMECOGSCI/gnet,0,0,0,prototype3.png,no,mono,no,18,no,black,no,no,768,1155,3.5.6,legacy,xpyriment,osweb,1.3.13,0,space,space,space,space,33403,20675,62572,33403,2,legacy,680,1280,24,720,24,0,0,1280,1646058047515,1024,2,48000,-16,experiment,p8sarr4.png,1,odd,Win32,89,132560,129546,89,89,684084,685589,679083,134079,679083,89,835118,836621,832121,685594,832121,visual_patterns,0,0,0,yes,1366
undefined,undefined,undefined,undefined,white,no,Mozilla,Netscape,"5.0 (Windows NT 10.0; Win64; x64) AppleWebKit/537.36 (KHTML, like Gecko) Chrome/98.0.4758.102 Safari/537.36 OPR/84.0.4316.21",xpyriment,legacy,legacy,0,uniform,0,0,0,0,24,24,24,0,0,74,74,74,74,74,0,74,0,26,26,26,26,26,0,26,28-01-22,28-01-22,15:19:18,Mon Feb 28 2022 15:19:18 GMT+0100 (közép-európai téli idő),The main experiment item,yes,0,0,C:/Users/rrics/Documents/!!ResearchBMECOGSCI/gnet,0,0,0,prototype3.png,no,mono,no,18,no,black,no,no,768,1155,3.5.6,legacy,xpyriment,osweb,1.3.13,0,space,space,space,space,33403,20675,62572,33403,2,legacy,680,1280,24,720,24,0,0,1280,1646058047515,1024,2,48000,-16,experiment,p2sarrshacol4.png,1,odd,Win32,89,132560,129546,89,89,684084,685589,679083,134079,679083,89,839631,841136,836630,685594,836630,visual_patterns,0,0,0,yes,1366
undefined,undefined,undefined,undefined,white,no,Mozilla,Netscape,"5.0 (Windows NT 10.0; Win64; x64) AppleWebKit/537.36 (KHTML, like Gecko) Chrome/98.0.4758.102 Safari/537.36 OPR/84.0.4316.21",xpyriment,legacy,legacy,0,uniform,0,0,0,0,24,24,24,0,0,74,74,74,74,74,0,74,0,27,27,27,27,27,0,27,28-01-22,28-01-22,15:19:18,Mon Feb 28 2022 15:19:18 GMT+0100 (közép-európai téli idő),The main experiment item,yes,0,0,C:/Users/rrics/Documents/!!ResearchBMECOGSCI/gnet,0,0,0,prototype3.png,no,mono,no,18,no,black,no,no,768,1155,3.5.6,legacy,xpyriment,osweb,1.3.13,0,space,space,space,space,33403,20675,62572,33403,2,legacy,680,1280,24,720,24,0,0,1280,1646058047515,1024,2,48000,-16,experiment,p4sarrshacol1.png,1,odd,Win32,89,132560,129546,89,89,684084,685589,679083,134079,679083,89,844159,845668,841159,685594,841159,visual_patterns,0,0,0,yes,1366
undefined,undefined,undefined,undefined,white,no,Mozilla,Netscape,"5.0 (Windows NT 10.0; Win64; x64) AppleWebKit/537.36 (KHTML, like Gecko) Chrome/98.0.4758.102 Safari/537.36 OPR/84.0.4316.21",xpyriment,legacy,legacy,0,uniform,0,0,0,0,24,24,24,0,0,74,74,74,74,74,0,74,0,28,28,28,28,28,0,28,28-01-22,28-01-22,15:19:18,Mon Feb 28 2022 15:19:18 GMT+0100 (közép-európai téli idő),The main experiment item,yes,0,0,C:/Users/rrics/Documents/!!ResearchBMECOGSCI/gnet,0,0,0,prototype3.png,no,mono,no,18,no,black,no,no,768,1155,3.5.6,legacy,xpyriment,osweb,1.3.13,0,space,space,space,space,33403,20675,62572,33403,2,legacy,680,1280,24,720,24,0,0,1280,1646058047515,1024,2,48000,-16,experiment,p1sarrshacol3.png,1,odd,Win32,89,132560,129546,89,89,684084,685589,679083,134079,679083,89,848683,850200,845686,685594,845686,visual_patterns,0,0,0,yes,1366
undefined,undefined,undefined,undefined,white,no,Mozilla,Netscape,"5.0 (Windows NT 10.0; Win64; x64) AppleWebKit/537.36 (KHTML, like Gecko) Chrome/98.0.4758.102 Safari/537.36 OPR/84.0.4316.21",xpyriment,legacy,legacy,0,uniform,0,0,0,0,24,24,24,0,0,74,74,74,74,74,0,74,0,29,29,29,29,29,0,29,28-01-22,28-01-22,15:19:18,Mon Feb 28 2022 15:19:18 GMT+0100 (közép-európai téli idő),The main experiment item,yes,0,0,C:/Users/rrics/Documents/!!ResearchBMECOGSCI/gnet,0,0,0,prototype3.png,no,mono,no,18,no,black,no,no,768,1155,3.5.6,legacy,xpyriment,osweb,1.3.13,0,space,space,space,space,33403,20675,62572,33403,2,legacy,680,1280,24,720,24,0,0,1280,1646058047515,1024,2,48000,-16,experiment,p2sarrsha1.png,1,odd,Win32,89,132560,129546,89,89,684084,685589,679083,134079,679083,89,853212,854715,850209,685594,850209,visual_patterns,0,0,0,yes,1366
undefined,undefined,undefined,undefined,white,no,Mozilla,Netscape,"5.0 (Windows NT 10.0; Win64; x64) AppleWebKit/537.36 (KHTML, like Gecko) Chrome/98.0.4758.102 Safari/537.36 OPR/84.0.4316.21",xpyriment,legacy,legacy,0,uniform,0,0,0,0,24,24,24,0,0,74,74,74,74,74,0,74,0,30,30,30,30,30,0,30,28-01-22,28-01-22,15:19:18,Mon Feb 28 2022 15:19:18 GMT+0100 (közép-európai téli idő),The main experiment item,yes,0,0,C:/Users/rrics/Documents/!!ResearchBMECOGSCI/gnet,0,0,0,prototype3.png,no,mono,no,18,no,black,no,no,768,1155,3.5.6,legacy,xpyriment,osweb,1.3.13,0,space,space,space,space,33403,20675,62572,33403,2,legacy,680,1280,24,720,24,0,0,1280,1646058047515,1024,2,48000,-16,experiment,p3sarr2.png,1,odd,Win32,89,132560,129546,89,89,684084,685589,679083,134079,679083,89,857732,859247,854731,685594,854731,visual_patterns,0,0,0,yes,1366
undefined,undefined,undefined,undefined,white,no,Mozilla,Netscape,"5.0 (Windows NT 10.0; Win64; x64) AppleWebKit/537.36 (KHTML, like Gecko) Chrome/98.0.4758.102 Safari/537.36 OPR/84.0.4316.21",xpyriment,legacy,legacy,0,uniform,0,0,0,0,24,24,24,0,0,74,74,74,74,74,0,74,0,31,31,31,31,31,0,31,28-01-22,28-01-22,15:19:18,Mon Feb 28 2022 15:19:18 GMT+0100 (közép-európai téli idő),The main experiment item,yes,0,0,C:/Users/rrics/Documents/!!ResearchBMECOGSCI/gnet,0,0,0,prototype3.png,no,mono,no,18,no,black,no,no,768,1155,3.5.6,legacy,xpyriment,osweb,1.3.13,0,space,space,space,space,33403,20675,62572,33403,2,legacy,680,1280,24,720,24,0,0,1280,1646058047515,1024,2,48000,-16,experiment,p3sarrshacol3.png,1,odd,Win32,89,132560,129546,89,89,684084,685589,679083,134079,679083,89,862261,863762,859264,685594,859264,visual_patterns,0,0,0,yes,1366
undefined,undefined,undefined,undefined,white,no,Mozilla,Netscape,"5.0 (Windows NT 10.0; Win64; x64) AppleWebKit/537.36 (KHTML, like Gecko) Chrome/98.0.4758.102 Safari/537.36 OPR/84.0.4316.21",xpyriment,legacy,legacy,0,uniform,0,0,0,0,24,24,24,0,0,74,74,74,74,74,0,74,0,32,32,32,32,32,0,32,28-01-22,28-01-22,15:19:18,Mon Feb 28 2022 15:19:18 GMT+0100 (közép-európai téli idő),The main experiment item,yes,0,0,C:/Users/rrics/Documents/!!ResearchBMECOGSCI/gnet,0,0,0,prototype3.png,no,mono,no,18,no,black,no,no,768,1155,3.5.6,legacy,xpyriment,osweb,1.3.13,0,space,space,space,space,33403,20675,62572,33403,2,legacy,680,1280,24,720,24,0,0,1280,1646058047515,1024,2,48000,-16,experiment,p2sarrcol4.png,1,odd,Win32,89,132560,129546,89,89,684084,685589,679083,134079,679083,89,866775,868277,863774,685594,863774,visual_patterns,0,0,0,yes,1366
undefined,undefined,undefined,undefined,white,no,Mozilla,Netscape,"5.0 (Windows NT 10.0; Win64; x64) AppleWebKit/537.36 (KHTML, like Gecko) Chrome/98.0.4758.102 Safari/537.36 OPR/84.0.4316.21",xpyriment,legacy,legacy,0,uniform,0,0,0,0,24,24,24,0,0,74,74,74,74,74,0,74,0,33,33,33,33,33,0,33,28-01-22,28-01-22,15:19:18,Mon Feb 28 2022 15:19:18 GMT+0100 (közép-európai téli idő),The main experiment item,yes,0,0,C:/Users/rrics/Documents/!!ResearchBMECOGSCI/gnet,0,0,0,prototype3.png,no,mono,no,18,no,black,no,no,768,1155,3.5.6,legacy,xpyriment,osweb,1.3.13,0,space,space,space,space,33403,20675,62572,33403,2,legacy,680,1280,24,720,24,0,0,1280,1646058047515,1024,2,48000,-16,experiment,p5sarrcol1.png,1,odd,Win32,89,132560,129546,89,89,684084,685589,679083,134079,679083,89,871288,872792,868287,685594,868287,visual_patterns,0,0,0,yes,1366
undefined,undefined,undefined,undefined,white,no,Mozilla,Netscape,"5.0 (Windows NT 10.0; Win64; x64) AppleWebKit/537.36 (KHTML, like Gecko) Chrome/98.0.4758.102 Safari/537.36 OPR/84.0.4316.21",xpyriment,legacy,legacy,0,uniform,0,0,0,0,24,24,24,0,0,74,74,74,74,74,0,74,0,34,34,34,34,34,0,34,28-01-22,28-01-22,15:19:18,Mon Feb 28 2022 15:19:18 GMT+0100 (közép-európai téli idő),The main experiment item,yes,0,0,C:/Users/rrics/Documents/!!ResearchBMECOGSCI/gnet,0,0,0,prototype3.png,no,mono,no,18,no,black,no,no,768,1155,3.5.6,legacy,xpyriment,osweb,1.3.13,0,space,space,space,space,33403,20675,62572,33403,2,legacy,680,1280,24,720,24,0,0,1280,1646058047515,1024,2,48000,-16,experiment,p8sarr2.png,1,odd,Win32,89,132560,129546,89,89,684084,685589,679083,134079,679083,89,875799,877307,872797,685594,872797,visual_patterns,0,0,0,yes,1366
undefined,undefined,undefined,undefined,white,no,Mozilla,Netscape,"5.0 (Windows NT 10.0; Win64; x64) AppleWebKit/537.36 (KHTML, like Gecko) Chrome/98.0.4758.102 Safari/537.36 OPR/84.0.4316.21",xpyriment,legacy,legacy,0,uniform,0,0,0,0,24,24,24,0,0,74,74,74,74,74,0,74,0,35,35,35,35,35,0,35,28-01-22,28-01-22,15:19:18,Mon Feb 28 2022 15:19:18 GMT+0100 (közép-európai téli idő),The main experiment item,yes,0,0,C:/Users/rrics/Documents/!!ResearchBMECOGSCI/gnet,0,0,0,prototype3.png,no,mono,no,18,no,black,no,no,768,1155,3.5.6,legacy,xpyriment,osweb,1.3.13,0,space,space,space,space,33403,20675,62572,33403,2,legacy,680,1280,24,720,24,0,0,1280,1646058047515,1024,2,48000,-16,experiment,p5sarr3.png,1,odd,Win32,89,132560,129546,89,89,684084,685589,679083,134079,679083,89,880317,881823,877318,685594,877318,visual_patterns,0,0,0,yes,1366
undefined,undefined,undefined,undefined,white,no,Mozilla,Netscape,"5.0 (Windows NT 10.0; Win64; x64) AppleWebKit/537.36 (KHTML, like Gecko) Chrome/98.0.4758.102 Safari/537.36 OPR/84.0.4316.21",xpyriment,legacy,legacy,0,uniform,0,0,0,0,24,24,24,0,0,74,74,74,74,74,0,74,0,36,36,36,36,36,0,36,28-01-22,28-01-22,15:19:18,Mon Feb 28 2022 15:19:18 GMT+0100 (közép-európai téli idő),The main experiment item,yes,0,0,C:/Users/rrics/Documents/!!ResearchBMECOGSCI/gnet,0,0,0,prototype3.png,no,mono,no,18,no,black,no,no,768,1155,3.5.6,legacy,xpyriment,osweb,1.3.13,0,space,space,space,space,33403,20675,62572,33403,2,legacy,680,1280,24,720,24,0,0,1280,1646058047515,1024,2,48000,-16,experiment,p7sarr1.png,1,odd,Win32,89,132560,129546,89,89,684084,685589,679083,134079,679083,89,884836,886338,881835,685594,881835,visual_patterns,0,0,0,yes,1366
undefined,undefined,undefined,undefined,white,no,Mozilla,Netscape,"5.0 (Windows NT 10.0; Win64; x64) AppleWebKit/537.36 (KHTML, like Gecko) Chrome/98.0.4758.102 Safari/537.36 OPR/84.0.4316.21",xpyriment,legacy,legacy,0,uniform,0,0,0,0,24,24,24,0,0,74,74,74,74,74,0,74,0,37,37,37,37,37,0,37,28-01-22,28-01-22,15:19:18,Mon Feb 28 2022 15:19:18 GMT+0100 (közép-európai téli idő),The main experiment item,yes,0,0,C:/Users/rrics/Documents/!!ResearchBMECOGSCI/gnet,0,0,0,prototype3.png,no,mono,no,18,no,black,no,no,768,1155,3.5.6,legacy,xpyriment,osweb,1.3.13,0,space,space,space,space,33403,20675,62572,33403,2,legacy,680,1280,24,720,24,0,0,1280,1646058047515,1024,2,48000,-16,experiment,p1sarrcol4.png,1,odd,Win32,89,132560,129546,89,89,684084,685589,679083,134079,679083,89,889357,890869,886355,685594,886355,visual_patterns,0,0,0,yes,1366
undefined,undefined,undefined,undefined,white,no,Mozilla,Netscape,"5.0 (Windows NT 10.0; Win64; x64) AppleWebKit/537.36 (KHTML, like Gecko) Chrome/98.0.4758.102 Safari/537.36 OPR/84.0.4316.21",xpyriment,legacy,legacy,0,uniform,0,0,0,0,24,24,24,0,0,74,74,74,74,74,0,74,0,38,38,38,38,38,0,38,28-01-22,28-01-22,15:19:18,Mon Feb 28 2022 15:19:18 GMT+0100 (közép-európai téli idő),The main experiment item,yes,0,0,C:/Users/rrics/Documents/!!ResearchBMECOGSCI/gnet,0,0,0,prototype3.png,no,mono,no,18,no,black,no,no,768,1155,3.5.6,legacy,xpyriment,osweb,1.3.13,0,space,space,space,space,33403,20675,62572,33403,2,legacy,680,1280,24,720,24,0,0,1280,1646058047515,1024,2,48000,-16,experiment,p3sarrsha4.png,1,odd,Win32,89,132560,129546,89,89,684084,685589,679083,134079,679083,89,893878,895384,890878,685594,890878,visual_patterns,0,0,0,yes,1366
undefined,undefined,undefined,undefined,white,no,Mozilla,Netscape,"5.0 (Windows NT 10.0; Win64; x64) AppleWebKit/537.36 (KHTML, like Gecko) Chrome/98.0.4758.102 Safari/537.36 OPR/84.0.4316.21",xpyriment,legacy,legacy,0,uniform,0,0,0,0,24,24,24,0,0,74,74,74,74,74,0,74,0,39,39,39,39,39,0,39,28-01-22,28-01-22,15:19:18,Mon Feb 28 2022 15:19:18 GMT+0100 (közép-európai téli idő),The main experiment item,yes,0,0,C:/Users/rrics/Documents/!!ResearchBMECOGSCI/gnet,0,0,0,prototype3.png,no,mono,no,18,no,black,no,no,768,1155,3.5.6,legacy,xpyriment,osweb,1.3.13,0,space,space,space,space,33403,20675,62572,33403,2,legacy,680,1280,24,720,24,0,0,1280,1646058047515,1024,2,48000,-16,experiment,p3sarr1.png,1,odd,Win32,89,132560,129546,89,89,684084,685589,679083,134079,679083,89,898393,899900,895393,685594,895393,visual_patterns,0,0,0,yes,1366
undefined,undefined,undefined,undefined,white,no,Mozilla,Netscape,"5.0 (Windows NT 10.0; Win64; x64) AppleWebKit/537.36 (KHTML, like Gecko) Chrome/98.0.4758.102 Safari/537.36 OPR/84.0.4316.21",xpyriment,legacy,legacy,0,uniform,0,0,0,0,24,24,24,0,0,74,74,74,74,74,0,74,0,40,40,40,40,40,0,40,28-01-22,28-01-22,15:19:18,Mon Feb 28 2022 15:19:18 GMT+0100 (közép-európai téli idő),The main experiment item,yes,0,0,C:/Users/rrics/Documents/!!ResearchBMECOGSCI/gnet,0,0,0,prototype3.png,no,mono,no,18,no,black,no,no,768,1155,3.5.6,legacy,xpyriment,osweb,1.3.13,0,space,space,space,space,33403,20675,62572,33403,2,legacy,680,1280,24,720,24,0,0,1280,1646058047515,1024,2,48000,-16,experiment,p2sarrsha3.png,1,odd,Win32,89,132560,129546,89,89,684084,685589,679083,134079,679083,89,902911,904415,899909,685594,899909,visual_patterns,0,0,0,yes,1366
undefined,undefined,undefined,undefined,white,no,Mozilla,Netscape,"5.0 (Windows NT 10.0; Win64; x64) AppleWebKit/537.36 (KHTML, like Gecko) Chrome/98.0.4758.102 Safari/537.36 OPR/84.0.4316.21",xpyriment,legacy,legacy,0,uniform,0,0,0,0,24,24,24,0,0,74,74,74,74,74,0,74,0,41,41,41,41,41,0,41,28-01-22,28-01-22,15:19:18,Mon Feb 28 2022 15:19:18 GMT+0100 (közép-európai téli idő),The main experiment item,yes,0,0,C:/Users/rrics/Documents/!!ResearchBMECOGSCI/gnet,0,0,0,prototype3.png,no,mono,no,18,no,black,no,no,768,1155,3.5.6,legacy,xpyriment,osweb,1.3.13,0,space,space,space,space,33403,20675,62572,33403,2,legacy,680,1280,24,720,24,0,0,1280,1646058047515,1024,2,48000,-16,experiment,p9sarr3.png,1,odd,Win32,89,132560,129546,89,89,684084,685589,679083,134079,679083,89,907424,908930,904424,685594,904424,visual_patterns,0,0,0,yes,1366
undefined,undefined,undefined,undefined,white,no,Mozilla,Netscape,"5.0 (Windows NT 10.0; Win64; x64) AppleWebKit/537.36 (KHTML, like Gecko) Chrome/98.0.4758.102 Safari/537.36 OPR/84.0.4316.21",xpyriment,legacy,legacy,0,uniform,0,0,0,0,24,24,24,0,0,74,74,74,74,74,0,74,0,42,42,42,42,42,0,42,28-01-22,28-01-22,15:19:18,Mon Feb 28 2022 15:19:18 GMT+0100 (közép-európai téli idő),The main experiment item,yes,0,0,C:/Users/rrics/Documents/!!ResearchBMECOGSCI/gnet,0,0,0,prototype3.png,no,mono,no,18,no,black,no,no,768,1155,3.5.6,legacy,xpyriment,osweb,1.3.13,0,space,space,space,space,33403,20675,62572,33403,2,legacy,680,1280,24,720,24,0,0,1280,1646058047515,1024,2,48000,-16,experiment,p10sarr4.png,1,odd,Win32,89,132560,129546,89,89,684084,685589,679083,134079,679083,89,911948,913462,908947,685594,908947,visual_patterns,0,0,0,yes,1366
undefined,undefined,undefined,undefined,white,no,Mozilla,Netscape,"5.0 (Windows NT 10.0; Win64; x64) AppleWebKit/537.36 (KHTML, like Gecko) Chrome/98.0.4758.102 Safari/537.36 OPR/84.0.4316.21",xpyriment,legacy,legacy,0,uniform,0,0,0,0,24,24,24,0,0,74,74,74,74,74,0,74,0,43,43,43,43,43,0,43,28-01-22,28-01-22,15:19:18,Mon Feb 28 2022 15:19:18 GMT+0100 (közép-európai téli idő),The main experiment item,yes,0,0,C:/Users/rrics/Documents/!!ResearchBMECOGSCI/gnet,0,0,0,prototype3.png,no,mono,no,18,no,black,no,no,768,1155,3.5.6,legacy,xpyriment,osweb,1.3.13,0,space,space,space,space,33403,20675,62572,33403,2,legacy,680,1280,24,720,24,0,0,1280,1646058047515,1024,2,48000,-16,experiment,p4sarrcol1.png,1,odd,Win32,89,132560,129546,89,89,684084,685589,679083,134079,679083,89,916475,917977,913476,685594,913476,visual_patterns,0,0,0,yes,1366
undefined,undefined,undefined,undefined,white,no,Mozilla,Netscape,"5.0 (Windows NT 10.0; Win64; x64) AppleWebKit/537.36 (KHTML, like Gecko) Chrome/98.0.4758.102 Safari/537.36 OPR/84.0.4316.21",xpyriment,legacy,legacy,0,uniform,0,0,0,0,24,24,24,0,0,74,74,74,74,74,0,74,0,44,44,44,44,44,0,44,28-01-22,28-01-22,15:19:18,Mon Feb 28 2022 15:19:18 GMT+0100 (közép-európai téli idő),The main experiment item,yes,0,0,C:/Users/rrics/Documents/!!ResearchBMECOGSCI/gnet,0,0,0,prototype3.png,no,mono,no,18,no,black,no,no,768,1155,3.5.6,legacy,xpyriment,osweb,1.3.13,0,space,space,space,space,33403,20675,62572,33403,2,legacy,680,1280,24,720,24,0,0,1280,1646058047515,1024,2,48000,-16,experiment,p5sarrshacol4.png,1,odd,Win32,89,132560,129546,89,89,684084,685589,679083,134079,679083,89,920994,922508,917993,685594,917993,visual_patterns,0,0,0,yes,1366
undefined,undefined,undefined,undefined,white,no,Mozilla,Netscape,"5.0 (Windows NT 10.0; Win64; x64) AppleWebKit/537.36 (KHTML, like Gecko) Chrome/98.0.4758.102 Safari/537.36 OPR/84.0.4316.21",xpyriment,legacy,legacy,0,uniform,0,0,0,0,24,24,24,0,0,74,74,74,74,74,0,74,0,45,45,45,45,45,0,45,28-01-22,28-01-22,15:19:18,Mon Feb 28 2022 15:19:18 GMT+0100 (közép-európai téli idő),The main experiment item,yes,0,0,C:/Users/rrics/Documents/!!ResearchBMECOGSCI/gnet,0,0,0,prototype3.png,no,mono,no,18,no,black,no,no,768,1155,3.5.6,legacy,xpyriment,osweb,1.3.13,0,space,space,space,space,33403,20675,62572,33403,2,legacy,680,1280,24,720,24,0,0,1280,1646058047515,1024,2,48000,-16,experiment,p3sarr3.png,1,odd,Win32,89,132560,129546,89,89,684084,685589,679083,134079,679083,89,925525,927041,922525,685594,922525,visual_patterns,0,0,0,yes,1366
undefined,undefined,undefined,undefined,white,no,Mozilla,Netscape,"5.0 (Windows NT 10.0; Win64; x64) AppleWebKit/537.36 (KHTML, like Gecko) Chrome/98.0.4758.102 Safari/537.36 OPR/84.0.4316.21",xpyriment,legacy,legacy,0,uniform,0,0,0,0,24,24,24,0,0,74,74,74,74,74,0,74,0,46,46,46,46,46,0,46,28-01-22,28-01-22,15:19:18,Mon Feb 28 2022 15:19:18 GMT+0100 (közép-európai téli idő),The main experiment item,yes,0,0,C:/Users/rrics/Documents/!!ResearchBMECOGSCI/gnet,0,0,0,prototype3.png,no,mono,no,18,no,black,no,no,768,1155,3.5.6,legacy,xpyriment,osweb,1.3.13,0,space,space,space,space,33403,20675,62572,33403,2,legacy,680,1280,24,720,24,0,0,1280,1646058047515,1024,2,48000,-16,experiment,p2sarr3.png,1,odd,Win32,89,132560,129546,89,89,684084,685589,679083,134079,679083,89,930059,931573,927059,685594,927059,visual_patterns,0,0,0,yes,1366
