acc,accuracy,average_response_time,avg_rt,background,bidi,browser_codename,browser_name,browser_version,canvas_backend,clock_backend,color_backend,compensation,coordinates,count_end,count_experiment,count_osweb,count_prestudy,count_prestudy_isi,count_prestudy_sequence,count_prestudy_stimpres,count_start,count_study,count_study_coroutines,count_study_isi,count_study_logger,count_study_response,count_study_sequence,count_study_start,count_study_stimpres,count_test,count_test_coroutines,count_test_isi,count_test_logger,count_test_response,count_test_sequence,count_test_start,count_test_stimpres,date_startdate,date_startdateUTC,date_starttime,datetime,description,disable_garbage_collection,experiment_debug,experiment_parameters,experiment_path,experiment_pilot,experiment_taskname,experiment_taskversion,fampict,font_bold,font_family,font_italic,font_size,font_underline,foreground,form_clicks,fullscreen,height,jatosStudyResultId,jatosVersion,keyboard_backend,mouse_backend,opensesame_codename,opensesame_version,repeat_cycle,response,response_start,response_study_start,response_test_start,response_time,response_time_start,response_time_study_start,response_time_test_start,round_decimals,sampler_backend,screen_availableHeight,screen_availableWidth,screen_colorDepth,screen_height,screen_pixelDepth,screen_screenX,screen_screenY,screen_width,sessionid,sound_buf_size,sound_channels,sound_freq,sound_sample_size,start,stim,subject_nr,subject_parity,system_os,time_prestudy,time_prestudy_isi,time_prestudy_stimpres,time_start,time_study,time_study_isi,time_study_logger,time_study_response,time_study_start,time_study_stimpres,time_test,time_test_isi,time_test_logger,time_test_response,time_test_start,time_test_stimpres,title,total_correct,total_response_time,total_responses,uniform_coordinates,width
undefined,undefined,undefined,undefined,white,no,Mozilla,Netscape,"5.0 (Windows NT 10.0; Win64; x64) AppleWebKit/537.36 (KHTML, like Gecko) Chrome/98.0.4758.102 Safari/537.36",xpyriment,legacy,legacy,0,uniform,0,0,0,0,24,24,24,0,0,0,0,0,0,0,0,0,0,,,,,,0,,28-01-22,28-01-22,15:33:50,Mon Feb 28 2022 15:33:50 GMT+0100 (közép-európai téli idő),The main experiment item,yes,0,0,C:/Users/rrics/Documents/!!ResearchBMECOGSCI/gnet,0,0,0,prototype4.png,no,mono,no,18,no,black,no,no,768,1157,3.5.6,legacy,xpyriment,osweb,1.3.13,0,space,space,space,,23411,18569,23411,,2,legacy,1020,1680,24,1050,24,0,0,1680,1646058923091,1024,2,48000,-16,experiment,p6sarr1.png,1,odd,Win32,72,129953,126949,72,72,159881,161383,154878,131455,154878,72,,,,,,visual_patterns,0,0,0,yes,1366
undefined,undefined,undefined,undefined,white,no,Mozilla,Netscape,"5.0 (Windows NT 10.0; Win64; x64) AppleWebKit/537.36 (KHTML, like Gecko) Chrome/98.0.4758.102 Safari/537.36",xpyriment,legacy,legacy,0,uniform,0,0,0,0,24,24,24,0,0,1,1,1,1,1,0,1,0,,,,,,0,,28-01-22,28-01-22,15:33:50,Mon Feb 28 2022 15:33:50 GMT+0100 (közép-európai téli idő),The main experiment item,yes,0,0,C:/Users/rrics/Documents/!!ResearchBMECOGSCI/gnet,0,0,0,prototype4.png,no,mono,no,18,no,black,no,no,768,1157,3.5.6,legacy,xpyriment,osweb,1.3.13,0,space,space,space,,23411,18569,23411,,2,legacy,1020,1680,24,1050,24,0,0,1680,1646058923091,1024,2,48000,-16,experiment,prototype3.png,1,odd,Win32,72,129953,126949,72,72,166401,167913,161398,131455,161398,72,,,,,,visual_patterns,0,0,0,yes,1366
undefined,undefined,undefined,undefined,white,no,Mozilla,Netscape,"5.0 (Windows NT 10.0; Win64; x64) AppleWebKit/537.36 (KHTML, like Gecko) Chrome/98.0.4758.102 Safari/537.36",xpyriment,legacy,legacy,0,uniform,0,0,0,0,24,24,24,0,0,2,2,2,2,2,0,2,0,,,,,,0,,28-01-22,28-01-22,15:33:50,Mon Feb 28 2022 15:33:50 GMT+0100 (közép-európai téli idő),The main experiment item,yes,0,0,C:/Users/rrics/Documents/!!ResearchBMECOGSCI/gnet,0,0,0,prototype4.png,no,mono,no,18,no,black,no,no,768,1157,3.5.6,legacy,xpyriment,osweb,1.3.13,0,space,space,space,,23411,18569,23411,,2,legacy,1020,1680,24,1050,24,0,0,1680,1646058923091,1024,2,48000,-16,experiment,p3sarr1.png,1,odd,Win32,72,129953,126949,72,72,172920,174426,167920,131455,167920,72,,,,,,visual_patterns,0,0,0,yes,1366
undefined,undefined,undefined,undefined,white,no,Mozilla,Netscape,"5.0 (Windows NT 10.0; Win64; x64) AppleWebKit/537.36 (KHTML, like Gecko) Chrome/98.0.4758.102 Safari/537.36",xpyriment,legacy,legacy,0,uniform,0,0,0,0,24,24,24,0,0,3,3,3,3,3,0,3,0,,,,,,0,,28-01-22,28-01-22,15:33:50,Mon Feb 28 2022 15:33:50 GMT+0100 (közép-európai téli idő),The main experiment item,yes,0,0,C:/Users/rrics/Documents/!!ResearchBMECOGSCI/gnet,0,0,0,prototype4.png,no,mono,no,18,no,black,no,no,768,1157,3.5.6,legacy,xpyriment,osweb,1.3.13,0,space,space,space,,23411,18569,23411,,2,legacy,1020,1680,24,1050,24,0,0,1680,1646058923091,1024,2,48000,-16,experiment,p9sarr2.png,1,odd,Win32,72,129953,126949,72,72,179431,180939,174432,131455,174432,72,,,,,,visual_patterns,0,0,0,yes,1366
undefined,undefined,undefined,undefined,white,no,Mozilla,Netscape,"5.0 (Windows NT 10.0; Win64; x64) AppleWebKit/537.36 (KHTML, like Gecko) Chrome/98.0.4758.102 Safari/537.36",xpyriment,legacy,legacy,0,uniform,0,0,0,0,24,24,24,0,0,4,4,4,4,4,0,4,0,,,,,,0,,28-01-22,28-01-22,15:33:50,Mon Feb 28 2022 15:33:50 GMT+0100 (közép-európai téli idő),The main experiment item,yes,0,0,C:/Users/rrics/Documents/!!ResearchBMECOGSCI/gnet,0,0,0,prototype4.png,no,mono,no,18,no,black,no,no,768,1157,3.5.6,legacy,xpyriment,osweb,1.3.13,0,space,space,space,,23411,18569,23411,,2,legacy,1020,1680,24,1050,24,0,0,1680,1646058923091,1024,2,48000,-16,experiment,p4sarr2.png,1,odd,Win32,72,129953,126949,72,72,185947,187452,180943,131455,180943,72,,,,,,visual_patterns,0,0,0,yes,1366
undefined,undefined,undefined,undefined,white,no,Mozilla,Netscape,"5.0 (Windows NT 10.0; Win64; x64) AppleWebKit/537.36 (KHTML, like Gecko) Chrome/98.0.4758.102 Safari/537.36",xpyriment,legacy,legacy,0,uniform,0,0,0,0,24,24,24,0,0,5,5,5,5,5,0,5,0,,,,,,0,,28-01-22,28-01-22,15:33:50,Mon Feb 28 2022 15:33:50 GMT+0100 (közép-európai téli idő),The main experiment item,yes,0,0,C:/Users/rrics/Documents/!!ResearchBMECOGSCI/gnet,0,0,0,prototype4.png,no,mono,no,18,no,black,no,no,768,1157,3.5.6,legacy,xpyriment,osweb,1.3.13,0,space,space,space,,23411,18569,23411,,2,legacy,1020,1680,24,1050,24,0,0,1680,1646058923091,1024,2,48000,-16,experiment,p4sarrshacol2.png,1,odd,Win32,72,129953,126949,72,72,192458,193966,187459,131455,187459,72,,,,,,visual_patterns,0,0,0,yes,1366
undefined,undefined,undefined,undefined,white,no,Mozilla,Netscape,"5.0 (Windows NT 10.0; Win64; x64) AppleWebKit/537.36 (KHTML, like Gecko) Chrome/98.0.4758.102 Safari/537.36",xpyriment,legacy,legacy,0,uniform,0,0,0,0,24,24,24,0,0,6,6,6,6,6,0,6,0,,,,,,0,,28-01-22,28-01-22,15:33:50,Mon Feb 28 2022 15:33:50 GMT+0100 (közép-európai téli idő),The main experiment item,yes,0,0,C:/Users/rrics/Documents/!!ResearchBMECOGSCI/gnet,0,0,0,prototype4.png,no,mono,no,18,no,black,no,no,768,1157,3.5.6,legacy,xpyriment,osweb,1.3.13,0,space,space,space,,23411,18569,23411,,2,legacy,1020,1680,24,1050,24,0,0,1680,1646058923091,1024,2,48000,-16,experiment,p5sarrsha2.png,1,odd,Win32,72,129953,126949,72,72,198977,200479,193974,131455,193974,72,,,,,,visual_patterns,0,0,0,yes,1366
undefined,undefined,undefined,undefined,white,no,Mozilla,Netscape,"5.0 (Windows NT 10.0; Win64; x64) AppleWebKit/537.36 (KHTML, like Gecko) Chrome/98.0.4758.102 Safari/537.36",xpyriment,legacy,legacy,0,uniform,0,0,0,0,24,24,24,0,0,7,7,7,7,7,0,7,0,,,,,,0,,28-01-22,28-01-22,15:33:50,Mon Feb 28 2022 15:33:50 GMT+0100 (közép-európai téli idő),The main experiment item,yes,0,0,C:/Users/rrics/Documents/!!ResearchBMECOGSCI/gnet,0,0,0,prototype4.png,no,mono,no,18,no,black,no,no,768,1157,3.5.6,legacy,xpyriment,osweb,1.3.13,0,space,space,space,,23411,18569,23411,,2,legacy,1020,1680,24,1050,24,0,0,1680,1646058923091,1024,2,48000,-16,experiment,p2sarr1.png,1,odd,Win32,72,129953,126949,72,72,205492,206993,200489,131455,200489,72,,,,,,visual_patterns,0,0,0,yes,1366
undefined,undefined,undefined,undefined,white,no,Mozilla,Netscape,"5.0 (Windows NT 10.0; Win64; x64) AppleWebKit/537.36 (KHTML, like Gecko) Chrome/98.0.4758.102 Safari/537.36",xpyriment,legacy,legacy,0,uniform,0,0,0,0,24,24,24,0,0,8,8,8,8,8,0,8,0,,,,,,0,,28-01-22,28-01-22,15:33:50,Mon Feb 28 2022 15:33:50 GMT+0100 (közép-európai téli idő),The main experiment item,yes,0,0,C:/Users/rrics/Documents/!!ResearchBMECOGSCI/gnet,0,0,0,prototype4.png,no,mono,no,18,no,black,no,no,768,1157,3.5.6,legacy,xpyriment,osweb,1.3.13,0,space,space,space,,23411,18569,23411,,2,legacy,1020,1680,24,1050,24,0,0,1680,1646058923091,1024,2,48000,-16,experiment,prototype4.png,1,odd,Win32,72,129953,126949,72,72,212000,213506,206999,131455,206999,72,,,,,,visual_patterns,0,0,0,yes,1366
undefined,undefined,undefined,undefined,white,no,Mozilla,Netscape,"5.0 (Windows NT 10.0; Win64; x64) AppleWebKit/537.36 (KHTML, like Gecko) Chrome/98.0.4758.102 Safari/537.36",xpyriment,legacy,legacy,0,uniform,0,0,0,0,24,24,24,0,0,9,9,9,9,9,0,9,0,,,,,,0,,28-01-22,28-01-22,15:33:50,Mon Feb 28 2022 15:33:50 GMT+0100 (közép-európai téli idő),The main experiment item,yes,0,0,C:/Users/rrics/Documents/!!ResearchBMECOGSCI/gnet,0,0,0,prototype4.png,no,mono,no,18,no,black,no,no,768,1157,3.5.6,legacy,xpyriment,osweb,1.3.13,0,space,space,space,,23411,18569,23411,,2,legacy,1020,1680,24,1050,24,0,0,1680,1646058923091,1024,2,48000,-16,experiment,p5sarrsha1.png,1,odd,Win32,72,129953,126949,72,72,218517,220019,213514,131455,213514,72,,,,,,visual_patterns,0,0,0,yes,1366
undefined,undefined,undefined,undefined,white,no,Mozilla,Netscape,"5.0 (Windows NT 10.0; Win64; x64) AppleWebKit/537.36 (KHTML, like Gecko) Chrome/98.0.4758.102 Safari/537.36",xpyriment,legacy,legacy,0,uniform,0,0,0,0,24,24,24,0,0,10,10,10,10,10,0,10,0,,,,,,0,,28-01-22,28-01-22,15:33:50,Mon Feb 28 2022 15:33:50 GMT+0100 (közép-európai téli idő),The main experiment item,yes,0,0,C:/Users/rrics/Documents/!!ResearchBMECOGSCI/gnet,0,0,0,prototype4.png,no,mono,no,18,no,black,no,no,768,1157,3.5.6,legacy,xpyriment,osweb,1.3.13,0,space,space,space,,23411,18569,23411,,2,legacy,1020,1680,24,1050,24,0,0,1680,1646058923091,1024,2,48000,-16,experiment,p5sarrcol1.png,1,odd,Win32,72,129953,126949,72,72,225028,226533,220029,131455,220029,72,,,,,,visual_patterns,0,0,0,yes,1366
undefined,undefined,undefined,undefined,white,no,Mozilla,Netscape,"5.0 (Windows NT 10.0; Win64; x64) AppleWebKit/537.36 (KHTML, like Gecko) Chrome/98.0.4758.102 Safari/537.36",xpyriment,legacy,legacy,0,uniform,0,0,0,0,24,24,24,0,0,11,11,11,11,11,0,11,0,,,,,,0,,28-01-22,28-01-22,15:33:50,Mon Feb 28 2022 15:33:50 GMT+0100 (közép-európai téli idő),The main experiment item,yes,0,0,C:/Users/rrics/Documents/!!ResearchBMECOGSCI/gnet,0,0,0,prototype4.png,no,mono,no,18,no,black,no,no,768,1157,3.5.6,legacy,xpyriment,osweb,1.3.13,0,space,space,space,,23411,18569,23411,,2,legacy,1020,1680,24,1050,24,0,0,1680,1646058923091,1024,2,48000,-16,experiment,p8sarr2.png,1,odd,Win32,72,129953,126949,72,72,231548,233063,226548,131455,226548,72,,,,,,visual_patterns,0,0,0,yes,1366
undefined,undefined,undefined,undefined,white,no,Mozilla,Netscape,"5.0 (Windows NT 10.0; Win64; x64) AppleWebKit/537.36 (KHTML, like Gecko) Chrome/98.0.4758.102 Safari/537.36",xpyriment,legacy,legacy,0,uniform,0,0,0,0,24,24,24,0,0,12,12,12,12,12,0,12,0,,,,,,0,,28-01-22,28-01-22,15:33:50,Mon Feb 28 2022 15:33:50 GMT+0100 (közép-európai téli idő),The main experiment item,yes,0,0,C:/Users/rrics/Documents/!!ResearchBMECOGSCI/gnet,0,0,0,prototype4.png,no,mono,no,18,no,black,no,no,768,1157,3.5.6,legacy,xpyriment,osweb,1.3.13,0,space,space,space,,23411,18569,23411,,2,legacy,1020,1680,24,1050,24,0,0,1680,1646058923091,1024,2,48000,-16,experiment,p5sarrshacol2.png,1,odd,Win32,72,129953,126949,72,72,238071,239576,233070,131455,233070,72,,,,,,visual_patterns,0,0,0,yes,1366
undefined,undefined,undefined,undefined,white,no,Mozilla,Netscape,"5.0 (Windows NT 10.0; Win64; x64) AppleWebKit/537.36 (KHTML, like Gecko) Chrome/98.0.4758.102 Safari/537.36",xpyriment,legacy,legacy,0,uniform,0,0,0,0,24,24,24,0,0,13,13,13,13,13,0,13,0,,,,,,0,,28-01-22,28-01-22,15:33:50,Mon Feb 28 2022 15:33:50 GMT+0100 (közép-európai téli idő),The main experiment item,yes,0,0,C:/Users/rrics/Documents/!!ResearchBMECOGSCI/gnet,0,0,0,prototype4.png,no,mono,no,18,no,black,no,no,768,1157,3.5.6,legacy,xpyriment,osweb,1.3.13,0,space,space,space,,23411,18569,23411,,2,legacy,1020,1680,24,1050,24,0,0,1680,1646058923091,1024,2,48000,-16,experiment,p8sarr1.png,1,odd,Win32,72,129953,126949,72,72,244587,246089,239592,131455,239592,72,,,,,,visual_patterns,0,0,0,yes,1366
undefined,undefined,undefined,undefined,white,no,Mozilla,Netscape,"5.0 (Windows NT 10.0; Win64; x64) AppleWebKit/537.36 (KHTML, like Gecko) Chrome/98.0.4758.102 Safari/537.36",xpyriment,legacy,legacy,0,uniform,0,0,0,0,24,24,24,0,0,14,14,14,14,14,0,14,0,,,,,,0,,28-01-22,28-01-22,15:33:50,Mon Feb 28 2022 15:33:50 GMT+0100 (közép-európai téli idő),The main experiment item,yes,0,0,C:/Users/rrics/Documents/!!ResearchBMECOGSCI/gnet,0,0,0,prototype4.png,no,mono,no,18,no,black,no,no,768,1157,3.5.6,legacy,xpyriment,osweb,1.3.13,0,space,space,space,,23411,18569,23411,,2,legacy,1020,1680,24,1050,24,0,0,1680,1646058923091,1024,2,48000,-16,experiment,p3sarrcol1.png,1,odd,Win32,72,129953,126949,72,72,251097,252603,246097,131455,246097,72,,,,,,visual_patterns,0,0,0,yes,1366
undefined,undefined,undefined,undefined,white,no,Mozilla,Netscape,"5.0 (Windows NT 10.0; Win64; x64) AppleWebKit/537.36 (KHTML, like Gecko) Chrome/98.0.4758.102 Safari/537.36",xpyriment,legacy,legacy,0,uniform,0,0,0,0,24,24,24,0,0,15,15,15,15,15,0,15,0,,,,,,0,,28-01-22,28-01-22,15:33:50,Mon Feb 28 2022 15:33:50 GMT+0100 (közép-európai téli idő),The main experiment item,yes,0,0,C:/Users/rrics/Documents/!!ResearchBMECOGSCI/gnet,0,0,0,prototype4.png,no,mono,no,18,no,black,no,no,768,1157,3.5.6,legacy,xpyriment,osweb,1.3.13,0,space,space,space,,23411,18569,23411,,2,legacy,1020,1680,24,1050,24,0,0,1680,1646058923091,1024,2,48000,-16,experiment,prototype1.png,1,odd,Win32,72,129953,126949,72,72,257616,259133,252615,131455,252615,72,,,,,,visual_patterns,0,0,0,yes,1366
undefined,undefined,undefined,undefined,white,no,Mozilla,Netscape,"5.0 (Windows NT 10.0; Win64; x64) AppleWebKit/537.36 (KHTML, like Gecko) Chrome/98.0.4758.102 Safari/537.36",xpyriment,legacy,legacy,0,uniform,0,0,0,0,24,24,24,0,0,16,16,16,16,16,0,16,0,,,,,,0,,28-01-22,28-01-22,15:33:50,Mon Feb 28 2022 15:33:50 GMT+0100 (közép-európai téli idő),The main experiment item,yes,0,0,C:/Users/rrics/Documents/!!ResearchBMECOGSCI/gnet,0,0,0,prototype4.png,no,mono,no,18,no,black,no,no,768,1157,3.5.6,legacy,xpyriment,osweb,1.3.13,0,space,space,space,,23411,18569,23411,,2,legacy,1020,1680,24,1050,24,0,0,1680,1646058923091,1024,2,48000,-16,experiment,p2sarr2.png,1,odd,Win32,72,129953,126949,72,72,264143,265646,259141,131455,259141,72,,,,,,visual_patterns,0,0,0,yes,1366
undefined,undefined,undefined,undefined,white,no,Mozilla,Netscape,"5.0 (Windows NT 10.0; Win64; x64) AppleWebKit/537.36 (KHTML, like Gecko) Chrome/98.0.4758.102 Safari/537.36",xpyriment,legacy,legacy,0,uniform,0,0,0,0,24,24,24,0,0,17,17,17,17,17,0,17,0,,,,,,0,,28-01-22,28-01-22,15:33:50,Mon Feb 28 2022 15:33:50 GMT+0100 (közép-európai téli idő),The main experiment item,yes,0,0,C:/Users/rrics/Documents/!!ResearchBMECOGSCI/gnet,0,0,0,prototype4.png,no,mono,no,18,no,black,no,no,768,1157,3.5.6,legacy,xpyriment,osweb,1.3.13,0,space,space,space,,23411,18569,23411,,2,legacy,1020,1680,24,1050,24,0,0,1680,1646058923091,1024,2,48000,-16,experiment,p3sarrsha2.png,1,odd,Win32,72,129953,126949,72,72,270659,272176,265657,131455,265657,72,,,,,,visual_patterns,0,0,0,yes,1366
undefined,undefined,undefined,undefined,white,no,Mozilla,Netscape,"5.0 (Windows NT 10.0; Win64; x64) AppleWebKit/537.36 (KHTML, like Gecko) Chrome/98.0.4758.102 Safari/537.36",xpyriment,legacy,legacy,0,uniform,0,0,0,0,24,24,24,0,0,18,18,18,18,18,0,18,0,,,,,,0,,28-01-22,28-01-22,15:33:50,Mon Feb 28 2022 15:33:50 GMT+0100 (közép-európai téli idő),The main experiment item,yes,0,0,C:/Users/rrics/Documents/!!ResearchBMECOGSCI/gnet,0,0,0,prototype4.png,no,mono,no,18,no,black,no,no,768,1157,3.5.6,legacy,xpyriment,osweb,1.3.13,0,space,space,space,,23411,18569,23411,,2,legacy,1020,1680,24,1050,24,0,0,1680,1646058923091,1024,2,48000,-16,experiment,prototype4.png,1,odd,Win32,72,129953,126949,72,72,277183,278689,272179,131455,272179,72,,,,,,visual_patterns,0,0,0,yes,1366
undefined,undefined,undefined,undefined,white,no,Mozilla,Netscape,"5.0 (Windows NT 10.0; Win64; x64) AppleWebKit/537.36 (KHTML, like Gecko) Chrome/98.0.4758.102 Safari/537.36",xpyriment,legacy,legacy,0,uniform,0,0,0,0,24,24,24,0,0,19,19,19,19,19,0,19,0,,,,,,0,,28-01-22,28-01-22,15:33:50,Mon Feb 28 2022 15:33:50 GMT+0100 (közép-európai téli idő),The main experiment item,yes,0,0,C:/Users/rrics/Documents/!!ResearchBMECOGSCI/gnet,0,0,0,prototype4.png,no,mono,no,18,no,black,no,no,768,1157,3.5.6,legacy,xpyriment,osweb,1.3.13,0,space,space,space,,23411,18569,23411,,2,legacy,1020,1680,24,1050,24,0,0,1680,1646058923091,1024,2,48000,-16,experiment,p3sarrsha1.png,1,odd,Win32,72,129953,126949,72,72,283701,285203,278697,131455,278697,72,,,,,,visual_patterns,0,0,0,yes,1366
undefined,undefined,undefined,undefined,white,no,Mozilla,Netscape,"5.0 (Windows NT 10.0; Win64; x64) AppleWebKit/537.36 (KHTML, like Gecko) Chrome/98.0.4758.102 Safari/537.36",xpyriment,legacy,legacy,0,uniform,0,0,0,0,24,24,24,0,0,20,20,20,20,20,0,20,0,,,,,,0,,28-01-22,28-01-22,15:33:50,Mon Feb 28 2022 15:33:50 GMT+0100 (közép-európai téli idő),The main experiment item,yes,0,0,C:/Users/rrics/Documents/!!ResearchBMECOGSCI/gnet,0,0,0,prototype4.png,no,mono,no,18,no,black,no,no,768,1157,3.5.6,legacy,xpyriment,osweb,1.3.13,0,space,space,space,,23411,18569,23411,,2,legacy,1020,1680,24,1050,24,0,0,1680,1646058923091,1024,2,48000,-16,experiment,prototype2.png,1,odd,Win32,72,129953,126949,72,72,290211,291716,285211,131455,285211,72,,,,,,visual_patterns,0,0,0,yes,1366
undefined,undefined,undefined,undefined,white,no,Mozilla,Netscape,"5.0 (Windows NT 10.0; Win64; x64) AppleWebKit/537.36 (KHTML, like Gecko) Chrome/98.0.4758.102 Safari/537.36",xpyriment,legacy,legacy,0,uniform,0,0,0,0,24,24,24,0,0,21,21,21,21,21,0,21,0,,,,,,0,,28-01-22,28-01-22,15:33:50,Mon Feb 28 2022 15:33:50 GMT+0100 (közép-európai téli idő),The main experiment item,yes,0,0,C:/Users/rrics/Documents/!!ResearchBMECOGSCI/gnet,0,0,0,prototype4.png,no,mono,no,18,no,black,no,no,768,1157,3.5.6,legacy,xpyriment,osweb,1.3.13,0,space,space,space,,23411,18569,23411,,2,legacy,1020,1680,24,1050,24,0,0,1680,1646058923091,1024,2,48000,-16,experiment,p4sarrcol2.png,1,odd,Win32,72,129953,126949,72,72,296731,298246,291732,131455,291732,72,,,,,,visual_patterns,0,0,0,yes,1366
undefined,undefined,undefined,undefined,white,no,Mozilla,Netscape,"5.0 (Windows NT 10.0; Win64; x64) AppleWebKit/537.36 (KHTML, like Gecko) Chrome/98.0.4758.102 Safari/537.36",xpyriment,legacy,legacy,0,uniform,0,0,0,0,24,24,24,0,0,22,22,22,22,22,0,22,0,,,,,,0,,28-01-22,28-01-22,15:33:50,Mon Feb 28 2022 15:33:50 GMT+0100 (közép-európai téli idő),The main experiment item,yes,0,0,C:/Users/rrics/Documents/!!ResearchBMECOGSCI/gnet,0,0,0,prototype4.png,no,mono,no,18,no,black,no,no,768,1157,3.5.6,legacy,xpyriment,osweb,1.3.13,0,space,space,space,,23411,18569,23411,,2,legacy,1020,1680,24,1050,24,0,0,1680,1646058923091,1024,2,48000,-16,experiment,p5sarrshacol1.png,1,odd,Win32,72,129953,126949,72,72,303256,304759,298257,131455,298257,72,,,,,,visual_patterns,0,0,0,yes,1366
undefined,undefined,undefined,undefined,white,no,Mozilla,Netscape,"5.0 (Windows NT 10.0; Win64; x64) AppleWebKit/537.36 (KHTML, like Gecko) Chrome/98.0.4758.102 Safari/537.36",xpyriment,legacy,legacy,0,uniform,0,0,0,0,24,24,24,0,0,23,23,23,23,23,0,23,0,,,,,,0,,28-01-22,28-01-22,15:33:50,Mon Feb 28 2022 15:33:50 GMT+0100 (közép-európai téli idő),The main experiment item,yes,0,0,C:/Users/rrics/Documents/!!ResearchBMECOGSCI/gnet,0,0,0,prototype4.png,no,mono,no,18,no,black,no,no,768,1157,3.5.6,legacy,xpyriment,osweb,1.3.13,0,space,space,space,,23411,18569,23411,,2,legacy,1020,1680,24,1050,24,0,0,1680,1646058923091,1024,2,48000,-16,experiment,prototype2.png,1,odd,Win32,72,129953,126949,72,72,309773,311289,304772,131455,304772,72,,,,,,visual_patterns,0,0,0,yes,1366
undefined,undefined,undefined,undefined,white,no,Mozilla,Netscape,"5.0 (Windows NT 10.0; Win64; x64) AppleWebKit/537.36 (KHTML, like Gecko) Chrome/98.0.4758.102 Safari/537.36",xpyriment,legacy,legacy,0,uniform,0,0,0,0,24,24,24,0,0,24,24,24,24,24,0,24,0,,,,,,0,,28-01-22,28-01-22,15:33:50,Mon Feb 28 2022 15:33:50 GMT+0100 (közép-európai téli idő),The main experiment item,yes,0,0,C:/Users/rrics/Documents/!!ResearchBMECOGSCI/gnet,0,0,0,prototype4.png,no,mono,no,18,no,black,no,no,768,1157,3.5.6,legacy,xpyriment,osweb,1.3.13,0,space,space,space,,23411,18569,23411,,2,legacy,1020,1680,24,1050,24,0,0,1680,1646058923091,1024,2,48000,-16,experiment,p4sarrsha2.png,1,odd,Win32,72,129953,126949,72,72,316304,317819,311300,131455,311300,72,,,,,,visual_patterns,0,0,0,yes,1366
undefined,undefined,undefined,undefined,white,no,Mozilla,Netscape,"5.0 (Windows NT 10.0; Win64; x64) AppleWebKit/537.36 (KHTML, like Gecko) Chrome/98.0.4758.102 Safari/537.36",xpyriment,legacy,legacy,0,uniform,0,0,0,0,24,24,24,0,0,25,25,25,25,25,0,25,0,,,,,,0,,28-01-22,28-01-22,15:33:50,Mon Feb 28 2022 15:33:50 GMT+0100 (közép-európai téli idő),The main experiment item,yes,0,0,C:/Users/rrics/Documents/!!ResearchBMECOGSCI/gnet,0,0,0,prototype4.png,no,mono,no,18,no,black,no,no,768,1157,3.5.6,legacy,xpyriment,osweb,1.3.13,0,space,space,space,,23411,18569,23411,,2,legacy,1020,1680,24,1050,24,0,0,1680,1646058923091,1024,2,48000,-16,experiment,p9sarr1.png,1,odd,Win32,72,129953,126949,72,72,322829,324333,317830,131455,317830,72,,,,,,visual_patterns,0,0,0,yes,1366
undefined,undefined,undefined,undefined,white,no,Mozilla,Netscape,"5.0 (Windows NT 10.0; Win64; x64) AppleWebKit/537.36 (KHTML, like Gecko) Chrome/98.0.4758.102 Safari/537.36",xpyriment,legacy,legacy,0,uniform,0,0,0,0,24,24,24,0,0,26,26,26,26,26,0,26,0,,,,,,0,,28-01-22,28-01-22,15:33:50,Mon Feb 28 2022 15:33:50 GMT+0100 (közép-európai téli idő),The main experiment item,yes,0,0,C:/Users/rrics/Documents/!!ResearchBMECOGSCI/gnet,0,0,0,prototype4.png,no,mono,no,18,no,black,no,no,768,1157,3.5.6,legacy,xpyriment,osweb,1.3.13,0,space,space,space,,23411,18569,23411,,2,legacy,1020,1680,24,1050,24,0,0,1680,1646058923091,1024,2,48000,-16,experiment,prototype1.png,1,odd,Win32,72,129953,126949,72,72,329345,330846,324342,131455,324342,72,,,,,,visual_patterns,0,0,0,yes,1366
undefined,undefined,undefined,undefined,white,no,Mozilla,Netscape,"5.0 (Windows NT 10.0; Win64; x64) AppleWebKit/537.36 (KHTML, like Gecko) Chrome/98.0.4758.102 Safari/537.36",xpyriment,legacy,legacy,0,uniform,0,0,0,0,24,24,24,0,0,27,27,27,27,27,0,27,0,,,,,,0,,28-01-22,28-01-22,15:33:50,Mon Feb 28 2022 15:33:50 GMT+0100 (közép-európai téli idő),The main experiment item,yes,0,0,C:/Users/rrics/Documents/!!ResearchBMECOGSCI/gnet,0,0,0,prototype4.png,no,mono,no,18,no,black,no,no,768,1157,3.5.6,legacy,xpyriment,osweb,1.3.13,0,space,space,space,,23411,18569,23411,,2,legacy,1020,1680,24,1050,24,0,0,1680,1646058923091,1024,2,48000,-16,experiment,p4sarrcol1.png,1,odd,Win32,72,129953,126949,72,72,335857,337360,330854,131455,330854,72,,,,,,visual_patterns,0,0,0,yes,1366
undefined,undefined,undefined,undefined,white,no,Mozilla,Netscape,"5.0 (Windows NT 10.0; Win64; x64) AppleWebKit/537.36 (KHTML, like Gecko) Chrome/98.0.4758.102 Safari/537.36",xpyriment,legacy,legacy,0,uniform,0,0,0,0,24,24,24,0,0,28,28,28,28,28,0,28,0,,,,,,0,,28-01-22,28-01-22,15:33:50,Mon Feb 28 2022 15:33:50 GMT+0100 (közép-európai téli idő),The main experiment item,yes,0,0,C:/Users/rrics/Documents/!!ResearchBMECOGSCI/gnet,0,0,0,prototype4.png,no,mono,no,18,no,black,no,no,768,1157,3.5.6,legacy,xpyriment,osweb,1.3.13,0,space,space,space,,23411,18569,23411,,2,legacy,1020,1680,24,1050,24,0,0,1680,1646058923091,1024,2,48000,-16,experiment,prototype4.png,1,odd,Win32,72,129953,126949,72,72,342375,343889,337372,131455,337372,72,,,,,,visual_patterns,0,0,0,yes,1366
undefined,undefined,undefined,undefined,white,no,Mozilla,Netscape,"5.0 (Windows NT 10.0; Win64; x64) AppleWebKit/537.36 (KHTML, like Gecko) Chrome/98.0.4758.102 Safari/537.36",xpyriment,legacy,legacy,0,uniform,0,0,0,0,24,24,24,0,0,29,29,29,29,29,0,29,0,,,,,,0,,28-01-22,28-01-22,15:33:50,Mon Feb 28 2022 15:33:50 GMT+0100 (közép-európai téli idő),The main experiment item,yes,0,0,C:/Users/rrics/Documents/!!ResearchBMECOGSCI/gnet,0,0,0,prototype4.png,no,mono,no,18,no,black,no,no,768,1157,3.5.6,legacy,xpyriment,osweb,1.3.13,0,space,space,space,,23411,18569,23411,,2,legacy,1020,1680,24,1050,24,0,0,1680,1646058923091,1024,2,48000,-16,experiment,prototype5.png,1,odd,Win32,72,129953,126949,72,72,348903,350419,343902,131455,343902,72,,,,,,visual_patterns,0,0,0,yes,1366
undefined,undefined,undefined,undefined,white,no,Mozilla,Netscape,"5.0 (Windows NT 10.0; Win64; x64) AppleWebKit/537.36 (KHTML, like Gecko) Chrome/98.0.4758.102 Safari/537.36",xpyriment,legacy,legacy,0,uniform,0,0,0,0,24,24,24,0,0,30,30,30,30,30,0,30,0,,,,,,0,,28-01-22,28-01-22,15:33:50,Mon Feb 28 2022 15:33:50 GMT+0100 (közép-európai téli idő),The main experiment item,yes,0,0,C:/Users/rrics/Documents/!!ResearchBMECOGSCI/gnet,0,0,0,prototype4.png,no,mono,no,18,no,black,no,no,768,1157,3.5.6,legacy,xpyriment,osweb,1.3.13,0,space,space,space,,23411,18569,23411,,2,legacy,1020,1680,24,1050,24,0,0,1680,1646058923091,1024,2,48000,-16,experiment,p5sarrcol2.png,1,odd,Win32,72,129953,126949,72,72,355424,356933,350423,131455,350423,72,,,,,,visual_patterns,0,0,0,yes,1366
undefined,undefined,undefined,undefined,white,no,Mozilla,Netscape,"5.0 (Windows NT 10.0; Win64; x64) AppleWebKit/537.36 (KHTML, like Gecko) Chrome/98.0.4758.102 Safari/537.36",xpyriment,legacy,legacy,0,uniform,0,0,0,0,24,24,24,0,0,31,31,31,31,31,0,31,0,,,,,,0,,28-01-22,28-01-22,15:33:50,Mon Feb 28 2022 15:33:50 GMT+0100 (közép-európai téli idő),The main experiment item,yes,0,0,C:/Users/rrics/Documents/!!ResearchBMECOGSCI/gnet,0,0,0,prototype4.png,no,mono,no,18,no,black,no,no,768,1157,3.5.6,legacy,xpyriment,osweb,1.3.13,0,space,space,space,,23411,18569,23411,,2,legacy,1020,1680,24,1050,24,0,0,1680,1646058923091,1024,2,48000,-16,experiment,p2sarrsha2.png,1,odd,Win32,72,129953,126949,72,72,361941,363446,356941,131455,356941,72,,,,,,visual_patterns,0,0,0,yes,1366
undefined,undefined,undefined,undefined,white,no,Mozilla,Netscape,"5.0 (Windows NT 10.0; Win64; x64) AppleWebKit/537.36 (KHTML, like Gecko) Chrome/98.0.4758.102 Safari/537.36",xpyriment,legacy,legacy,0,uniform,0,0,0,0,24,24,24,0,0,32,32,32,32,32,0,32,0,,,,,,0,,28-01-22,28-01-22,15:33:50,Mon Feb 28 2022 15:33:50 GMT+0100 (közép-európai téli idő),The main experiment item,yes,0,0,C:/Users/rrics/Documents/!!ResearchBMECOGSCI/gnet,0,0,0,prototype4.png,no,mono,no,18,no,black,no,no,768,1157,3.5.6,legacy,xpyriment,osweb,1.3.13,0,space,space,space,,23411,18569,23411,,2,legacy,1020,1680,24,1050,24,0,0,1680,1646058923091,1024,2,48000,-16,experiment,p5sarr1.png,1,odd,Win32,72,129953,126949,72,72,368456,369959,363454,131455,363454,72,,,,,,visual_patterns,0,0,0,yes,1366
undefined,undefined,undefined,undefined,white,no,Mozilla,Netscape,"5.0 (Windows NT 10.0; Win64; x64) AppleWebKit/537.36 (KHTML, like Gecko) Chrome/98.0.4758.102 Safari/537.36",xpyriment,legacy,legacy,0,uniform,0,0,0,0,24,24,24,0,0,33,33,33,33,33,0,33,0,,,,,,0,,28-01-22,28-01-22,15:33:50,Mon Feb 28 2022 15:33:50 GMT+0100 (közép-európai téli idő),The main experiment item,yes,0,0,C:/Users/rrics/Documents/!!ResearchBMECOGSCI/gnet,0,0,0,prototype4.png,no,mono,no,18,no,black,no,no,768,1157,3.5.6,legacy,xpyriment,osweb,1.3.13,0,space,space,space,,23411,18569,23411,,2,legacy,1020,1680,24,1050,24,0,0,1680,1646058923091,1024,2,48000,-16,experiment,p3sarrshacol1.png,1,odd,Win32,72,129953,126949,72,72,374966,376473,369964,131455,369964,72,,,,,,visual_patterns,0,0,0,yes,1366
undefined,undefined,undefined,undefined,white,no,Mozilla,Netscape,"5.0 (Windows NT 10.0; Win64; x64) AppleWebKit/537.36 (KHTML, like Gecko) Chrome/98.0.4758.102 Safari/537.36",xpyriment,legacy,legacy,0,uniform,0,0,0,0,24,24,24,0,0,34,34,34,34,34,0,34,0,,,,,,0,,28-01-22,28-01-22,15:33:50,Mon Feb 28 2022 15:33:50 GMT+0100 (közép-európai téli idő),The main experiment item,yes,0,0,C:/Users/rrics/Documents/!!ResearchBMECOGSCI/gnet,0,0,0,prototype4.png,no,mono,no,18,no,black,no,no,768,1157,3.5.6,legacy,xpyriment,osweb,1.3.13,0,space,space,space,,23411,18569,23411,,2,legacy,1020,1680,24,1050,24,0,0,1680,1646058923091,1024,2,48000,-16,experiment,prototype1.png,1,odd,Win32,72,129953,126949,72,72,381484,382986,376480,131455,376480,72,,,,,,visual_patterns,0,0,0,yes,1366
undefined,undefined,undefined,undefined,white,no,Mozilla,Netscape,"5.0 (Windows NT 10.0; Win64; x64) AppleWebKit/537.36 (KHTML, like Gecko) Chrome/98.0.4758.102 Safari/537.36",xpyriment,legacy,legacy,0,uniform,0,0,0,0,24,24,24,0,0,35,35,35,35,35,0,35,0,,,,,,0,,28-01-22,28-01-22,15:33:50,Mon Feb 28 2022 15:33:50 GMT+0100 (közép-európai téli idő),The main experiment item,yes,0,0,C:/Users/rrics/Documents/!!ResearchBMECOGSCI/gnet,0,0,0,prototype4.png,no,mono,no,18,no,black,no,no,768,1157,3.5.6,legacy,xpyriment,osweb,1.3.13,0,space,space,space,,23411,18569,23411,,2,legacy,1020,1680,24,1050,24,0,0,1680,1646058923091,1024,2,48000,-16,experiment,p4sarrshacol1.png,1,odd,Win32,72,129953,126949,72,72,387992,389499,382990,131455,382990,72,,,,,,visual_patterns,0,0,0,yes,1366
undefined,undefined,undefined,undefined,white,no,Mozilla,Netscape,"5.0 (Windows NT 10.0; Win64; x64) AppleWebKit/537.36 (KHTML, like Gecko) Chrome/98.0.4758.102 Safari/537.36",xpyriment,legacy,legacy,0,uniform,0,0,0,0,24,24,24,0,0,36,36,36,36,36,0,36,0,,,,,,0,,28-01-22,28-01-22,15:33:50,Mon Feb 28 2022 15:33:50 GMT+0100 (közép-európai téli idő),The main experiment item,yes,0,0,C:/Users/rrics/Documents/!!ResearchBMECOGSCI/gnet,0,0,0,prototype4.png,no,mono,no,18,no,black,no,no,768,1157,3.5.6,legacy,xpyriment,osweb,1.3.13,0,space,space,space,,23411,18569,23411,,2,legacy,1020,1680,24,1050,24,0,0,1680,1646058923091,1024,2,48000,-16,experiment,prototype3.png,1,odd,Win32,72,129953,126949,72,72,394513,396029,389511,131455,389511,72,,,,,,visual_patterns,0,0,0,yes,1366
undefined,undefined,undefined,undefined,white,no,Mozilla,Netscape,"5.0 (Windows NT 10.0; Win64; x64) AppleWebKit/537.36 (KHTML, like Gecko) Chrome/98.0.4758.102 Safari/537.36",xpyriment,legacy,legacy,0,uniform,0,0,0,0,24,24,24,0,0,37,37,37,37,37,0,37,0,,,,,,0,,28-01-22,28-01-22,15:33:50,Mon Feb 28 2022 15:33:50 GMT+0100 (közép-európai téli idő),The main experiment item,yes,0,0,C:/Users/rrics/Documents/!!ResearchBMECOGSCI/gnet,0,0,0,prototype4.png,no,mono,no,18,no,black,no,no,768,1157,3.5.6,legacy,xpyriment,osweb,1.3.13,0,space,space,space,,23411,18569,23411,,2,legacy,1020,1680,24,1050,24,0,0,1680,1646058923091,1024,2,48000,-16,experiment,prototype3.png,1,odd,Win32,72,129953,126949,72,72,401034,402543,396033,131455,396033,72,,,,,,visual_patterns,0,0,0,yes,1366
undefined,undefined,undefined,undefined,white,no,Mozilla,Netscape,"5.0 (Windows NT 10.0; Win64; x64) AppleWebKit/537.36 (KHTML, like Gecko) Chrome/98.0.4758.102 Safari/537.36",xpyriment,legacy,legacy,0,uniform,0,0,0,0,24,24,24,0,0,38,38,38,38,38,0,38,0,,,,,,0,,28-01-22,28-01-22,15:33:50,Mon Feb 28 2022 15:33:50 GMT+0100 (közép-európai téli idő),The main experiment item,yes,0,0,C:/Users/rrics/Documents/!!ResearchBMECOGSCI/gnet,0,0,0,prototype4.png,no,mono,no,18,no,black,no,no,768,1157,3.5.6,legacy,xpyriment,osweb,1.3.13,0,space,space,space,,23411,18569,23411,,2,legacy,1020,1680,24,1050,24,0,0,1680,1646058923091,1024,2,48000,-16,experiment,p7sarr1.png,1,odd,Win32,72,129953,126949,72,72,407551,409056,402550,131455,402550,72,,,,,,visual_patterns,0,0,0,yes,1366
undefined,undefined,undefined,undefined,white,no,Mozilla,Netscape,"5.0 (Windows NT 10.0; Win64; x64) AppleWebKit/537.36 (KHTML, like Gecko) Chrome/98.0.4758.102 Safari/537.36",xpyriment,legacy,legacy,0,uniform,0,0,0,0,24,24,24,0,0,39,39,39,39,39,0,39,0,,,,,,0,,28-01-22,28-01-22,15:33:50,Mon Feb 28 2022 15:33:50 GMT+0100 (közép-európai téli idő),The main experiment item,yes,0,0,C:/Users/rrics/Documents/!!ResearchBMECOGSCI/gnet,0,0,0,prototype4.png,no,mono,no,18,no,black,no,no,768,1157,3.5.6,legacy,xpyriment,osweb,1.3.13,0,space,space,space,,23411,18569,23411,,2,legacy,1020,1680,24,1050,24,0,0,1680,1646058923091,1024,2,48000,-16,experiment,p1sarrsha1.png,1,odd,Win32,72,129953,126949,72,72,414067,415569,409064,131455,409064,72,,,,,,visual_patterns,0,0,0,yes,1366
undefined,undefined,undefined,undefined,white,no,Mozilla,Netscape,"5.0 (Windows NT 10.0; Win64; x64) AppleWebKit/537.36 (KHTML, like Gecko) Chrome/98.0.4758.102 Safari/537.36",xpyriment,legacy,legacy,0,uniform,0,0,0,0,24,24,24,0,0,40,40,40,40,40,0,40,0,,,,,,0,,28-01-22,28-01-22,15:33:50,Mon Feb 28 2022 15:33:50 GMT+0100 (közép-európai téli idő),The main experiment item,yes,0,0,C:/Users/rrics/Documents/!!ResearchBMECOGSCI/gnet,0,0,0,prototype4.png,no,mono,no,18,no,black,no,no,768,1157,3.5.6,legacy,xpyriment,osweb,1.3.13,0,space,space,space,,23411,18569,23411,,2,legacy,1020,1680,24,1050,24,0,0,1680,1646058923091,1024,2,48000,-16,experiment,prototype5.png,1,odd,Win32,72,129953,126949,72,72,420577,422083,415577,131455,415577,72,,,,,,visual_patterns,0,0,0,yes,1366
undefined,undefined,undefined,undefined,white,no,Mozilla,Netscape,"5.0 (Windows NT 10.0; Win64; x64) AppleWebKit/537.36 (KHTML, like Gecko) Chrome/98.0.4758.102 Safari/537.36",xpyriment,legacy,legacy,0,uniform,0,0,0,0,24,24,24,0,0,41,41,41,41,41,0,41,0,,,,,,0,,28-01-22,28-01-22,15:33:50,Mon Feb 28 2022 15:33:50 GMT+0100 (közép-európai téli idő),The main experiment item,yes,0,0,C:/Users/rrics/Documents/!!ResearchBMECOGSCI/gnet,0,0,0,prototype4.png,no,mono,no,18,no,black,no,no,768,1157,3.5.6,legacy,xpyriment,osweb,1.3.13,0,space,space,space,,23411,18569,23411,,2,legacy,1020,1680,24,1050,24,0,0,1680,1646058923091,1024,2,48000,-16,experiment,p3sarrshacol2.png,1,odd,Win32,72,129953,126949,72,72,427090,428596,422091,131455,422091,72,,,,,,visual_patterns,0,0,0,yes,1366
undefined,undefined,undefined,undefined,white,no,Mozilla,Netscape,"5.0 (Windows NT 10.0; Win64; x64) AppleWebKit/537.36 (KHTML, like Gecko) Chrome/98.0.4758.102 Safari/537.36",xpyriment,legacy,legacy,0,uniform,0,0,0,0,24,24,24,0,0,42,42,42,42,42,0,42,0,,,,,,0,,28-01-22,28-01-22,15:33:50,Mon Feb 28 2022 15:33:50 GMT+0100 (közép-európai téli idő),The main experiment item,yes,0,0,C:/Users/rrics/Documents/!!ResearchBMECOGSCI/gnet,0,0,0,prototype4.png,no,mono,no,18,no,black,no,no,768,1157,3.5.6,legacy,xpyriment,osweb,1.3.13,0,space,space,space,,23411,18569,23411,,2,legacy,1020,1680,24,1050,24,0,0,1680,1646058923091,1024,2,48000,-16,experiment,p3sarrcol2.png,1,odd,Win32,72,129953,126949,72,72,433603,435109,428601,131455,428601,72,,,,,,visual_patterns,0,0,0,yes,1366
undefined,undefined,undefined,undefined,white,no,Mozilla,Netscape,"5.0 (Windows NT 10.0; Win64; x64) AppleWebKit/537.36 (KHTML, like Gecko) Chrome/98.0.4758.102 Safari/537.36",xpyriment,legacy,legacy,0,uniform,0,0,0,0,24,24,24,0,0,43,43,43,43,43,0,43,0,,,,,,0,,28-01-22,28-01-22,15:33:50,Mon Feb 28 2022 15:33:50 GMT+0100 (közép-európai téli idő),The main experiment item,yes,0,0,C:/Users/rrics/Documents/!!ResearchBMECOGSCI/gnet,0,0,0,prototype4.png,no,mono,no,18,no,black,no,no,768,1157,3.5.6,legacy,xpyriment,osweb,1.3.13,0,space,space,space,,23411,18569,23411,,2,legacy,1020,1680,24,1050,24,0,0,1680,1646058923091,1024,2,48000,-16,experiment,p3sarr2.png,1,odd,Win32,72,129953,126949,72,72,440122,441623,435119,131455,435119,72,,,,,,visual_patterns,0,0,0,yes,1366
undefined,undefined,undefined,undefined,white,no,Mozilla,Netscape,"5.0 (Windows NT 10.0; Win64; x64) AppleWebKit/537.36 (KHTML, like Gecko) Chrome/98.0.4758.102 Safari/537.36",xpyriment,legacy,legacy,0,uniform,0,0,0,0,24,24,24,0,0,44,44,44,44,44,0,44,0,,,,,,0,,28-01-22,28-01-22,15:33:50,Mon Feb 28 2022 15:33:50 GMT+0100 (közép-európai téli idő),The main experiment item,yes,0,0,C:/Users/rrics/Documents/!!ResearchBMECOGSCI/gnet,0,0,0,prototype4.png,no,mono,no,18,no,black,no,no,768,1157,3.5.6,legacy,xpyriment,osweb,1.3.13,0,space,space,space,,23411,18569,23411,,2,legacy,1020,1680,24,1050,24,0,0,1680,1646058923091,1024,2,48000,-16,experiment,p2sarrsha1.png,1,odd,Win32,72,129953,126949,72,72,446630,448136,441631,131455,441631,72,,,,,,visual_patterns,0,0,0,yes,1366
undefined,undefined,undefined,undefined,white,no,Mozilla,Netscape,"5.0 (Windows NT 10.0; Win64; x64) AppleWebKit/537.36 (KHTML, like Gecko) Chrome/98.0.4758.102 Safari/537.36",xpyriment,legacy,legacy,0,uniform,0,0,0,0,24,24,24,0,0,45,45,45,45,45,0,45,0,,,,,,0,,28-01-22,28-01-22,15:33:50,Mon Feb 28 2022 15:33:50 GMT+0100 (közép-európai téli idő),The main experiment item,yes,0,0,C:/Users/rrics/Documents/!!ResearchBMECOGSCI/gnet,0,0,0,prototype4.png,no,mono,no,18,no,black,no,no,768,1157,3.5.6,legacy,xpyriment,osweb,1.3.13,0,space,space,space,,23411,18569,23411,,2,legacy,1020,1680,24,1050,24,0,0,1680,1646058923091,1024,2,48000,-16,experiment,p4sarrsha1.png,1,odd,Win32,72,129953,126949,72,72,453148,454649,448145,131455,448145,72,,,,,,visual_patterns,0,0,0,yes,1366
undefined,undefined,undefined,undefined,white,no,Mozilla,Netscape,"5.0 (Windows NT 10.0; Win64; x64) AppleWebKit/537.36 (KHTML, like Gecko) Chrome/98.0.4758.102 Safari/537.36",xpyriment,legacy,legacy,0,uniform,0,0,0,0,24,24,24,0,0,46,46,46,46,46,0,46,0,,,,,,0,,28-01-22,28-01-22,15:33:50,Mon Feb 28 2022 15:33:50 GMT+0100 (közép-európai téli idő),The main experiment item,yes,0,0,C:/Users/rrics/Documents/!!ResearchBMECOGSCI/gnet,0,0,0,prototype4.png,no,mono,no,18,no,black,no,no,768,1157,3.5.6,legacy,xpyriment,osweb,1.3.13,0,space,space,space,,23411,18569,23411,,2,legacy,1020,1680,24,1050,24,0,0,1680,1646058923091,1024,2,48000,-16,experiment,p1sarrcol1.png,1,odd,Win32,72,129953,126949,72,72,459657,461163,454657,131455,454657,72,,,,,,visual_patterns,0,0,0,yes,1366
undefined,undefined,undefined,undefined,white,no,Mozilla,Netscape,"5.0 (Windows NT 10.0; Win64; x64) AppleWebKit/537.36 (KHTML, like Gecko) Chrome/98.0.4758.102 Safari/537.36",xpyriment,legacy,legacy,0,uniform,0,0,0,0,24,24,24,0,0,47,47,47,47,47,0,47,0,,,,,,0,,28-01-22,28-01-22,15:33:50,Mon Feb 28 2022 15:33:50 GMT+0100 (közép-európai téli idő),The main experiment item,yes,0,0,C:/Users/rrics/Documents/!!ResearchBMECOGSCI/gnet,0,0,0,prototype4.png,no,mono,no,18,no,black,no,no,768,1157,3.5.6,legacy,xpyriment,osweb,1.3.13,0,space,space,space,,23411,18569,23411,,2,legacy,1020,1680,24,1050,24,0,0,1680,1646058923091,1024,2,48000,-16,experiment,p1sarrsha2.png,1,odd,Win32,72,129953,126949,72,72,466168,467676,461168,131455,461168,72,,,,,,visual_patterns,0,0,0,yes,1366
undefined,undefined,undefined,undefined,white,no,Mozilla,Netscape,"5.0 (Windows NT 10.0; Win64; x64) AppleWebKit/537.36 (KHTML, like Gecko) Chrome/98.0.4758.102 Safari/537.36",xpyriment,legacy,legacy,0,uniform,0,0,0,0,24,24,24,0,0,48,48,48,48,48,0,48,0,,,,,,0,,28-01-22,28-01-22,15:33:50,Mon Feb 28 2022 15:33:50 GMT+0100 (közép-európai téli idő),The main experiment item,yes,0,0,C:/Users/rrics/Documents/!!ResearchBMECOGSCI/gnet,0,0,0,prototype4.png,no,mono,no,18,no,black,no,no,768,1157,3.5.6,legacy,xpyriment,osweb,1.3.13,0,space,space,space,,23411,18569,23411,,2,legacy,1020,1680,24,1050,24,0,0,1680,1646058923091,1024,2,48000,-16,experiment,p7sarr2.png,1,odd,Win32,72,129953,126949,72,72,472689,474206,467691,131455,467691,72,,,,,,visual_patterns,0,0,0,yes,1366
undefined,undefined,undefined,undefined,white,no,Mozilla,Netscape,"5.0 (Windows NT 10.0; Win64; x64) AppleWebKit/537.36 (KHTML, like Gecko) Chrome/98.0.4758.102 Safari/537.36",xpyriment,legacy,legacy,0,uniform,0,0,0,0,24,24,24,0,0,49,49,49,49,49,0,49,0,,,,,,0,,28-01-22,28-01-22,15:33:50,Mon Feb 28 2022 15:33:50 GMT+0100 (közép-európai téli idő),The main experiment item,yes,0,0,C:/Users/rrics/Documents/!!ResearchBMECOGSCI/gnet,0,0,0,prototype4.png,no,mono,no,18,no,black,no,no,768,1157,3.5.6,legacy,xpyriment,osweb,1.3.13,0,space,space,space,,23411,18569,23411,,2,legacy,1020,1680,24,1050,24,0,0,1680,1646058923091,1024,2,48000,-16,experiment,p4sarr1.png,1,odd,Win32,72,129953,126949,72,72,479214,480719,474212,131455,474212,72,,,,,,visual_patterns,0,0,0,yes,1366
undefined,undefined,undefined,undefined,white,no,Mozilla,Netscape,"5.0 (Windows NT 10.0; Win64; x64) AppleWebKit/537.36 (KHTML, like Gecko) Chrome/98.0.4758.102 Safari/537.36",xpyriment,legacy,legacy,0,uniform,0,0,0,0,24,24,24,0,0,50,50,50,50,50,0,50,0,,,,,,0,,28-01-22,28-01-22,15:33:50,Mon Feb 28 2022 15:33:50 GMT+0100 (közép-európai téli idő),The main experiment item,yes,0,0,C:/Users/rrics/Documents/!!ResearchBMECOGSCI/gnet,0,0,0,prototype4.png,no,mono,no,18,no,black,no,no,768,1157,3.5.6,legacy,xpyriment,osweb,1.3.13,0,space,space,space,,23411,18569,23411,,2,legacy,1020,1680,24,1050,24,0,0,1680,1646058923091,1024,2,48000,-16,experiment,p10sarr1.png,1,odd,Win32,72,129953,126949,72,72,485723,487233,480724,131455,480724,72,,,,,,visual_patterns,0,0,0,yes,1366
undefined,undefined,undefined,undefined,white,no,Mozilla,Netscape,"5.0 (Windows NT 10.0; Win64; x64) AppleWebKit/537.36 (KHTML, like Gecko) Chrome/98.0.4758.102 Safari/537.36",xpyriment,legacy,legacy,0,uniform,0,0,0,0,24,24,24,0,0,51,51,51,51,51,0,51,0,,,,,,0,,28-01-22,28-01-22,15:33:50,Mon Feb 28 2022 15:33:50 GMT+0100 (közép-európai téli idő),The main experiment item,yes,0,0,C:/Users/rrics/Documents/!!ResearchBMECOGSCI/gnet,0,0,0,prototype4.png,no,mono,no,18,no,black,no,no,768,1157,3.5.6,legacy,xpyriment,osweb,1.3.13,0,space,space,space,,23411,18569,23411,,2,legacy,1020,1680,24,1050,24,0,0,1680,1646058923091,1024,2,48000,-16,experiment,prototype3.png,1,odd,Win32,72,129953,126949,72,72,492242,493746,487240,131455,487240,72,,,,,,visual_patterns,0,0,0,yes,1366
undefined,undefined,undefined,undefined,white,no,Mozilla,Netscape,"5.0 (Windows NT 10.0; Win64; x64) AppleWebKit/537.36 (KHTML, like Gecko) Chrome/98.0.4758.102 Safari/537.36",xpyriment,legacy,legacy,0,uniform,0,0,0,0,24,24,24,0,0,52,52,52,52,52,0,52,0,,,,,,0,,28-01-22,28-01-22,15:33:50,Mon Feb 28 2022 15:33:50 GMT+0100 (közép-európai téli idő),The main experiment item,yes,0,0,C:/Users/rrics/Documents/!!ResearchBMECOGSCI/gnet,0,0,0,prototype4.png,no,mono,no,18,no,black,no,no,768,1157,3.5.6,legacy,xpyriment,osweb,1.3.13,0,space,space,space,,23411,18569,23411,,2,legacy,1020,1680,24,1050,24,0,0,1680,1646058923091,1024,2,48000,-16,experiment,p1sarr1.png,1,odd,Win32,72,129953,126949,72,72,498750,500259,493750,131455,493750,72,,,,,,visual_patterns,0,0,0,yes,1366
undefined,undefined,undefined,undefined,white,no,Mozilla,Netscape,"5.0 (Windows NT 10.0; Win64; x64) AppleWebKit/537.36 (KHTML, like Gecko) Chrome/98.0.4758.102 Safari/537.36",xpyriment,legacy,legacy,0,uniform,0,0,0,0,24,24,24,0,0,53,53,53,53,53,0,53,0,,,,,,0,,28-01-22,28-01-22,15:33:50,Mon Feb 28 2022 15:33:50 GMT+0100 (közép-európai téli idő),The main experiment item,yes,0,0,C:/Users/rrics/Documents/!!ResearchBMECOGSCI/gnet,0,0,0,prototype4.png,no,mono,no,18,no,black,no,no,768,1157,3.5.6,legacy,xpyriment,osweb,1.3.13,0,space,space,space,,23411,18569,23411,,2,legacy,1020,1680,24,1050,24,0,0,1680,1646058923091,1024,2,48000,-16,experiment,p1sarrcol2.png,1,odd,Win32,72,129953,126949,72,72,505272,506773,500269,131455,500269,72,,,,,,visual_patterns,0,0,0,yes,1366
undefined,undefined,undefined,undefined,white,no,Mozilla,Netscape,"5.0 (Windows NT 10.0; Win64; x64) AppleWebKit/537.36 (KHTML, like Gecko) Chrome/98.0.4758.102 Safari/537.36",xpyriment,legacy,legacy,0,uniform,0,0,0,0,24,24,24,0,0,54,54,54,54,54,0,54,0,,,,,,0,,28-01-22,28-01-22,15:33:50,Mon Feb 28 2022 15:33:50 GMT+0100 (közép-európai téli idő),The main experiment item,yes,0,0,C:/Users/rrics/Documents/!!ResearchBMECOGSCI/gnet,0,0,0,prototype4.png,no,mono,no,18,no,black,no,no,768,1157,3.5.6,legacy,xpyriment,osweb,1.3.13,0,space,space,space,,23411,18569,23411,,2,legacy,1020,1680,24,1050,24,0,0,1680,1646058923091,1024,2,48000,-16,experiment,p2sarrcol2.png,1,odd,Win32,72,129953,126949,72,72,511795,513302,506794,131455,506794,72,,,,,,visual_patterns,0,0,0,yes,1366
undefined,undefined,undefined,undefined,white,no,Mozilla,Netscape,"5.0 (Windows NT 10.0; Win64; x64) AppleWebKit/537.36 (KHTML, like Gecko) Chrome/98.0.4758.102 Safari/537.36",xpyriment,legacy,legacy,0,uniform,0,0,0,0,24,24,24,0,0,55,55,55,55,55,0,55,0,,,,,,0,,28-01-22,28-01-22,15:33:50,Mon Feb 28 2022 15:33:50 GMT+0100 (közép-európai téli idő),The main experiment item,yes,0,0,C:/Users/rrics/Documents/!!ResearchBMECOGSCI/gnet,0,0,0,prototype4.png,no,mono,no,18,no,black,no,no,768,1157,3.5.6,legacy,xpyriment,osweb,1.3.13,0,space,space,space,,23411,18569,23411,,2,legacy,1020,1680,24,1050,24,0,0,1680,1646058923091,1024,2,48000,-16,experiment,prototype4.png,1,odd,Win32,72,129953,126949,72,72,518308,519816,513306,131455,513306,72,,,,,,visual_patterns,0,0,0,yes,1366
undefined,undefined,undefined,undefined,white,no,Mozilla,Netscape,"5.0 (Windows NT 10.0; Win64; x64) AppleWebKit/537.36 (KHTML, like Gecko) Chrome/98.0.4758.102 Safari/537.36",xpyriment,legacy,legacy,0,uniform,0,0,0,0,24,24,24,0,0,56,56,56,56,56,0,56,0,,,,,,0,,28-01-22,28-01-22,15:33:50,Mon Feb 28 2022 15:33:50 GMT+0100 (közép-európai téli idő),The main experiment item,yes,0,0,C:/Users/rrics/Documents/!!ResearchBMECOGSCI/gnet,0,0,0,prototype4.png,no,mono,no,18,no,black,no,no,768,1157,3.5.6,legacy,xpyriment,osweb,1.3.13,0,space,space,space,,23411,18569,23411,,2,legacy,1020,1680,24,1050,24,0,0,1680,1646058923091,1024,2,48000,-16,experiment,p2sarrshacol1.png,1,odd,Win32,72,129953,126949,72,72,524833,526346,519829,131455,519829,72,,,,,,visual_patterns,0,0,0,yes,1366
undefined,undefined,undefined,undefined,white,no,Mozilla,Netscape,"5.0 (Windows NT 10.0; Win64; x64) AppleWebKit/537.36 (KHTML, like Gecko) Chrome/98.0.4758.102 Safari/537.36",xpyriment,legacy,legacy,0,uniform,0,0,0,0,24,24,24,0,0,57,57,57,57,57,0,57,0,,,,,,0,,28-01-22,28-01-22,15:33:50,Mon Feb 28 2022 15:33:50 GMT+0100 (közép-európai téli idő),The main experiment item,yes,0,0,C:/Users/rrics/Documents/!!ResearchBMECOGSCI/gnet,0,0,0,prototype4.png,no,mono,no,18,no,black,no,no,768,1157,3.5.6,legacy,xpyriment,osweb,1.3.13,0,space,space,space,,23411,18569,23411,,2,legacy,1020,1680,24,1050,24,0,0,1680,1646058923091,1024,2,48000,-16,experiment,prototype5.png,1,odd,Win32,72,129953,126949,72,72,531353,532859,526349,131455,526349,72,,,,,,visual_patterns,0,0,0,yes,1366
undefined,undefined,undefined,undefined,white,no,Mozilla,Netscape,"5.0 (Windows NT 10.0; Win64; x64) AppleWebKit/537.36 (KHTML, like Gecko) Chrome/98.0.4758.102 Safari/537.36",xpyriment,legacy,legacy,0,uniform,0,0,0,0,24,24,24,0,0,58,58,58,58,58,0,58,0,,,,,,0,,28-01-22,28-01-22,15:33:50,Mon Feb 28 2022 15:33:50 GMT+0100 (közép-európai téli idő),The main experiment item,yes,0,0,C:/Users/rrics/Documents/!!ResearchBMECOGSCI/gnet,0,0,0,prototype4.png,no,mono,no,18,no,black,no,no,768,1157,3.5.6,legacy,xpyriment,osweb,1.3.13,0,space,space,space,,23411,18569,23411,,2,legacy,1020,1680,24,1050,24,0,0,1680,1646058923091,1024,2,48000,-16,experiment,prototype2.png,1,odd,Win32,72,129953,126949,72,72,537870,539373,532866,131455,532866,72,,,,,,visual_patterns,0,0,0,yes,1366
undefined,undefined,undefined,undefined,white,no,Mozilla,Netscape,"5.0 (Windows NT 10.0; Win64; x64) AppleWebKit/537.36 (KHTML, like Gecko) Chrome/98.0.4758.102 Safari/537.36",xpyriment,legacy,legacy,0,uniform,0,0,0,0,24,24,24,0,0,59,59,59,59,59,0,59,0,,,,,,0,,28-01-22,28-01-22,15:33:50,Mon Feb 28 2022 15:33:50 GMT+0100 (közép-európai téli idő),The main experiment item,yes,0,0,C:/Users/rrics/Documents/!!ResearchBMECOGSCI/gnet,0,0,0,prototype4.png,no,mono,no,18,no,black,no,no,768,1157,3.5.6,legacy,xpyriment,osweb,1.3.13,0,space,space,space,,23411,18569,23411,,2,legacy,1020,1680,24,1050,24,0,0,1680,1646058923091,1024,2,48000,-16,experiment,prototype5.png,1,odd,Win32,72,129953,126949,72,72,544383,545886,539380,131455,539380,72,,,,,,visual_patterns,0,0,0,yes,1366
undefined,undefined,undefined,undefined,white,no,Mozilla,Netscape,"5.0 (Windows NT 10.0; Win64; x64) AppleWebKit/537.36 (KHTML, like Gecko) Chrome/98.0.4758.102 Safari/537.36",xpyriment,legacy,legacy,0,uniform,0,0,0,0,24,24,24,0,0,60,60,60,60,60,0,60,0,,,,,,0,,28-01-22,28-01-22,15:33:50,Mon Feb 28 2022 15:33:50 GMT+0100 (közép-európai téli idő),The main experiment item,yes,0,0,C:/Users/rrics/Documents/!!ResearchBMECOGSCI/gnet,0,0,0,prototype4.png,no,mono,no,18,no,black,no,no,768,1157,3.5.6,legacy,xpyriment,osweb,1.3.13,0,space,space,space,,23411,18569,23411,,2,legacy,1020,1680,24,1050,24,0,0,1680,1646058923091,1024,2,48000,-16,experiment,p1sarrshacol2.png,1,odd,Win32,72,129953,126949,72,72,550894,552399,545894,131455,545894,72,,,,,,visual_patterns,0,0,0,yes,1366
undefined,undefined,undefined,undefined,white,no,Mozilla,Netscape,"5.0 (Windows NT 10.0; Win64; x64) AppleWebKit/537.36 (KHTML, like Gecko) Chrome/98.0.4758.102 Safari/537.36",xpyriment,legacy,legacy,0,uniform,0,0,0,0,24,24,24,0,0,61,61,61,61,61,0,61,0,,,,,,0,,28-01-22,28-01-22,15:33:50,Mon Feb 28 2022 15:33:50 GMT+0100 (közép-európai téli idő),The main experiment item,yes,0,0,C:/Users/rrics/Documents/!!ResearchBMECOGSCI/gnet,0,0,0,prototype4.png,no,mono,no,18,no,black,no,no,768,1157,3.5.6,legacy,xpyriment,osweb,1.3.13,0,space,space,space,,23411,18569,23411,,2,legacy,1020,1680,24,1050,24,0,0,1680,1646058923091,1024,2,48000,-16,experiment,p2sarrcol1.png,1,odd,Win32,72,129953,126949,72,72,557406,558913,552406,131455,552406,72,,,,,,visual_patterns,0,0,0,yes,1366
undefined,undefined,undefined,undefined,white,no,Mozilla,Netscape,"5.0 (Windows NT 10.0; Win64; x64) AppleWebKit/537.36 (KHTML, like Gecko) Chrome/98.0.4758.102 Safari/537.36",xpyriment,legacy,legacy,0,uniform,0,0,0,0,24,24,24,0,0,62,62,62,62,62,0,62,0,,,,,,0,,28-01-22,28-01-22,15:33:50,Mon Feb 28 2022 15:33:50 GMT+0100 (közép-európai téli idő),The main experiment item,yes,0,0,C:/Users/rrics/Documents/!!ResearchBMECOGSCI/gnet,0,0,0,prototype4.png,no,mono,no,18,no,black,no,no,768,1157,3.5.6,legacy,xpyriment,osweb,1.3.13,0,space,space,space,,23411,18569,23411,,2,legacy,1020,1680,24,1050,24,0,0,1680,1646058923091,1024,2,48000,-16,experiment,p5sarr2.png,1,odd,Win32,72,129953,126949,72,72,563920,565426,558921,131455,558921,72,,,,,,visual_patterns,0,0,0,yes,1366
undefined,undefined,undefined,undefined,white,no,Mozilla,Netscape,"5.0 (Windows NT 10.0; Win64; x64) AppleWebKit/537.36 (KHTML, like Gecko) Chrome/98.0.4758.102 Safari/537.36",xpyriment,legacy,legacy,0,uniform,0,0,0,0,24,24,24,0,0,63,63,63,63,63,0,63,0,,,,,,0,,28-01-22,28-01-22,15:33:50,Mon Feb 28 2022 15:33:50 GMT+0100 (közép-európai téli idő),The main experiment item,yes,0,0,C:/Users/rrics/Documents/!!ResearchBMECOGSCI/gnet,0,0,0,prototype4.png,no,mono,no,18,no,black,no,no,768,1157,3.5.6,legacy,xpyriment,osweb,1.3.13,0,space,space,space,,23411,18569,23411,,2,legacy,1020,1680,24,1050,24,0,0,1680,1646058923091,1024,2,48000,-16,experiment,p10sarr2.png,1,odd,Win32,72,129953,126949,72,72,570430,571939,565430,131455,565430,72,,,,,,visual_patterns,0,0,0,yes,1366
undefined,undefined,undefined,undefined,white,no,Mozilla,Netscape,"5.0 (Windows NT 10.0; Win64; x64) AppleWebKit/537.36 (KHTML, like Gecko) Chrome/98.0.4758.102 Safari/537.36",xpyriment,legacy,legacy,0,uniform,0,0,0,0,24,24,24,0,0,64,64,64,64,64,0,64,0,,,,,,0,,28-01-22,28-01-22,15:33:50,Mon Feb 28 2022 15:33:50 GMT+0100 (közép-európai téli idő),The main experiment item,yes,0,0,C:/Users/rrics/Documents/!!ResearchBMECOGSCI/gnet,0,0,0,prototype4.png,no,mono,no,18,no,black,no,no,768,1157,3.5.6,legacy,xpyriment,osweb,1.3.13,0,space,space,space,,23411,18569,23411,,2,legacy,1020,1680,24,1050,24,0,0,1680,1646058923091,1024,2,48000,-16,experiment,prototype1.png,1,odd,Win32,72,129953,126949,72,72,576947,578453,571943,131455,571943,72,,,,,,visual_patterns,0,0,0,yes,1366
undefined,undefined,undefined,undefined,white,no,Mozilla,Netscape,"5.0 (Windows NT 10.0; Win64; x64) AppleWebKit/537.36 (KHTML, like Gecko) Chrome/98.0.4758.102 Safari/537.36",xpyriment,legacy,legacy,0,uniform,0,0,0,0,24,24,24,0,0,65,65,65,65,65,0,65,0,,,,,,0,,28-01-22,28-01-22,15:33:50,Mon Feb 28 2022 15:33:50 GMT+0100 (közép-európai téli idő),The main experiment item,yes,0,0,C:/Users/rrics/Documents/!!ResearchBMECOGSCI/gnet,0,0,0,prototype4.png,no,mono,no,18,no,black,no,no,768,1157,3.5.6,legacy,xpyriment,osweb,1.3.13,0,space,space,space,,23411,18569,23411,,2,legacy,1020,1680,24,1050,24,0,0,1680,1646058923091,1024,2,48000,-16,experiment,prototype4.png,1,odd,Win32,72,129953,126949,72,72,583465,584966,578462,131455,578462,72,,,,,,visual_patterns,0,0,0,yes,1366
undefined,undefined,undefined,undefined,white,no,Mozilla,Netscape,"5.0 (Windows NT 10.0; Win64; x64) AppleWebKit/537.36 (KHTML, like Gecko) Chrome/98.0.4758.102 Safari/537.36",xpyriment,legacy,legacy,0,uniform,0,0,0,0,24,24,24,0,0,66,66,66,66,66,0,66,0,,,,,,0,,28-01-22,28-01-22,15:33:50,Mon Feb 28 2022 15:33:50 GMT+0100 (közép-európai téli idő),The main experiment item,yes,0,0,C:/Users/rrics/Documents/!!ResearchBMECOGSCI/gnet,0,0,0,prototype4.png,no,mono,no,18,no,black,no,no,768,1157,3.5.6,legacy,xpyriment,osweb,1.3.13,0,space,space,space,,23411,18569,23411,,2,legacy,1020,1680,24,1050,24,0,0,1680,1646058923091,1024,2,48000,-16,experiment,p2sarrshacol2.png,1,odd,Win32,72,129953,126949,72,72,589974,591479,584974,131455,584974,72,,,,,,visual_patterns,0,0,0,yes,1366
undefined,undefined,undefined,undefined,white,no,Mozilla,Netscape,"5.0 (Windows NT 10.0; Win64; x64) AppleWebKit/537.36 (KHTML, like Gecko) Chrome/98.0.4758.102 Safari/537.36",xpyriment,legacy,legacy,0,uniform,0,0,0,0,24,24,24,0,0,67,67,67,67,67,0,67,0,,,,,,0,,28-01-22,28-01-22,15:33:50,Mon Feb 28 2022 15:33:50 GMT+0100 (közép-európai téli idő),The main experiment item,yes,0,0,C:/Users/rrics/Documents/!!ResearchBMECOGSCI/gnet,0,0,0,prototype4.png,no,mono,no,18,no,black,no,no,768,1157,3.5.6,legacy,xpyriment,osweb,1.3.13,0,space,space,space,,23411,18569,23411,,2,legacy,1020,1680,24,1050,24,0,0,1680,1646058923091,1024,2,48000,-16,experiment,p1sarr2.png,1,odd,Win32,72,129953,126949,72,72,596485,597993,591484,131455,591484,72,,,,,,visual_patterns,0,0,0,yes,1366
undefined,undefined,undefined,undefined,white,no,Mozilla,Netscape,"5.0 (Windows NT 10.0; Win64; x64) AppleWebKit/537.36 (KHTML, like Gecko) Chrome/98.0.4758.102 Safari/537.36",xpyriment,legacy,legacy,0,uniform,0,0,0,0,24,24,24,0,0,68,68,68,68,68,0,68,0,,,,,,0,,28-01-22,28-01-22,15:33:50,Mon Feb 28 2022 15:33:50 GMT+0100 (közép-európai téli idő),The main experiment item,yes,0,0,C:/Users/rrics/Documents/!!ResearchBMECOGSCI/gnet,0,0,0,prototype4.png,no,mono,no,18,no,black,no,no,768,1157,3.5.6,legacy,xpyriment,osweb,1.3.13,0,space,space,space,,23411,18569,23411,,2,legacy,1020,1680,24,1050,24,0,0,1680,1646058923091,1024,2,48000,-16,experiment,p6sarr2.png,1,odd,Win32,72,129953,126949,72,72,603003,604506,598003,131455,598003,72,,,,,,visual_patterns,0,0,0,yes,1366
undefined,undefined,undefined,undefined,white,no,Mozilla,Netscape,"5.0 (Windows NT 10.0; Win64; x64) AppleWebKit/537.36 (KHTML, like Gecko) Chrome/98.0.4758.102 Safari/537.36",xpyriment,legacy,legacy,0,uniform,0,0,0,0,24,24,24,0,0,69,69,69,69,69,0,69,0,,,,,,0,,28-01-22,28-01-22,15:33:50,Mon Feb 28 2022 15:33:50 GMT+0100 (közép-európai téli idő),The main experiment item,yes,0,0,C:/Users/rrics/Documents/!!ResearchBMECOGSCI/gnet,0,0,0,prototype4.png,no,mono,no,18,no,black,no,no,768,1157,3.5.6,legacy,xpyriment,osweb,1.3.13,0,space,space,space,,23411,18569,23411,,2,legacy,1020,1680,24,1050,24,0,0,1680,1646058923091,1024,2,48000,-16,experiment,prototype2.png,1,odd,Win32,72,129953,126949,72,72,609520,611036,604519,131455,604519,72,,,,,,visual_patterns,0,0,0,yes,1366
undefined,undefined,undefined,undefined,white,no,Mozilla,Netscape,"5.0 (Windows NT 10.0; Win64; x64) AppleWebKit/537.36 (KHTML, like Gecko) Chrome/98.0.4758.102 Safari/537.36",xpyriment,legacy,legacy,0,uniform,0,0,0,0,24,24,24,0,0,70,70,70,70,70,0,70,0,,,,,,0,,28-01-22,28-01-22,15:33:50,Mon Feb 28 2022 15:33:50 GMT+0100 (közép-európai téli idő),The main experiment item,yes,0,0,C:/Users/rrics/Documents/!!ResearchBMECOGSCI/gnet,0,0,0,prototype4.png,no,mono,no,18,no,black,no,no,768,1157,3.5.6,legacy,xpyriment,osweb,1.3.13,0,space,space,space,,23411,18569,23411,,2,legacy,1020,1680,24,1050,24,0,0,1680,1646058923091,1024,2,48000,-16,experiment,p1sarrshacol1.png,1,odd,Win32,72,129953,126949,72,72,616043,617549,611045,131455,611045,72,,,,,,visual_patterns,0,0,0,yes,1366
undefined,undefined,undefined,undefined,white,no,Mozilla,Netscape,"5.0 (Windows NT 10.0; Win64; x64) AppleWebKit/537.36 (KHTML, like Gecko) Chrome/98.0.4758.102 Safari/537.36",xpyriment,legacy,legacy,0,uniform,0,0,0,0,24,24,24,0,0,71,71,71,71,71,0,71,0,,,,,,0,,28-01-22,28-01-22,15:33:50,Mon Feb 28 2022 15:33:50 GMT+0100 (közép-európai téli idő),The main experiment item,yes,0,0,C:/Users/rrics/Documents/!!ResearchBMECOGSCI/gnet,0,0,0,prototype4.png,no,mono,no,18,no,black,no,no,768,1157,3.5.6,legacy,xpyriment,osweb,1.3.13,0,space,space,space,,23411,18569,23411,,2,legacy,1020,1680,24,1050,24,0,0,1680,1646058923091,1024,2,48000,-16,experiment,prototype1.png,1,odd,Win32,72,129953,126949,72,72,622560,624063,617559,131455,617559,72,,,,,,visual_patterns,0,0,0,yes,1366
undefined,undefined,undefined,undefined,white,no,Mozilla,Netscape,"5.0 (Windows NT 10.0; Win64; x64) AppleWebKit/537.36 (KHTML, like Gecko) Chrome/98.0.4758.102 Safari/537.36",xpyriment,legacy,legacy,0,uniform,0,0,0,0,24,24,24,0,0,72,72,72,72,72,0,72,0,,,,,,0,,28-01-22,28-01-22,15:33:50,Mon Feb 28 2022 15:33:50 GMT+0100 (közép-európai téli idő),The main experiment item,yes,0,0,C:/Users/rrics/Documents/!!ResearchBMECOGSCI/gnet,0,0,0,prototype4.png,no,mono,no,18,no,black,no,no,768,1157,3.5.6,legacy,xpyriment,osweb,1.3.13,0,space,space,space,,23411,18569,23411,,2,legacy,1020,1680,24,1050,24,0,0,1680,1646058923091,1024,2,48000,-16,experiment,prototype5.png,1,odd,Win32,72,129953,126949,72,72,629075,630576,624075,131455,624075,72,,,,,,visual_patterns,0,0,0,yes,1366
undefined,undefined,undefined,undefined,white,no,Mozilla,Netscape,"5.0 (Windows NT 10.0; Win64; x64) AppleWebKit/537.36 (KHTML, like Gecko) Chrome/98.0.4758.102 Safari/537.36",xpyriment,legacy,legacy,0,uniform,0,0,0,0,24,24,24,0,0,73,73,73,73,73,0,73,0,,,,,,0,,28-01-22,28-01-22,15:33:50,Mon Feb 28 2022 15:33:50 GMT+0100 (közép-európai téli idő),The main experiment item,yes,0,0,C:/Users/rrics/Documents/!!ResearchBMECOGSCI/gnet,0,0,0,prototype4.png,no,mono,no,18,no,black,no,no,768,1157,3.5.6,legacy,xpyriment,osweb,1.3.13,0,space,space,space,,23411,18569,23411,,2,legacy,1020,1680,24,1050,24,0,0,1680,1646058923091,1024,2,48000,-16,experiment,prototype3.png,1,odd,Win32,72,129953,126949,72,72,635583,637089,630583,131455,630583,72,,,,,,visual_patterns,0,0,0,yes,1366
undefined,undefined,undefined,undefined,white,no,Mozilla,Netscape,"5.0 (Windows NT 10.0; Win64; x64) AppleWebKit/537.36 (KHTML, like Gecko) Chrome/98.0.4758.102 Safari/537.36",xpyriment,legacy,legacy,0,uniform,0,0,0,0,24,24,24,0,0,74,74,74,74,74,0,74,0,,,,,,0,,28-01-22,28-01-22,15:33:50,Mon Feb 28 2022 15:33:50 GMT+0100 (közép-európai téli idő),The main experiment item,yes,0,0,C:/Users/rrics/Documents/!!ResearchBMECOGSCI/gnet,0,0,0,prototype4.png,no,mono,no,18,no,black,no,no,768,1157,3.5.6,legacy,xpyriment,osweb,1.3.13,0,space,space,space,,23411,18569,23411,,2,legacy,1020,1680,24,1050,24,0,0,1680,1646058923091,1024,2,48000,-16,experiment,prototype2.png,1,odd,Win32,72,129953,126949,72,72,642100,643603,637096,131455,637096,72,,,,,,visual_patterns,0,0,0,yes,1366
undefined,undefined,undefined,undefined,white,no,Mozilla,Netscape,"5.0 (Windows NT 10.0; Win64; x64) AppleWebKit/537.36 (KHTML, like Gecko) Chrome/98.0.4758.102 Safari/537.36",xpyriment,legacy,legacy,0,uniform,0,0,0,0,24,24,24,0,0,74,74,74,74,74,0,74,0,0,0,0,0,0,0,0,28-01-22,28-01-22,15:33:50,Mon Feb 28 2022 15:33:50 GMT+0100 (közép-európai téli idő),The main experiment item,yes,0,0,C:/Users/rrics/Documents/!!ResearchBMECOGSCI/gnet,0,0,0,prototype4.png,no,mono,no,18,no,black,no,no,768,1157,3.5.6,legacy,xpyriment,osweb,1.3.13,0,space,space,space,space,28805,18569,23411,28805,2,legacy,1020,1680,24,1050,24,0,0,1680,1646058923091,1024,2,48000,-16,experiment,p5sarrsha3.png,1,odd,Win32,72,129953,126949,72,72,642100,643603,637096,131455,637096,72,675420,676921,672421,643607,672421,visual_patterns,0,0,0,yes,1366
undefined,undefined,undefined,undefined,white,no,Mozilla,Netscape,"5.0 (Windows NT 10.0; Win64; x64) AppleWebKit/537.36 (KHTML, like Gecko) Chrome/98.0.4758.102 Safari/537.36",xpyriment,legacy,legacy,0,uniform,0,0,0,0,24,24,24,0,0,74,74,74,74,74,0,74,0,1,1,1,1,1,0,1,28-01-22,28-01-22,15:33:50,Mon Feb 28 2022 15:33:50 GMT+0100 (közép-európai téli idő),The main experiment item,yes,0,0,C:/Users/rrics/Documents/!!ResearchBMECOGSCI/gnet,0,0,0,prototype4.png,no,mono,no,18,no,black,no,no,768,1157,3.5.6,legacy,xpyriment,osweb,1.3.13,0,space,space,space,space,28805,18569,23411,28805,2,legacy,1020,1680,24,1050,24,0,0,1680,1646058923091,1024,2,48000,-16,experiment,p2sarrshacol1.png,1,odd,Win32,72,129953,126949,72,72,642100,643603,637096,131455,637096,72,679937,681447,676937,643607,676937,visual_patterns,0,0,0,yes,1366
undefined,undefined,undefined,undefined,white,no,Mozilla,Netscape,"5.0 (Windows NT 10.0; Win64; x64) AppleWebKit/537.36 (KHTML, like Gecko) Chrome/98.0.4758.102 Safari/537.36",xpyriment,legacy,legacy,0,uniform,0,0,0,0,24,24,24,0,0,74,74,74,74,74,0,74,0,2,2,2,2,2,0,2,28-01-22,28-01-22,15:33:50,Mon Feb 28 2022 15:33:50 GMT+0100 (közép-európai téli idő),The main experiment item,yes,0,0,C:/Users/rrics/Documents/!!ResearchBMECOGSCI/gnet,0,0,0,prototype4.png,no,mono,no,18,no,black,no,no,768,1157,3.5.6,legacy,xpyriment,osweb,1.3.13,0,space,space,space,space,28805,18569,23411,28805,2,legacy,1020,1680,24,1050,24,0,0,1680,1646058923091,1024,2,48000,-16,experiment,p4sarr4.png,1,odd,Win32,72,129953,126949,72,72,642100,643603,637096,131455,637096,72,684454,685956,681454,643607,681454,visual_patterns,0,0,0,yes,1366
undefined,undefined,undefined,undefined,white,no,Mozilla,Netscape,"5.0 (Windows NT 10.0; Win64; x64) AppleWebKit/537.36 (KHTML, like Gecko) Chrome/98.0.4758.102 Safari/537.36",xpyriment,legacy,legacy,0,uniform,0,0,0,0,24,24,24,0,0,74,74,74,74,74,0,74,0,3,3,3,3,3,0,3,28-01-22,28-01-22,15:33:50,Mon Feb 28 2022 15:33:50 GMT+0100 (közép-európai téli idő),The main experiment item,yes,0,0,C:/Users/rrics/Documents/!!ResearchBMECOGSCI/gnet,0,0,0,prototype4.png,no,mono,no,18,no,black,no,no,768,1157,3.5.6,legacy,xpyriment,osweb,1.3.13,0,space,space,space,space,28805,18569,23411,28805,2,legacy,1020,1680,24,1050,24,0,0,1680,1646058923091,1024,2,48000,-16,experiment,p5sarrsha2.png,1,odd,Win32,72,129953,126949,72,72,642100,643603,637096,131455,637096,72,688968,690482,685966,643607,685966,visual_patterns,0,0,0,yes,1366
undefined,undefined,undefined,undefined,white,no,Mozilla,Netscape,"5.0 (Windows NT 10.0; Win64; x64) AppleWebKit/537.36 (KHTML, like Gecko) Chrome/98.0.4758.102 Safari/537.36",xpyriment,legacy,legacy,0,uniform,0,0,0,0,24,24,24,0,0,74,74,74,74,74,0,74,0,4,4,4,4,4,0,4,28-01-22,28-01-22,15:33:50,Mon Feb 28 2022 15:33:50 GMT+0100 (közép-európai téli idő),The main experiment item,yes,0,0,C:/Users/rrics/Documents/!!ResearchBMECOGSCI/gnet,0,0,0,prototype4.png,no,mono,no,18,no,black,no,no,768,1157,3.5.6,legacy,xpyriment,osweb,1.3.13,0,space,space,space,space,28805,18569,23411,28805,2,legacy,1020,1680,24,1050,24,0,0,1680,1646058923091,1024,2,48000,-16,experiment,p7sarr2.png,1,odd,Win32,72,129953,126949,72,72,642100,643603,637096,131455,637096,72,693497,695008,690494,643607,690494,visual_patterns,0,0,0,yes,1366
undefined,undefined,undefined,undefined,white,no,Mozilla,Netscape,"5.0 (Windows NT 10.0; Win64; x64) AppleWebKit/537.36 (KHTML, like Gecko) Chrome/98.0.4758.102 Safari/537.36",xpyriment,legacy,legacy,0,uniform,0,0,0,0,24,24,24,0,0,74,74,74,74,74,0,74,0,5,5,5,5,5,0,5,28-01-22,28-01-22,15:33:50,Mon Feb 28 2022 15:33:50 GMT+0100 (közép-európai téli idő),The main experiment item,yes,0,0,C:/Users/rrics/Documents/!!ResearchBMECOGSCI/gnet,0,0,0,prototype4.png,no,mono,no,18,no,black,no,no,768,1157,3.5.6,legacy,xpyriment,osweb,1.3.13,0,space,space,space,space,28805,18569,23411,28805,2,legacy,1020,1680,24,1050,24,0,0,1680,1646058923091,1024,2,48000,-16,experiment,p1sarrsha4.png,1,odd,Win32,72,129953,126949,72,72,642100,643603,637096,131455,637096,72,698019,699534,695017,643607,695017,visual_patterns,0,0,0,yes,1366
undefined,undefined,undefined,undefined,white,no,Mozilla,Netscape,"5.0 (Windows NT 10.0; Win64; x64) AppleWebKit/537.36 (KHTML, like Gecko) Chrome/98.0.4758.102 Safari/537.36",xpyriment,legacy,legacy,0,uniform,0,0,0,0,24,24,24,0,0,74,74,74,74,74,0,74,0,6,6,6,6,6,0,6,28-01-22,28-01-22,15:33:50,Mon Feb 28 2022 15:33:50 GMT+0100 (közép-európai téli idő),The main experiment item,yes,0,0,C:/Users/rrics/Documents/!!ResearchBMECOGSCI/gnet,0,0,0,prototype4.png,no,mono,no,18,no,black,no,no,768,1157,3.5.6,legacy,xpyriment,osweb,1.3.13,0,space,space,space,space,28805,18569,23411,28805,2,legacy,1020,1680,24,1050,24,0,0,1680,1646058923091,1024,2,48000,-16,experiment,p3sarrcol2.png,1,odd,Win32,72,129953,126949,72,72,642100,643603,637096,131455,637096,72,702542,704043,699542,643607,699542,visual_patterns,0,0,0,yes,1366
undefined,undefined,undefined,undefined,white,no,Mozilla,Netscape,"5.0 (Windows NT 10.0; Win64; x64) AppleWebKit/537.36 (KHTML, like Gecko) Chrome/98.0.4758.102 Safari/537.36",xpyriment,legacy,legacy,0,uniform,0,0,0,0,24,24,24,0,0,74,74,74,74,74,0,74,0,7,7,7,7,7,0,7,28-01-22,28-01-22,15:33:50,Mon Feb 28 2022 15:33:50 GMT+0100 (közép-európai téli idő),The main experiment item,yes,0,0,C:/Users/rrics/Documents/!!ResearchBMECOGSCI/gnet,0,0,0,prototype4.png,no,mono,no,18,no,black,no,no,768,1157,3.5.6,legacy,xpyriment,osweb,1.3.13,0,space,space,space,space,28805,18569,23411,28805,2,legacy,1020,1680,24,1050,24,0,0,1680,1646058923091,1024,2,48000,-16,experiment,p3sarrcol3.png,1,odd,Win32,72,129953,126949,72,72,642100,643603,637096,131455,637096,72,707060,708569,704060,643607,704060,visual_patterns,0,0,0,yes,1366
undefined,undefined,undefined,undefined,white,no,Mozilla,Netscape,"5.0 (Windows NT 10.0; Win64; x64) AppleWebKit/537.36 (KHTML, like Gecko) Chrome/98.0.4758.102 Safari/537.36",xpyriment,legacy,legacy,0,uniform,0,0,0,0,24,24,24,0,0,74,74,74,74,74,0,74,0,8,8,8,8,8,0,8,28-01-22,28-01-22,15:33:50,Mon Feb 28 2022 15:33:50 GMT+0100 (közép-európai téli idő),The main experiment item,yes,0,0,C:/Users/rrics/Documents/!!ResearchBMECOGSCI/gnet,0,0,0,prototype4.png,no,mono,no,18,no,black,no,no,768,1157,3.5.6,legacy,xpyriment,osweb,1.3.13,0,space,space,space,space,28805,18569,23411,28805,2,legacy,1020,1680,24,1050,24,0,0,1680,1646058923091,1024,2,48000,-16,experiment,p1sarrsha1.png,1,odd,Win32,72,129953,126949,72,72,642100,643603,637096,131455,637096,72,711585,713095,708586,643607,708586,visual_patterns,0,0,0,yes,1366
undefined,undefined,undefined,undefined,white,no,Mozilla,Netscape,"5.0 (Windows NT 10.0; Win64; x64) AppleWebKit/537.36 (KHTML, like Gecko) Chrome/98.0.4758.102 Safari/537.36",xpyriment,legacy,legacy,0,uniform,0,0,0,0,24,24,24,0,0,74,74,74,74,74,0,74,0,9,9,9,9,9,0,9,28-01-22,28-01-22,15:33:50,Mon Feb 28 2022 15:33:50 GMT+0100 (közép-európai téli idő),The main experiment item,yes,0,0,C:/Users/rrics/Documents/!!ResearchBMECOGSCI/gnet,0,0,0,prototype4.png,no,mono,no,18,no,black,no,no,768,1157,3.5.6,legacy,xpyriment,osweb,1.3.13,0,space,space,space,space,28805,18569,23411,28805,2,legacy,1020,1680,24,1050,24,0,0,1680,1646058923091,1024,2,48000,-16,experiment,p4sarr1.png,1,odd,Win32,72,129953,126949,72,72,642100,643603,637096,131455,637096,72,716106,717621,713103,643607,713103,visual_patterns,0,0,0,yes,1366
undefined,undefined,undefined,undefined,white,no,Mozilla,Netscape,"5.0 (Windows NT 10.0; Win64; x64) AppleWebKit/537.36 (KHTML, like Gecko) Chrome/98.0.4758.102 Safari/537.36",xpyriment,legacy,legacy,0,uniform,0,0,0,0,24,24,24,0,0,74,74,74,74,74,0,74,0,10,10,10,10,10,0,10,28-01-22,28-01-22,15:33:50,Mon Feb 28 2022 15:33:50 GMT+0100 (közép-európai téli idő),The main experiment item,yes,0,0,C:/Users/rrics/Documents/!!ResearchBMECOGSCI/gnet,0,0,0,prototype4.png,no,mono,no,18,no,black,no,no,768,1157,3.5.6,legacy,xpyriment,osweb,1.3.13,0,space,space,space,space,28805,18569,23411,28805,2,legacy,1020,1680,24,1050,24,0,0,1680,1646058923091,1024,2,48000,-16,experiment,p9sarr2.png,1,odd,Win32,72,129953,126949,72,72,642100,643603,637096,131455,637096,72,720628,722130,717627,643607,717627,visual_patterns,0,0,0,yes,1366
undefined,undefined,undefined,undefined,white,no,Mozilla,Netscape,"5.0 (Windows NT 10.0; Win64; x64) AppleWebKit/537.36 (KHTML, like Gecko) Chrome/98.0.4758.102 Safari/537.36",xpyriment,legacy,legacy,0,uniform,0,0,0,0,24,24,24,0,0,74,74,74,74,74,0,74,0,11,11,11,11,11,0,11,28-01-22,28-01-22,15:33:50,Mon Feb 28 2022 15:33:50 GMT+0100 (közép-európai téli idő),The main experiment item,yes,0,0,C:/Users/rrics/Documents/!!ResearchBMECOGSCI/gnet,0,0,0,prototype4.png,no,mono,no,18,no,black,no,no,768,1157,3.5.6,legacy,xpyriment,osweb,1.3.13,0,space,space,space,space,28805,18569,23411,28805,2,legacy,1020,1680,24,1050,24,0,0,1680,1646058923091,1024,2,48000,-16,experiment,p1sarr2.png,1,odd,Win32,72,129953,126949,72,72,642100,643603,637096,131455,637096,72,725138,726639,722138,643607,722138,visual_patterns,0,0,0,yes,1366
undefined,undefined,undefined,undefined,white,no,Mozilla,Netscape,"5.0 (Windows NT 10.0; Win64; x64) AppleWebKit/537.36 (KHTML, like Gecko) Chrome/98.0.4758.102 Safari/537.36",xpyriment,legacy,legacy,0,uniform,0,0,0,0,24,24,24,0,0,74,74,74,74,74,0,74,0,12,12,12,12,12,0,12,28-01-22,28-01-22,15:33:50,Mon Feb 28 2022 15:33:50 GMT+0100 (közép-európai téli idő),The main experiment item,yes,0,0,C:/Users/rrics/Documents/!!ResearchBMECOGSCI/gnet,0,0,0,prototype4.png,no,mono,no,18,no,black,no,no,768,1157,3.5.6,legacy,xpyriment,osweb,1.3.13,0,space,space,space,space,28805,18569,23411,28805,2,legacy,1020,1680,24,1050,24,0,0,1680,1646058923091,1024,2,48000,-16,experiment,p3sarrcol4.png,1,odd,Win32,72,129953,126949,72,72,642100,643603,637096,131455,637096,72,729648,731165,726648,643607,726648,visual_patterns,0,0,0,yes,1366
undefined,undefined,undefined,undefined,white,no,Mozilla,Netscape,"5.0 (Windows NT 10.0; Win64; x64) AppleWebKit/537.36 (KHTML, like Gecko) Chrome/98.0.4758.102 Safari/537.36",xpyriment,legacy,legacy,0,uniform,0,0,0,0,24,24,24,0,0,74,74,74,74,74,0,74,0,13,13,13,13,13,0,13,28-01-22,28-01-22,15:33:50,Mon Feb 28 2022 15:33:50 GMT+0100 (közép-európai téli idő),The main experiment item,yes,0,0,C:/Users/rrics/Documents/!!ResearchBMECOGSCI/gnet,0,0,0,prototype4.png,no,mono,no,18,no,black,no,no,768,1157,3.5.6,legacy,xpyriment,osweb,1.3.13,0,space,space,space,space,28805,18569,23411,28805,2,legacy,1020,1680,24,1050,24,0,0,1680,1646058923091,1024,2,48000,-16,experiment,p2sarrshacol2.png,1,odd,Win32,72,129953,126949,72,72,642100,643603,637096,131455,637096,72,734176,735691,731175,643607,731175,visual_patterns,0,0,0,yes,1366
undefined,undefined,undefined,undefined,white,no,Mozilla,Netscape,"5.0 (Windows NT 10.0; Win64; x64) AppleWebKit/537.36 (KHTML, like Gecko) Chrome/98.0.4758.102 Safari/537.36",xpyriment,legacy,legacy,0,uniform,0,0,0,0,24,24,24,0,0,74,74,74,74,74,0,74,0,14,14,14,14,14,0,14,28-01-22,28-01-22,15:33:50,Mon Feb 28 2022 15:33:50 GMT+0100 (közép-európai téli idő),The main experiment item,yes,0,0,C:/Users/rrics/Documents/!!ResearchBMECOGSCI/gnet,0,0,0,prototype4.png,no,mono,no,18,no,black,no,no,768,1157,3.5.6,legacy,xpyriment,osweb,1.3.13,0,space,space,space,space,28805,18569,23411,28805,2,legacy,1020,1680,24,1050,24,0,0,1680,1646058923091,1024,2,48000,-16,experiment,p6sarr1.png,1,odd,Win32,72,129953,126949,72,72,642100,643603,637096,131455,637096,72,738705,740217,735702,643607,735702,visual_patterns,0,0,0,yes,1366
undefined,undefined,undefined,undefined,white,no,Mozilla,Netscape,"5.0 (Windows NT 10.0; Win64; x64) AppleWebKit/537.36 (KHTML, like Gecko) Chrome/98.0.4758.102 Safari/537.36",xpyriment,legacy,legacy,0,uniform,0,0,0,0,24,24,24,0,0,74,74,74,74,74,0,74,0,15,15,15,15,15,0,15,28-01-22,28-01-22,15:33:50,Mon Feb 28 2022 15:33:50 GMT+0100 (közép-európai téli idő),The main experiment item,yes,0,0,C:/Users/rrics/Documents/!!ResearchBMECOGSCI/gnet,0,0,0,prototype4.png,no,mono,no,18,no,black,no,no,768,1157,3.5.6,legacy,xpyriment,osweb,1.3.13,0,space,space,space,space,28805,18569,23411,28805,2,legacy,1020,1680,24,1050,24,0,0,1680,1646058923091,1024,2,48000,-16,experiment,p4sarrshacol3.png,1,odd,Win32,72,129953,126949,72,72,642100,643603,637096,131455,637096,72,743228,744743,740226,643607,740226,visual_patterns,0,0,0,yes,1366
undefined,undefined,undefined,undefined,white,no,Mozilla,Netscape,"5.0 (Windows NT 10.0; Win64; x64) AppleWebKit/537.36 (KHTML, like Gecko) Chrome/98.0.4758.102 Safari/537.36",xpyriment,legacy,legacy,0,uniform,0,0,0,0,24,24,24,0,0,74,74,74,74,74,0,74,0,16,16,16,16,16,0,16,28-01-22,28-01-22,15:33:50,Mon Feb 28 2022 15:33:50 GMT+0100 (közép-európai téli idő),The main experiment item,yes,0,0,C:/Users/rrics/Documents/!!ResearchBMECOGSCI/gnet,0,0,0,prototype4.png,no,mono,no,18,no,black,no,no,768,1157,3.5.6,legacy,xpyriment,osweb,1.3.13,0,space,space,space,space,28805,18569,23411,28805,2,legacy,1020,1680,24,1050,24,0,0,1680,1646058923091,1024,2,48000,-16,experiment,p4sarrshacol4.png,1,odd,Win32,72,129953,126949,72,72,642100,643603,637096,131455,637096,72,747754,749269,744752,643607,744752,visual_patterns,0,0,0,yes,1366
undefined,undefined,undefined,undefined,white,no,Mozilla,Netscape,"5.0 (Windows NT 10.0; Win64; x64) AppleWebKit/537.36 (KHTML, like Gecko) Chrome/98.0.4758.102 Safari/537.36",xpyriment,legacy,legacy,0,uniform,0,0,0,0,24,24,24,0,0,74,74,74,74,74,0,74,0,17,17,17,17,17,0,17,28-01-22,28-01-22,15:33:50,Mon Feb 28 2022 15:33:50 GMT+0100 (közép-európai téli idő),The main experiment item,yes,0,0,C:/Users/rrics/Documents/!!ResearchBMECOGSCI/gnet,0,0,0,prototype4.png,no,mono,no,18,no,black,no,no,768,1157,3.5.6,legacy,xpyriment,osweb,1.3.13,0,space,space,space,space,28805,18569,23411,28805,2,legacy,1020,1680,24,1050,24,0,0,1680,1646058923091,1024,2,48000,-16,experiment,p2sarrcol1.png,1,odd,Win32,72,129953,126949,72,72,642100,643603,637096,131455,637096,72,752278,753795,749277,643607,749277,visual_patterns,0,0,0,yes,1366
undefined,undefined,undefined,undefined,white,no,Mozilla,Netscape,"5.0 (Windows NT 10.0; Win64; x64) AppleWebKit/537.36 (KHTML, like Gecko) Chrome/98.0.4758.102 Safari/537.36",xpyriment,legacy,legacy,0,uniform,0,0,0,0,24,24,24,0,0,74,74,74,74,74,0,74,0,18,18,18,18,18,0,18,28-01-22,28-01-22,15:33:50,Mon Feb 28 2022 15:33:50 GMT+0100 (közép-európai téli idő),The main experiment item,yes,0,0,C:/Users/rrics/Documents/!!ResearchBMECOGSCI/gnet,0,0,0,prototype4.png,no,mono,no,18,no,black,no,no,768,1157,3.5.6,legacy,xpyriment,osweb,1.3.13,0,space,space,space,space,28805,18569,23411,28805,2,legacy,1020,1680,24,1050,24,0,0,1680,1646058923091,1024,2,48000,-16,experiment,p1sarr4.png,1,odd,Win32,72,129953,126949,72,72,642100,643603,637096,131455,637096,72,756804,758321,753804,643607,753804,visual_patterns,0,0,0,yes,1366
undefined,undefined,undefined,undefined,white,no,Mozilla,Netscape,"5.0 (Windows NT 10.0; Win64; x64) AppleWebKit/537.36 (KHTML, like Gecko) Chrome/98.0.4758.102 Safari/537.36",xpyriment,legacy,legacy,0,uniform,0,0,0,0,24,24,24,0,0,74,74,74,74,74,0,74,0,19,19,19,19,19,0,19,28-01-22,28-01-22,15:33:50,Mon Feb 28 2022 15:33:50 GMT+0100 (közép-európai téli idő),The main experiment item,yes,0,0,C:/Users/rrics/Documents/!!ResearchBMECOGSCI/gnet,0,0,0,prototype4.png,no,mono,no,18,no,black,no,no,768,1157,3.5.6,legacy,xpyriment,osweb,1.3.13,0,space,space,space,space,28805,18569,23411,28805,2,legacy,1020,1680,24,1050,24,0,0,1680,1646058923091,1024,2,48000,-16,experiment,p10sarr1.png,1,odd,Win32,72,129953,126949,72,72,642100,643603,637096,131455,637096,72,761335,762847,758331,643607,758331,visual_patterns,0,0,0,yes,1366
undefined,undefined,undefined,undefined,white,no,Mozilla,Netscape,"5.0 (Windows NT 10.0; Win64; x64) AppleWebKit/537.36 (KHTML, like Gecko) Chrome/98.0.4758.102 Safari/537.36",xpyriment,legacy,legacy,0,uniform,0,0,0,0,24,24,24,0,0,74,74,74,74,74,0,74,0,20,20,20,20,20,0,20,28-01-22,28-01-22,15:33:50,Mon Feb 28 2022 15:33:50 GMT+0100 (közép-európai téli idő),The main experiment item,yes,0,0,C:/Users/rrics/Documents/!!ResearchBMECOGSCI/gnet,0,0,0,prototype4.png,no,mono,no,18,no,black,no,no,768,1157,3.5.6,legacy,xpyriment,osweb,1.3.13,0,space,space,space,space,28805,18569,23411,28805,2,legacy,1020,1680,24,1050,24,0,0,1680,1646058923091,1024,2,48000,-16,experiment,p8sarr3.png,1,odd,Win32,72,129953,126949,72,72,642100,643603,637096,131455,637096,72,765857,767373,762857,643607,762857,visual_patterns,0,0,0,yes,1366
undefined,undefined,undefined,undefined,white,no,Mozilla,Netscape,"5.0 (Windows NT 10.0; Win64; x64) AppleWebKit/537.36 (KHTML, like Gecko) Chrome/98.0.4758.102 Safari/537.36",xpyriment,legacy,legacy,0,uniform,0,0,0,0,24,24,24,0,0,74,74,74,74,74,0,74,0,21,21,21,21,21,0,21,28-01-22,28-01-22,15:33:50,Mon Feb 28 2022 15:33:50 GMT+0100 (közép-európai téli idő),The main experiment item,yes,0,0,C:/Users/rrics/Documents/!!ResearchBMECOGSCI/gnet,0,0,0,prototype4.png,no,mono,no,18,no,black,no,no,768,1157,3.5.6,legacy,xpyriment,osweb,1.3.13,0,space,space,space,space,28805,18569,23411,28805,2,legacy,1020,1680,24,1050,24,0,0,1680,1646058923091,1024,2,48000,-16,experiment,p9sarr4.png,1,odd,Win32,72,129953,126949,72,72,642100,643603,637096,131455,637096,72,770382,771899,767383,643607,767383,visual_patterns,0,0,0,yes,1366
undefined,undefined,undefined,undefined,white,no,Mozilla,Netscape,"5.0 (Windows NT 10.0; Win64; x64) AppleWebKit/537.36 (KHTML, like Gecko) Chrome/98.0.4758.102 Safari/537.36",xpyriment,legacy,legacy,0,uniform,0,0,0,0,24,24,24,0,0,74,74,74,74,74,0,74,0,22,22,22,22,22,0,22,28-01-22,28-01-22,15:33:50,Mon Feb 28 2022 15:33:50 GMT+0100 (közép-európai téli idő),The main experiment item,yes,0,0,C:/Users/rrics/Documents/!!ResearchBMECOGSCI/gnet,0,0,0,prototype4.png,no,mono,no,18,no,black,no,no,768,1157,3.5.6,legacy,xpyriment,osweb,1.3.13,0,space,space,space,space,28805,18569,23411,28805,2,legacy,1020,1680,24,1050,24,0,0,1680,1646058923091,1024,2,48000,-16,experiment,p5sarrcol2.png,1,odd,Win32,72,129953,126949,72,72,642100,643603,637096,131455,637096,72,774917,776424,771915,643607,771915,visual_patterns,0,0,0,yes,1366
undefined,undefined,undefined,undefined,white,no,Mozilla,Netscape,"5.0 (Windows NT 10.0; Win64; x64) AppleWebKit/537.36 (KHTML, like Gecko) Chrome/98.0.4758.102 Safari/537.36",xpyriment,legacy,legacy,0,uniform,0,0,0,0,24,24,24,0,0,74,74,74,74,74,0,74,0,23,23,23,23,23,0,23,28-01-22,28-01-22,15:33:50,Mon Feb 28 2022 15:33:50 GMT+0100 (közép-európai téli idő),The main experiment item,yes,0,0,C:/Users/rrics/Documents/!!ResearchBMECOGSCI/gnet,0,0,0,prototype4.png,no,mono,no,18,no,black,no,no,768,1157,3.5.6,legacy,xpyriment,osweb,1.3.13,0,space,space,space,space,28805,18569,23411,28805,2,legacy,1020,1680,24,1050,24,0,0,1680,1646058923091,1024,2,48000,-16,experiment,p7sarr4.png,1,odd,Win32,72,129953,126949,72,72,642100,643603,637096,131455,637096,72,779433,780934,776429,643607,776429,visual_patterns,0,0,0,yes,1366
undefined,undefined,undefined,undefined,white,no,Mozilla,Netscape,"5.0 (Windows NT 10.0; Win64; x64) AppleWebKit/537.36 (KHTML, like Gecko) Chrome/98.0.4758.102 Safari/537.36",xpyriment,legacy,legacy,0,uniform,0,0,0,0,24,24,24,0,0,74,74,74,74,74,0,74,0,24,24,24,24,24,0,24,28-01-22,28-01-22,15:33:50,Mon Feb 28 2022 15:33:50 GMT+0100 (közép-európai téli idő),The main experiment item,yes,0,0,C:/Users/rrics/Documents/!!ResearchBMECOGSCI/gnet,0,0,0,prototype4.png,no,mono,no,18,no,black,no,no,768,1157,3.5.6,legacy,xpyriment,osweb,1.3.13,0,space,space,space,space,28805,18569,23411,28805,2,legacy,1020,1680,24,1050,24,0,0,1680,1646058923091,1024,2,48000,-16,experiment,p3sarrsha3.png,1,odd,Win32,72,129953,126949,72,72,642100,643603,637096,131455,637096,72,783946,785460,780944,643607,780944,visual_patterns,0,0,0,yes,1366
undefined,undefined,undefined,undefined,white,no,Mozilla,Netscape,"5.0 (Windows NT 10.0; Win64; x64) AppleWebKit/537.36 (KHTML, like Gecko) Chrome/98.0.4758.102 Safari/537.36",xpyriment,legacy,legacy,0,uniform,0,0,0,0,24,24,24,0,0,74,74,74,74,74,0,74,0,25,25,25,25,25,0,25,28-01-22,28-01-22,15:33:50,Mon Feb 28 2022 15:33:50 GMT+0100 (közép-európai téli idő),The main experiment item,yes,0,0,C:/Users/rrics/Documents/!!ResearchBMECOGSCI/gnet,0,0,0,prototype4.png,no,mono,no,18,no,black,no,no,768,1157,3.5.6,legacy,xpyriment,osweb,1.3.13,0,space,space,space,space,28805,18569,23411,28805,2,legacy,1020,1680,24,1050,24,0,0,1680,1646058923091,1024,2,48000,-16,experiment,p8sarr4.png,1,odd,Win32,72,129953,126949,72,72,642100,643603,637096,131455,637096,72,788470,789986,785470,643607,785470,visual_patterns,0,0,0,yes,1366
undefined,undefined,undefined,undefined,white,no,Mozilla,Netscape,"5.0 (Windows NT 10.0; Win64; x64) AppleWebKit/537.36 (KHTML, like Gecko) Chrome/98.0.4758.102 Safari/537.36",xpyriment,legacy,legacy,0,uniform,0,0,0,0,24,24,24,0,0,74,74,74,74,74,0,74,0,26,26,26,26,26,0,26,28-01-22,28-01-22,15:33:50,Mon Feb 28 2022 15:33:50 GMT+0100 (közép-európai téli idő),The main experiment item,yes,0,0,C:/Users/rrics/Documents/!!ResearchBMECOGSCI/gnet,0,0,0,prototype4.png,no,mono,no,18,no,black,no,no,768,1157,3.5.6,legacy,xpyriment,osweb,1.3.13,0,space,space,space,space,28805,18569,23411,28805,2,legacy,1020,1680,24,1050,24,0,0,1680,1646058923091,1024,2,48000,-16,experiment,p2sarrshacol4.png,1,odd,Win32,72,129953,126949,72,72,642100,643603,637096,131455,637096,72,792995,794511,789994,643607,789994,visual_patterns,0,0,0,yes,1366
undefined,undefined,undefined,undefined,white,no,Mozilla,Netscape,"5.0 (Windows NT 10.0; Win64; x64) AppleWebKit/537.36 (KHTML, like Gecko) Chrome/98.0.4758.102 Safari/537.36",xpyriment,legacy,legacy,0,uniform,0,0,0,0,24,24,24,0,0,74,74,74,74,74,0,74,0,27,27,27,27,27,0,27,28-01-22,28-01-22,15:33:50,Mon Feb 28 2022 15:33:50 GMT+0100 (közép-európai téli idő),The main experiment item,yes,0,0,C:/Users/rrics/Documents/!!ResearchBMECOGSCI/gnet,0,0,0,prototype4.png,no,mono,no,18,no,black,no,no,768,1157,3.5.6,legacy,xpyriment,osweb,1.3.13,0,space,space,space,space,28805,18569,23411,28805,2,legacy,1020,1680,24,1050,24,0,0,1680,1646058923091,1024,2,48000,-16,experiment,p4sarrshacol1.png,1,odd,Win32,72,129953,126949,72,72,642100,643603,637096,131455,637096,72,797529,799037,794528,643607,794528,visual_patterns,0,0,0,yes,1366
undefined,undefined,undefined,undefined,white,no,Mozilla,Netscape,"5.0 (Windows NT 10.0; Win64; x64) AppleWebKit/537.36 (KHTML, like Gecko) Chrome/98.0.4758.102 Safari/537.36",xpyriment,legacy,legacy,0,uniform,0,0,0,0,24,24,24,0,0,74,74,74,74,74,0,74,0,28,28,28,28,28,0,28,28-01-22,28-01-22,15:33:50,Mon Feb 28 2022 15:33:50 GMT+0100 (közép-európai téli idő),The main experiment item,yes,0,0,C:/Users/rrics/Documents/!!ResearchBMECOGSCI/gnet,0,0,0,prototype4.png,no,mono,no,18,no,black,no,no,768,1157,3.5.6,legacy,xpyriment,osweb,1.3.13,0,space,space,space,space,28805,18569,23411,28805,2,legacy,1020,1680,24,1050,24,0,0,1680,1646058923091,1024,2,48000,-16,experiment,p1sarrshacol3.png,1,odd,Win32,72,129953,126949,72,72,642100,643603,637096,131455,637096,72,802047,803563,799044,643607,799044,visual_patterns,0,0,0,yes,1366
undefined,undefined,undefined,undefined,white,no,Mozilla,Netscape,"5.0 (Windows NT 10.0; Win64; x64) AppleWebKit/537.36 (KHTML, like Gecko) Chrome/98.0.4758.102 Safari/537.36",xpyriment,legacy,legacy,0,uniform,0,0,0,0,24,24,24,0,0,74,74,74,74,74,0,74,0,29,29,29,29,29,0,29,28-01-22,28-01-22,15:33:50,Mon Feb 28 2022 15:33:50 GMT+0100 (közép-európai téli idő),The main experiment item,yes,0,0,C:/Users/rrics/Documents/!!ResearchBMECOGSCI/gnet,0,0,0,prototype4.png,no,mono,no,18,no,black,no,no,768,1157,3.5.6,legacy,xpyriment,osweb,1.3.13,0,space,space,space,space,28805,18569,23411,28805,2,legacy,1020,1680,24,1050,24,0,0,1680,1646058923091,1024,2,48000,-16,experiment,p2sarrsha1.png,1,odd,Win32,72,129953,126949,72,72,642100,643603,637096,131455,637096,72,806575,808089,803571,643607,803571,visual_patterns,0,0,0,yes,1366
undefined,undefined,undefined,undefined,white,no,Mozilla,Netscape,"5.0 (Windows NT 10.0; Win64; x64) AppleWebKit/537.36 (KHTML, like Gecko) Chrome/98.0.4758.102 Safari/537.36",xpyriment,legacy,legacy,0,uniform,0,0,0,0,24,24,24,0,0,74,74,74,74,74,0,74,0,30,30,30,30,30,0,30,28-01-22,28-01-22,15:33:50,Mon Feb 28 2022 15:33:50 GMT+0100 (közép-európai téli idő),The main experiment item,yes,0,0,C:/Users/rrics/Documents/!!ResearchBMECOGSCI/gnet,0,0,0,prototype4.png,no,mono,no,18,no,black,no,no,768,1157,3.5.6,legacy,xpyriment,osweb,1.3.13,0,space,space,space,space,28805,18569,23411,28805,2,legacy,1020,1680,24,1050,24,0,0,1680,1646058923091,1024,2,48000,-16,experiment,p3sarr2.png,1,odd,Win32,72,129953,126949,72,72,642100,643603,637096,131455,637096,72,811098,812615,808097,643607,808097,visual_patterns,0,0,0,yes,1366
undefined,undefined,undefined,undefined,white,no,Mozilla,Netscape,"5.0 (Windows NT 10.0; Win64; x64) AppleWebKit/537.36 (KHTML, like Gecko) Chrome/98.0.4758.102 Safari/537.36",xpyriment,legacy,legacy,0,uniform,0,0,0,0,24,24,24,0,0,74,74,74,74,74,0,74,0,31,31,31,31,31,0,31,28-01-22,28-01-22,15:33:50,Mon Feb 28 2022 15:33:50 GMT+0100 (közép-európai téli idő),The main experiment item,yes,0,0,C:/Users/rrics/Documents/!!ResearchBMECOGSCI/gnet,0,0,0,prototype4.png,no,mono,no,18,no,black,no,no,768,1157,3.5.6,legacy,xpyriment,osweb,1.3.13,0,space,space,space,space,28805,18569,23411,28805,2,legacy,1020,1680,24,1050,24,0,0,1680,1646058923091,1024,2,48000,-16,experiment,p3sarrshacol3.png,1,odd,Win32,72,129953,126949,72,72,642100,643603,637096,131455,637096,72,815627,817141,812624,643607,812624,visual_patterns,0,0,0,yes,1366
undefined,undefined,undefined,undefined,white,no,Mozilla,Netscape,"5.0 (Windows NT 10.0; Win64; x64) AppleWebKit/537.36 (KHTML, like Gecko) Chrome/98.0.4758.102 Safari/537.36",xpyriment,legacy,legacy,0,uniform,0,0,0,0,24,24,24,0,0,74,74,74,74,74,0,74,0,32,32,32,32,32,0,32,28-01-22,28-01-22,15:33:50,Mon Feb 28 2022 15:33:50 GMT+0100 (közép-európai téli idő),The main experiment item,yes,0,0,C:/Users/rrics/Documents/!!ResearchBMECOGSCI/gnet,0,0,0,prototype4.png,no,mono,no,18,no,black,no,no,768,1157,3.5.6,legacy,xpyriment,osweb,1.3.13,0,space,space,space,space,28805,18569,23411,28805,2,legacy,1020,1680,24,1050,24,0,0,1680,1646058923091,1024,2,48000,-16,experiment,p2sarrcol4.png,1,odd,Win32,72,129953,126949,72,72,642100,643603,637096,131455,637096,72,820151,821667,817150,643607,817150,visual_patterns,0,0,0,yes,1366
undefined,undefined,undefined,undefined,white,no,Mozilla,Netscape,"5.0 (Windows NT 10.0; Win64; x64) AppleWebKit/537.36 (KHTML, like Gecko) Chrome/98.0.4758.102 Safari/537.36",xpyriment,legacy,legacy,0,uniform,0,0,0,0,24,24,24,0,0,74,74,74,74,74,0,74,0,33,33,33,33,33,0,33,28-01-22,28-01-22,15:33:50,Mon Feb 28 2022 15:33:50 GMT+0100 (közép-európai téli idő),The main experiment item,yes,0,0,C:/Users/rrics/Documents/!!ResearchBMECOGSCI/gnet,0,0,0,prototype4.png,no,mono,no,18,no,black,no,no,768,1157,3.5.6,legacy,xpyriment,osweb,1.3.13,0,space,space,space,space,28805,18569,23411,28805,2,legacy,1020,1680,24,1050,24,0,0,1680,1646058923091,1024,2,48000,-16,experiment,p5sarrcol1.png,1,odd,Win32,72,129953,126949,72,72,642100,643603,637096,131455,637096,72,824677,826193,821677,643607,821677,visual_patterns,0,0,0,yes,1366
undefined,undefined,undefined,undefined,white,no,Mozilla,Netscape,"5.0 (Windows NT 10.0; Win64; x64) AppleWebKit/537.36 (KHTML, like Gecko) Chrome/98.0.4758.102 Safari/537.36",xpyriment,legacy,legacy,0,uniform,0,0,0,0,24,24,24,0,0,74,74,74,74,74,0,74,0,34,34,34,34,34,0,34,28-01-22,28-01-22,15:33:50,Mon Feb 28 2022 15:33:50 GMT+0100 (közép-európai téli idő),The main experiment item,yes,0,0,C:/Users/rrics/Documents/!!ResearchBMECOGSCI/gnet,0,0,0,prototype4.png,no,mono,no,18,no,black,no,no,768,1157,3.5.6,legacy,xpyriment,osweb,1.3.13,0,space,space,space,space,28805,18569,23411,28805,2,legacy,1020,1680,24,1050,24,0,0,1680,1646058923091,1024,2,48000,-16,experiment,p8sarr2.png,1,odd,Win32,72,129953,126949,72,72,642100,643603,637096,131455,637096,72,829197,830702,826197,643607,826197,visual_patterns,0,0,0,yes,1366
undefined,undefined,undefined,undefined,white,no,Mozilla,Netscape,"5.0 (Windows NT 10.0; Win64; x64) AppleWebKit/537.36 (KHTML, like Gecko) Chrome/98.0.4758.102 Safari/537.36",xpyriment,legacy,legacy,0,uniform,0,0,0,0,24,24,24,0,0,74,74,74,74,74,0,74,0,35,35,35,35,35,0,35,28-01-22,28-01-22,15:33:50,Mon Feb 28 2022 15:33:50 GMT+0100 (közép-európai téli idő),The main experiment item,yes,0,0,C:/Users/rrics/Documents/!!ResearchBMECOGSCI/gnet,0,0,0,prototype4.png,no,mono,no,18,no,black,no,no,768,1157,3.5.6,legacy,xpyriment,osweb,1.3.13,0,space,space,space,space,28805,18569,23411,28805,2,legacy,1020,1680,24,1050,24,0,0,1680,1646058923091,1024,2,48000,-16,experiment,p5sarr3.png,1,odd,Win32,72,129953,126949,72,72,642100,643603,637096,131455,637096,72,833715,835228,830713,643607,830713,visual_patterns,0,0,0,yes,1366
undefined,undefined,undefined,undefined,white,no,Mozilla,Netscape,"5.0 (Windows NT 10.0; Win64; x64) AppleWebKit/537.36 (KHTML, like Gecko) Chrome/98.0.4758.102 Safari/537.36",xpyriment,legacy,legacy,0,uniform,0,0,0,0,24,24,24,0,0,74,74,74,74,74,0,74,0,36,36,36,36,36,0,36,28-01-22,28-01-22,15:33:50,Mon Feb 28 2022 15:33:50 GMT+0100 (közép-európai téli idő),The main experiment item,yes,0,0,C:/Users/rrics/Documents/!!ResearchBMECOGSCI/gnet,0,0,0,prototype4.png,no,mono,no,18,no,black,no,no,768,1157,3.5.6,legacy,xpyriment,osweb,1.3.13,0,space,space,space,space,28805,18569,23411,28805,2,legacy,1020,1680,24,1050,24,0,0,1680,1646058923091,1024,2,48000,-16,experiment,p7sarr1.png,1,odd,Win32,72,129953,126949,72,72,642100,643603,637096,131455,637096,72,838241,839754,835239,643607,835239,visual_patterns,0,0,0,yes,1366
undefined,undefined,undefined,undefined,white,no,Mozilla,Netscape,"5.0 (Windows NT 10.0; Win64; x64) AppleWebKit/537.36 (KHTML, like Gecko) Chrome/98.0.4758.102 Safari/537.36",xpyriment,legacy,legacy,0,uniform,0,0,0,0,24,24,24,0,0,74,74,74,74,74,0,74,0,37,37,37,37,37,0,37,28-01-22,28-01-22,15:33:50,Mon Feb 28 2022 15:33:50 GMT+0100 (közép-európai téli idő),The main experiment item,yes,0,0,C:/Users/rrics/Documents/!!ResearchBMECOGSCI/gnet,0,0,0,prototype4.png,no,mono,no,18,no,black,no,no,768,1157,3.5.6,legacy,xpyriment,osweb,1.3.13,0,space,space,space,space,28805,18569,23411,28805,2,legacy,1020,1680,24,1050,24,0,0,1680,1646058923091,1024,2,48000,-16,experiment,p1sarrcol4.png,1,odd,Win32,72,129953,126949,72,72,642100,643603,637096,131455,637096,72,842767,844280,839763,643607,839763,visual_patterns,0,0,0,yes,1366
undefined,undefined,undefined,undefined,white,no,Mozilla,Netscape,"5.0 (Windows NT 10.0; Win64; x64) AppleWebKit/537.36 (KHTML, like Gecko) Chrome/98.0.4758.102 Safari/537.36",xpyriment,legacy,legacy,0,uniform,0,0,0,0,24,24,24,0,0,74,74,74,74,74,0,74,0,38,38,38,38,38,0,38,28-01-22,28-01-22,15:33:50,Mon Feb 28 2022 15:33:50 GMT+0100 (közép-európai téli idő),The main experiment item,yes,0,0,C:/Users/rrics/Documents/!!ResearchBMECOGSCI/gnet,0,0,0,prototype4.png,no,mono,no,18,no,black,no,no,768,1157,3.5.6,legacy,xpyriment,osweb,1.3.13,0,space,space,space,space,28805,18569,23411,28805,2,legacy,1020,1680,24,1050,24,0,0,1680,1646058923091,1024,2,48000,-16,experiment,p3sarrsha4.png,1,odd,Win32,72,129953,126949,72,72,642100,643603,637096,131455,637096,72,847292,848806,844289,643607,844289,visual_patterns,0,0,0,yes,1366
undefined,undefined,undefined,undefined,white,no,Mozilla,Netscape,"5.0 (Windows NT 10.0; Win64; x64) AppleWebKit/537.36 (KHTML, like Gecko) Chrome/98.0.4758.102 Safari/537.36",xpyriment,legacy,legacy,0,uniform,0,0,0,0,24,24,24,0,0,74,74,74,74,74,0,74,0,39,39,39,39,39,0,39,28-01-22,28-01-22,15:33:50,Mon Feb 28 2022 15:33:50 GMT+0100 (közép-európai téli idő),The main experiment item,yes,0,0,C:/Users/rrics/Documents/!!ResearchBMECOGSCI/gnet,0,0,0,prototype4.png,no,mono,no,18,no,black,no,no,768,1157,3.5.6,legacy,xpyriment,osweb,1.3.13,0,space,space,space,space,28805,18569,23411,28805,2,legacy,1020,1680,24,1050,24,0,0,1680,1646058923091,1024,2,48000,-16,experiment,p3sarr1.png,1,odd,Win32,72,129953,126949,72,72,642100,643603,637096,131455,637096,72,851820,853332,848816,643607,848816,visual_patterns,0,0,0,yes,1366
undefined,undefined,undefined,undefined,white,no,Mozilla,Netscape,"5.0 (Windows NT 10.0; Win64; x64) AppleWebKit/537.36 (KHTML, like Gecko) Chrome/98.0.4758.102 Safari/537.36",xpyriment,legacy,legacy,0,uniform,0,0,0,0,24,24,24,0,0,74,74,74,74,74,0,74,0,40,40,40,40,40,0,40,28-01-22,28-01-22,15:33:50,Mon Feb 28 2022 15:33:50 GMT+0100 (közép-európai téli idő),The main experiment item,yes,0,0,C:/Users/rrics/Documents/!!ResearchBMECOGSCI/gnet,0,0,0,prototype4.png,no,mono,no,18,no,black,no,no,768,1157,3.5.6,legacy,xpyriment,osweb,1.3.13,0,space,space,space,space,28805,18569,23411,28805,2,legacy,1020,1680,24,1050,24,0,0,1680,1646058923091,1024,2,48000,-16,experiment,p2sarrsha3.png,1,odd,Win32,72,129953,126949,72,72,642100,643603,637096,131455,637096,72,856346,857858,853343,643607,853343,visual_patterns,0,0,0,yes,1366
undefined,undefined,undefined,undefined,white,no,Mozilla,Netscape,"5.0 (Windows NT 10.0; Win64; x64) AppleWebKit/537.36 (KHTML, like Gecko) Chrome/98.0.4758.102 Safari/537.36",xpyriment,legacy,legacy,0,uniform,0,0,0,0,24,24,24,0,0,74,74,74,74,74,0,74,0,41,41,41,41,41,0,41,28-01-22,28-01-22,15:33:50,Mon Feb 28 2022 15:33:50 GMT+0100 (közép-európai téli idő),The main experiment item,yes,0,0,C:/Users/rrics/Documents/!!ResearchBMECOGSCI/gnet,0,0,0,prototype4.png,no,mono,no,18,no,black,no,no,768,1157,3.5.6,legacy,xpyriment,osweb,1.3.13,0,space,space,space,space,28805,18569,23411,28805,2,legacy,1020,1680,24,1050,24,0,0,1680,1646058923091,1024,2,48000,-16,experiment,p9sarr3.png,1,odd,Win32,72,129953,126949,72,72,642100,643603,637096,131455,637096,72,860867,862384,857867,643607,857867,visual_patterns,0,0,0,yes,1366
undefined,undefined,undefined,undefined,white,no,Mozilla,Netscape,"5.0 (Windows NT 10.0; Win64; x64) AppleWebKit/537.36 (KHTML, like Gecko) Chrome/98.0.4758.102 Safari/537.36",xpyriment,legacy,legacy,0,uniform,0,0,0,0,24,24,24,0,0,74,74,74,74,74,0,74,0,42,42,42,42,42,0,42,28-01-22,28-01-22,15:33:50,Mon Feb 28 2022 15:33:50 GMT+0100 (közép-európai téli idő),The main experiment item,yes,0,0,C:/Users/rrics/Documents/!!ResearchBMECOGSCI/gnet,0,0,0,prototype4.png,no,mono,no,18,no,black,no,no,768,1157,3.5.6,legacy,xpyriment,osweb,1.3.13,0,space,space,space,space,28805,18569,23411,28805,2,legacy,1020,1680,24,1050,24,0,0,1680,1646058923091,1024,2,48000,-16,experiment,p10sarr4.png,1,odd,Win32,72,129953,126949,72,72,642100,643603,637096,131455,637096,72,865400,866910,862401,643607,862401,visual_patterns,0,0,0,yes,1366
undefined,undefined,undefined,undefined,white,no,Mozilla,Netscape,"5.0 (Windows NT 10.0; Win64; x64) AppleWebKit/537.36 (KHTML, like Gecko) Chrome/98.0.4758.102 Safari/537.36",xpyriment,legacy,legacy,0,uniform,0,0,0,0,24,24,24,0,0,74,74,74,74,74,0,74,0,43,43,43,43,43,0,43,28-01-22,28-01-22,15:33:50,Mon Feb 28 2022 15:33:50 GMT+0100 (közép-európai téli idő),The main experiment item,yes,0,0,C:/Users/rrics/Documents/!!ResearchBMECOGSCI/gnet,0,0,0,prototype4.png,no,mono,no,18,no,black,no,no,768,1157,3.5.6,legacy,xpyriment,osweb,1.3.13,0,space,space,space,space,28805,18569,23411,28805,2,legacy,1020,1680,24,1050,24,0,0,1680,1646058923091,1024,2,48000,-16,experiment,p4sarrcol1.png,1,odd,Win32,72,129953,126949,72,72,642100,643603,637096,131455,637096,72,869922,871435,866918,643607,866918,visual_patterns,0,0,0,yes,1366
undefined,undefined,undefined,undefined,white,no,Mozilla,Netscape,"5.0 (Windows NT 10.0; Win64; x64) AppleWebKit/537.36 (KHTML, like Gecko) Chrome/98.0.4758.102 Safari/537.36",xpyriment,legacy,legacy,0,uniform,0,0,0,0,24,24,24,0,0,74,74,74,74,74,0,74,0,44,44,44,44,44,0,44,28-01-22,28-01-22,15:33:50,Mon Feb 28 2022 15:33:50 GMT+0100 (közép-európai téli idő),The main experiment item,yes,0,0,C:/Users/rrics/Documents/!!ResearchBMECOGSCI/gnet,0,0,0,prototype4.png,no,mono,no,18,no,black,no,no,768,1157,3.5.6,legacy,xpyriment,osweb,1.3.13,0,space,space,space,space,28805,18569,23411,28805,2,legacy,1020,1680,24,1050,24,0,0,1680,1646058923091,1024,2,48000,-16,experiment,p5sarrshacol4.png,1,odd,Win32,72,129953,126949,72,72,642100,643603,637096,131455,637096,72,874443,875945,871443,643607,871443,visual_patterns,0,0,0,yes,1366
undefined,undefined,undefined,undefined,white,no,Mozilla,Netscape,"5.0 (Windows NT 10.0; Win64; x64) AppleWebKit/537.36 (KHTML, like Gecko) Chrome/98.0.4758.102 Safari/537.36",xpyriment,legacy,legacy,0,uniform,0,0,0,0,24,24,24,0,0,74,74,74,74,74,0,74,0,45,45,45,45,45,0,45,28-01-22,28-01-22,15:33:50,Mon Feb 28 2022 15:33:50 GMT+0100 (közép-európai téli idő),The main experiment item,yes,0,0,C:/Users/rrics/Documents/!!ResearchBMECOGSCI/gnet,0,0,0,prototype4.png,no,mono,no,18,no,black,no,no,768,1157,3.5.6,legacy,xpyriment,osweb,1.3.13,0,space,space,space,space,28805,18569,23411,28805,2,legacy,1020,1680,24,1050,24,0,0,1680,1646058923091,1024,2,48000,-16,experiment,p3sarr3.png,1,odd,Win32,72,129953,126949,72,72,642100,643603,637096,131455,637096,72,878959,880471,875956,643607,875956,visual_patterns,0,0,0,yes,1366
undefined,undefined,undefined,undefined,white,no,Mozilla,Netscape,"5.0 (Windows NT 10.0; Win64; x64) AppleWebKit/537.36 (KHTML, like Gecko) Chrome/98.0.4758.102 Safari/537.36",xpyriment,legacy,legacy,0,uniform,0,0,0,0,24,24,24,0,0,74,74,74,74,74,0,74,0,46,46,46,46,46,0,46,28-01-22,28-01-22,15:33:50,Mon Feb 28 2022 15:33:50 GMT+0100 (közép-európai téli idő),The main experiment item,yes,0,0,C:/Users/rrics/Documents/!!ResearchBMECOGSCI/gnet,0,0,0,prototype4.png,no,mono,no,18,no,black,no,no,768,1157,3.5.6,legacy,xpyriment,osweb,1.3.13,0,space,space,space,space,28805,18569,23411,28805,2,legacy,1020,1680,24,1050,24,0,0,1680,1646058923091,1024,2,48000,-16,experiment,p2sarr3.png,1,odd,Win32,72,129953,126949,72,72,642100,643603,637096,131455,637096,72,883489,884997,880491,643607,880491,visual_patterns,0,0,0,yes,1366
undefined,undefined,undefined,undefined,white,no,Mozilla,Netscape,"5.0 (Windows NT 10.0; Win64; x64) AppleWebKit/537.36 (KHTML, like Gecko) Chrome/98.0.4758.102 Safari/537.36",xpyriment,legacy,legacy,0,uniform,0,0,0,0,24,24,24,0,0,74,74,74,74,74,0,74,0,47,47,47,47,47,0,47,28-01-22,28-01-22,15:33:50,Mon Feb 28 2022 15:33:50 GMT+0100 (közép-európai téli idő),The main experiment item,yes,0,0,C:/Users/rrics/Documents/!!ResearchBMECOGSCI/gnet,0,0,0,prototype4.png,no,mono,no,18,no,black,no,no,768,1157,3.5.6,legacy,xpyriment,osweb,1.3.13,0,space,space,space,space,28805,18569,23411,28805,2,legacy,1020,1680,24,1050,24,0,0,1680,1646058923091,1024,2,48000,-16,experiment,p4sarr2.png,1,odd,Win32,72,129953,126949,72,72,642100,643603,637096,131455,637096,72,888016,889523,885016,643607,885016,visual_patterns,0,0,0,yes,1366
undefined,undefined,undefined,undefined,white,no,Mozilla,Netscape,"5.0 (Windows NT 10.0; Win64; x64) AppleWebKit/537.36 (KHTML, like Gecko) Chrome/98.0.4758.102 Safari/537.36",xpyriment,legacy,legacy,0,uniform,0,0,0,0,24,24,24,0,0,74,74,74,74,74,0,74,0,48,48,48,48,48,0,48,28-01-22,28-01-22,15:33:50,Mon Feb 28 2022 15:33:50 GMT+0100 (közép-európai téli idő),The main experiment item,yes,0,0,C:/Users/rrics/Documents/!!ResearchBMECOGSCI/gnet,0,0,0,prototype4.png,no,mono,no,18,no,black,no,no,768,1157,3.5.6,legacy,xpyriment,osweb,1.3.13,0,space,space,space,space,28805,18569,23411,28805,2,legacy,1020,1680,24,1050,24,0,0,1680,1646058923091,1024,2,48000,-16,experiment,p2sarrshacol3.png,1,odd,Win32,72,129953,126949,72,72,642100,643603,637096,131455,637096,72,892534,894048,889533,643607,889533,visual_patterns,0,0,0,yes,1366
