acc,accuracy,average_response_time,avg_rt,background,bidi,browser_codename,browser_name,browser_version,canvas_backend,clock_backend,color_backend,compensation,coordinates,count_end,count_experiment,count_osweb,count_prestudy,count_prestudy_isi,count_prestudy_sequence,count_prestudy_stimpres,count_start,count_study,count_study_coroutines,count_study_isi,count_study_logger,count_study_response,count_study_sequence,count_study_start,count_study_stimpres,count_test,count_test_coroutines,count_test_isi,count_test_logger,count_test_response,count_test_sequence,count_test_start,count_test_stimpres,date_startdate,date_startdateUTC,date_starttime,datetime,description,disable_garbage_collection,experiment_debug,experiment_parameters,experiment_path,experiment_pilot,experiment_taskname,experiment_taskversion,fampict,font_bold,font_family,font_italic,font_size,font_underline,foreground,form_clicks,fullscreen,height,jatosStudyResultId,jatosVersion,keyboard_backend,mouse_backend,opensesame_codename,opensesame_version,repeat_cycle,response,response_start,response_study_start,response_test_start,response_time,response_time_start,response_time_study_start,response_time_test_start,round_decimals,sampler_backend,screen_availableHeight,screen_availableWidth,screen_colorDepth,screen_height,screen_pixelDepth,screen_screenX,screen_screenY,screen_width,sessionid,sound_buf_size,sound_channels,sound_freq,sound_sample_size,start,stim,subject_nr,subject_parity,system_os,time_prestudy,time_prestudy_isi,time_prestudy_stimpres,time_start,time_study,time_study_isi,time_study_logger,time_study_response,time_study_start,time_study_stimpres,time_test,time_test_isi,time_test_logger,time_test_response,time_test_start,time_test_stimpres,title,total_correct,total_response_time,total_responses,uniform_coordinates,width
undefined,undefined,undefined,undefined,white,no,Mozilla,Netscape,"5.0 (Windows NT 10.0; Win64; x64) AppleWebKit/537.36 (KHTML, like Gecko) Chrome/98.0.4758.102 Safari/537.36",xpyriment,legacy,legacy,0,uniform,0,0,0,0,24,24,24,0,0,0,0,0,0,0,0,0,0,,,,,,0,,28-01-22,28-01-22,16:40:36,Mon Feb 28 2022 16:40:36 GMT+0100 (közép-európai téli idő),The main experiment item,yes,0,0,C:/Users/rrics/Documents/!!ResearchBMECOGSCI/gnet,0,0,0,prototype2.png,no,mono,no,18,no,black,no,no,768,1159,3.5.6,legacy,xpyriment,osweb,1.3.13,0,right,space,right,,37691,35148,37691,,2,legacy,824,1536,24,864,24,0,0,1536,1646062835474,1024,2,48000,-16,experiment,p6sarr1.png,1,odd,Win32,84,146577,143573,84,84,190794,192300,185794,148083,185794,84,,,,,,visual_patterns,0,0,0,yes,1366
undefined,undefined,undefined,undefined,white,no,Mozilla,Netscape,"5.0 (Windows NT 10.0; Win64; x64) AppleWebKit/537.36 (KHTML, like Gecko) Chrome/98.0.4758.102 Safari/537.36",xpyriment,legacy,legacy,0,uniform,0,0,0,0,24,24,24,0,0,1,1,1,1,1,0,1,0,,,,,,0,,28-01-22,28-01-22,16:40:36,Mon Feb 28 2022 16:40:36 GMT+0100 (közép-európai téli idő),The main experiment item,yes,0,0,C:/Users/rrics/Documents/!!ResearchBMECOGSCI/gnet,0,0,0,prototype2.png,no,mono,no,18,no,black,no,no,768,1159,3.5.6,legacy,xpyriment,osweb,1.3.13,0,right,space,right,,37691,35148,37691,,2,legacy,824,1536,24,864,24,0,0,1536,1646062835474,1024,2,48000,-16,experiment,prototype3.png,1,odd,Win32,84,146577,143573,84,84,197313,198818,192311,148083,192311,84,,,,,,visual_patterns,0,0,0,yes,1366
undefined,undefined,undefined,undefined,white,no,Mozilla,Netscape,"5.0 (Windows NT 10.0; Win64; x64) AppleWebKit/537.36 (KHTML, like Gecko) Chrome/98.0.4758.102 Safari/537.36",xpyriment,legacy,legacy,0,uniform,0,0,0,0,24,24,24,0,0,2,2,2,2,2,0,2,0,,,,,,0,,28-01-22,28-01-22,16:40:36,Mon Feb 28 2022 16:40:36 GMT+0100 (közép-európai téli idő),The main experiment item,yes,0,0,C:/Users/rrics/Documents/!!ResearchBMECOGSCI/gnet,0,0,0,prototype2.png,no,mono,no,18,no,black,no,no,768,1159,3.5.6,legacy,xpyriment,osweb,1.3.13,0,right,space,right,,37691,35148,37691,,2,legacy,824,1536,24,864,24,0,0,1536,1646062835474,1024,2,48000,-16,experiment,p3sarr1.png,1,odd,Win32,84,146577,143573,84,84,203824,205329,198824,148083,198824,84,,,,,,visual_patterns,0,0,0,yes,1366
undefined,undefined,undefined,undefined,white,no,Mozilla,Netscape,"5.0 (Windows NT 10.0; Win64; x64) AppleWebKit/537.36 (KHTML, like Gecko) Chrome/98.0.4758.102 Safari/537.36",xpyriment,legacy,legacy,0,uniform,0,0,0,0,24,24,24,0,0,3,3,3,3,3,0,3,0,,,,,,0,,28-01-22,28-01-22,16:40:36,Mon Feb 28 2022 16:40:36 GMT+0100 (közép-európai téli idő),The main experiment item,yes,0,0,C:/Users/rrics/Documents/!!ResearchBMECOGSCI/gnet,0,0,0,prototype2.png,no,mono,no,18,no,black,no,no,768,1159,3.5.6,legacy,xpyriment,osweb,1.3.13,0,right,space,right,,37691,35148,37691,,2,legacy,824,1536,24,864,24,0,0,1536,1646062835474,1024,2,48000,-16,experiment,p9sarr2.png,1,odd,Win32,84,146577,143573,84,84,210342,211847,205347,148083,205347,84,,,,,,visual_patterns,0,0,0,yes,1366
undefined,undefined,undefined,undefined,white,no,Mozilla,Netscape,"5.0 (Windows NT 10.0; Win64; x64) AppleWebKit/537.36 (KHTML, like Gecko) Chrome/98.0.4758.102 Safari/537.36",xpyriment,legacy,legacy,0,uniform,0,0,0,0,24,24,24,0,0,4,4,4,4,4,0,4,0,,,,,,0,,28-01-22,28-01-22,16:40:36,Mon Feb 28 2022 16:40:36 GMT+0100 (közép-európai téli idő),The main experiment item,yes,0,0,C:/Users/rrics/Documents/!!ResearchBMECOGSCI/gnet,0,0,0,prototype2.png,no,mono,no,18,no,black,no,no,768,1159,3.5.6,legacy,xpyriment,osweb,1.3.13,0,right,space,right,,37691,35148,37691,,2,legacy,824,1536,24,864,24,0,0,1536,1646062835474,1024,2,48000,-16,experiment,p4sarr2.png,1,odd,Win32,84,146577,143573,84,84,216853,218357,211851,148083,211851,84,,,,,,visual_patterns,0,0,0,yes,1366
undefined,undefined,undefined,undefined,white,no,Mozilla,Netscape,"5.0 (Windows NT 10.0; Win64; x64) AppleWebKit/537.36 (KHTML, like Gecko) Chrome/98.0.4758.102 Safari/537.36",xpyriment,legacy,legacy,0,uniform,0,0,0,0,24,24,24,0,0,5,5,5,5,5,0,5,0,,,,,,0,,28-01-22,28-01-22,16:40:36,Mon Feb 28 2022 16:40:36 GMT+0100 (közép-európai téli idő),The main experiment item,yes,0,0,C:/Users/rrics/Documents/!!ResearchBMECOGSCI/gnet,0,0,0,prototype2.png,no,mono,no,18,no,black,no,no,768,1159,3.5.6,legacy,xpyriment,osweb,1.3.13,0,right,space,right,,37691,35148,37691,,2,legacy,824,1536,24,864,24,0,0,1536,1646062835474,1024,2,48000,-16,experiment,p4sarrshacol2.png,1,odd,Win32,84,146577,143573,84,84,223364,224868,218365,148083,218365,84,,,,,,visual_patterns,0,0,0,yes,1366
undefined,undefined,undefined,undefined,white,no,Mozilla,Netscape,"5.0 (Windows NT 10.0; Win64; x64) AppleWebKit/537.36 (KHTML, like Gecko) Chrome/98.0.4758.102 Safari/537.36",xpyriment,legacy,legacy,0,uniform,0,0,0,0,24,24,24,0,0,6,6,6,6,6,0,6,0,,,,,,0,,28-01-22,28-01-22,16:40:36,Mon Feb 28 2022 16:40:36 GMT+0100 (közép-európai téli idő),The main experiment item,yes,0,0,C:/Users/rrics/Documents/!!ResearchBMECOGSCI/gnet,0,0,0,prototype2.png,no,mono,no,18,no,black,no,no,768,1159,3.5.6,legacy,xpyriment,osweb,1.3.13,0,right,space,right,,37691,35148,37691,,2,legacy,824,1536,24,864,24,0,0,1536,1646062835474,1024,2,48000,-16,experiment,p5sarrsha2.png,1,odd,Win32,84,146577,143573,84,84,229876,231379,224876,148083,224876,84,,,,,,visual_patterns,0,0,0,yes,1366
undefined,undefined,undefined,undefined,white,no,Mozilla,Netscape,"5.0 (Windows NT 10.0; Win64; x64) AppleWebKit/537.36 (KHTML, like Gecko) Chrome/98.0.4758.102 Safari/537.36",xpyriment,legacy,legacy,0,uniform,0,0,0,0,24,24,24,0,0,7,7,7,7,7,0,7,0,,,,,,0,,28-01-22,28-01-22,16:40:36,Mon Feb 28 2022 16:40:36 GMT+0100 (közép-európai téli idő),The main experiment item,yes,0,0,C:/Users/rrics/Documents/!!ResearchBMECOGSCI/gnet,0,0,0,prototype2.png,no,mono,no,18,no,black,no,no,768,1159,3.5.6,legacy,xpyriment,osweb,1.3.13,0,right,space,right,,37691,35148,37691,,2,legacy,824,1536,24,864,24,0,0,1536,1646062835474,1024,2,48000,-16,experiment,p2sarr1.png,1,odd,Win32,84,146577,143573,84,84,236388,237889,231386,148083,231386,84,,,,,,visual_patterns,0,0,0,yes,1366
undefined,undefined,undefined,undefined,white,no,Mozilla,Netscape,"5.0 (Windows NT 10.0; Win64; x64) AppleWebKit/537.36 (KHTML, like Gecko) Chrome/98.0.4758.102 Safari/537.36",xpyriment,legacy,legacy,0,uniform,0,0,0,0,24,24,24,0,0,8,8,8,8,8,0,8,0,,,,,,0,,28-01-22,28-01-22,16:40:36,Mon Feb 28 2022 16:40:36 GMT+0100 (közép-európai téli idő),The main experiment item,yes,0,0,C:/Users/rrics/Documents/!!ResearchBMECOGSCI/gnet,0,0,0,prototype2.png,no,mono,no,18,no,black,no,no,768,1159,3.5.6,legacy,xpyriment,osweb,1.3.13,0,right,space,right,,37691,35148,37691,,2,legacy,824,1536,24,864,24,0,0,1536,1646062835474,1024,2,48000,-16,experiment,prototype4.png,1,odd,Win32,84,146577,143573,84,84,242905,244408,237900,148083,237900,84,,,,,,visual_patterns,0,0,0,yes,1366
undefined,undefined,undefined,undefined,white,no,Mozilla,Netscape,"5.0 (Windows NT 10.0; Win64; x64) AppleWebKit/537.36 (KHTML, like Gecko) Chrome/98.0.4758.102 Safari/537.36",xpyriment,legacy,legacy,0,uniform,0,0,0,0,24,24,24,0,0,9,9,9,9,9,0,9,0,,,,,,0,,28-01-22,28-01-22,16:40:36,Mon Feb 28 2022 16:40:36 GMT+0100 (közép-európai téli idő),The main experiment item,yes,0,0,C:/Users/rrics/Documents/!!ResearchBMECOGSCI/gnet,0,0,0,prototype2.png,no,mono,no,18,no,black,no,no,768,1159,3.5.6,legacy,xpyriment,osweb,1.3.13,0,right,space,right,,37691,35148,37691,,2,legacy,824,1536,24,864,24,0,0,1536,1646062835474,1024,2,48000,-16,experiment,p5sarrsha1.png,1,odd,Win32,84,146577,143573,84,84,249413,250919,244412,148083,244412,84,,,,,,visual_patterns,0,0,0,yes,1366
undefined,undefined,undefined,undefined,white,no,Mozilla,Netscape,"5.0 (Windows NT 10.0; Win64; x64) AppleWebKit/537.36 (KHTML, like Gecko) Chrome/98.0.4758.102 Safari/537.36",xpyriment,legacy,legacy,0,uniform,0,0,0,0,24,24,24,0,0,10,10,10,10,10,0,10,0,,,,,,0,,28-01-22,28-01-22,16:40:36,Mon Feb 28 2022 16:40:36 GMT+0100 (közép-európai téli idő),The main experiment item,yes,0,0,C:/Users/rrics/Documents/!!ResearchBMECOGSCI/gnet,0,0,0,prototype2.png,no,mono,no,18,no,black,no,no,768,1159,3.5.6,legacy,xpyriment,osweb,1.3.13,0,right,space,right,,37691,35148,37691,,2,legacy,824,1536,24,864,24,0,0,1536,1646062835474,1024,2,48000,-16,experiment,p5sarrcol1.png,1,odd,Win32,84,146577,143573,84,84,255927,257429,250926,148083,250926,84,,,,,,visual_patterns,0,0,0,yes,1366
undefined,undefined,undefined,undefined,white,no,Mozilla,Netscape,"5.0 (Windows NT 10.0; Win64; x64) AppleWebKit/537.36 (KHTML, like Gecko) Chrome/98.0.4758.102 Safari/537.36",xpyriment,legacy,legacy,0,uniform,0,0,0,0,24,24,24,0,0,11,11,11,11,11,0,11,0,,,,,,0,,28-01-22,28-01-22,16:40:36,Mon Feb 28 2022 16:40:36 GMT+0100 (közép-európai téli idő),The main experiment item,yes,0,0,C:/Users/rrics/Documents/!!ResearchBMECOGSCI/gnet,0,0,0,prototype2.png,no,mono,no,18,no,black,no,no,768,1159,3.5.6,legacy,xpyriment,osweb,1.3.13,0,right,space,right,,37691,35148,37691,,2,legacy,824,1536,24,864,24,0,0,1536,1646062835474,1024,2,48000,-16,experiment,p8sarr2.png,1,odd,Win32,84,146577,143573,84,84,262443,263948,257441,148083,257441,84,,,,,,visual_patterns,0,0,0,yes,1366
undefined,undefined,undefined,undefined,white,no,Mozilla,Netscape,"5.0 (Windows NT 10.0; Win64; x64) AppleWebKit/537.36 (KHTML, like Gecko) Chrome/98.0.4758.102 Safari/537.36",xpyriment,legacy,legacy,0,uniform,0,0,0,0,24,24,24,0,0,12,12,12,12,12,0,12,0,,,,,,0,,28-01-22,28-01-22,16:40:36,Mon Feb 28 2022 16:40:36 GMT+0100 (közép-európai téli idő),The main experiment item,yes,0,0,C:/Users/rrics/Documents/!!ResearchBMECOGSCI/gnet,0,0,0,prototype2.png,no,mono,no,18,no,black,no,no,768,1159,3.5.6,legacy,xpyriment,osweb,1.3.13,0,right,space,right,,37691,35148,37691,,2,legacy,824,1536,24,864,24,0,0,1536,1646062835474,1024,2,48000,-16,experiment,p5sarrshacol2.png,1,odd,Win32,84,146577,143573,84,84,268955,270459,263953,148083,263953,84,,,,,,visual_patterns,0,0,0,yes,1366
undefined,undefined,undefined,undefined,white,no,Mozilla,Netscape,"5.0 (Windows NT 10.0; Win64; x64) AppleWebKit/537.36 (KHTML, like Gecko) Chrome/98.0.4758.102 Safari/537.36",xpyriment,legacy,legacy,0,uniform,0,0,0,0,24,24,24,0,0,13,13,13,13,13,0,13,0,,,,,,0,,28-01-22,28-01-22,16:40:36,Mon Feb 28 2022 16:40:36 GMT+0100 (közép-európai téli idő),The main experiment item,yes,0,0,C:/Users/rrics/Documents/!!ResearchBMECOGSCI/gnet,0,0,0,prototype2.png,no,mono,no,18,no,black,no,no,768,1159,3.5.6,legacy,xpyriment,osweb,1.3.13,0,right,space,right,,37691,35148,37691,,2,legacy,824,1536,24,864,24,0,0,1536,1646062835474,1024,2,48000,-16,experiment,p8sarr1.png,1,odd,Win32,84,146577,143573,84,84,275468,276969,270467,148083,270467,84,,,,,,visual_patterns,0,0,0,yes,1366
undefined,undefined,undefined,undefined,white,no,Mozilla,Netscape,"5.0 (Windows NT 10.0; Win64; x64) AppleWebKit/537.36 (KHTML, like Gecko) Chrome/98.0.4758.102 Safari/537.36",xpyriment,legacy,legacy,0,uniform,0,0,0,0,24,24,24,0,0,14,14,14,14,14,0,14,0,,,,,,0,,28-01-22,28-01-22,16:40:36,Mon Feb 28 2022 16:40:36 GMT+0100 (közép-európai téli idő),The main experiment item,yes,0,0,C:/Users/rrics/Documents/!!ResearchBMECOGSCI/gnet,0,0,0,prototype2.png,no,mono,no,18,no,black,no,no,768,1159,3.5.6,legacy,xpyriment,osweb,1.3.13,0,right,space,right,,37691,35148,37691,,2,legacy,824,1536,24,864,24,0,0,1536,1646062835474,1024,2,48000,-16,experiment,p3sarrcol1.png,1,odd,Win32,84,146577,143573,84,84,281976,283480,276977,148083,276977,84,,,,,,visual_patterns,0,0,0,yes,1366
undefined,undefined,undefined,undefined,white,no,Mozilla,Netscape,"5.0 (Windows NT 10.0; Win64; x64) AppleWebKit/537.36 (KHTML, like Gecko) Chrome/98.0.4758.102 Safari/537.36",xpyriment,legacy,legacy,0,uniform,0,0,0,0,24,24,24,0,0,15,15,15,15,15,0,15,0,,,,,,0,,28-01-22,28-01-22,16:40:36,Mon Feb 28 2022 16:40:36 GMT+0100 (közép-európai téli idő),The main experiment item,yes,0,0,C:/Users/rrics/Documents/!!ResearchBMECOGSCI/gnet,0,0,0,prototype2.png,no,mono,no,18,no,black,no,no,768,1159,3.5.6,legacy,xpyriment,osweb,1.3.13,0,right,space,right,,37691,35148,37691,,2,legacy,824,1536,24,864,24,0,0,1536,1646062835474,1024,2,48000,-16,experiment,prototype1.png,1,odd,Win32,84,146577,143573,84,84,288491,289998,283492,148083,283492,84,,,,,,visual_patterns,0,0,0,yes,1366
undefined,undefined,undefined,undefined,white,no,Mozilla,Netscape,"5.0 (Windows NT 10.0; Win64; x64) AppleWebKit/537.36 (KHTML, like Gecko) Chrome/98.0.4758.102 Safari/537.36",xpyriment,legacy,legacy,0,uniform,0,0,0,0,24,24,24,0,0,16,16,16,16,16,0,16,0,,,,,,0,,28-01-22,28-01-22,16:40:36,Mon Feb 28 2022 16:40:36 GMT+0100 (közép-európai téli idő),The main experiment item,yes,0,0,C:/Users/rrics/Documents/!!ResearchBMECOGSCI/gnet,0,0,0,prototype2.png,no,mono,no,18,no,black,no,no,768,1159,3.5.6,legacy,xpyriment,osweb,1.3.13,0,right,space,right,,37691,35148,37691,,2,legacy,824,1536,24,864,24,0,0,1536,1646062835474,1024,2,48000,-16,experiment,p2sarr2.png,1,odd,Win32,84,146577,143573,84,84,295011,296517,290007,148083,290007,84,,,,,,visual_patterns,0,0,0,yes,1366
undefined,undefined,undefined,undefined,white,no,Mozilla,Netscape,"5.0 (Windows NT 10.0; Win64; x64) AppleWebKit/537.36 (KHTML, like Gecko) Chrome/98.0.4758.102 Safari/537.36",xpyriment,legacy,legacy,0,uniform,0,0,0,0,24,24,24,0,0,17,17,17,17,17,0,17,0,,,,,,0,,28-01-22,28-01-22,16:40:36,Mon Feb 28 2022 16:40:36 GMT+0100 (közép-európai téli idő),The main experiment item,yes,0,0,C:/Users/rrics/Documents/!!ResearchBMECOGSCI/gnet,0,0,0,prototype2.png,no,mono,no,18,no,black,no,no,768,1159,3.5.6,legacy,xpyriment,osweb,1.3.13,0,right,space,right,,37691,35148,37691,,2,legacy,824,1536,24,864,24,0,0,1536,1646062835474,1024,2,48000,-16,experiment,p3sarrsha2.png,1,odd,Win32,84,146577,143573,84,84,301530,303036,296530,148083,296530,84,,,,,,visual_patterns,0,0,0,yes,1366
undefined,undefined,undefined,undefined,white,no,Mozilla,Netscape,"5.0 (Windows NT 10.0; Win64; x64) AppleWebKit/537.36 (KHTML, like Gecko) Chrome/98.0.4758.102 Safari/537.36",xpyriment,legacy,legacy,0,uniform,0,0,0,0,24,24,24,0,0,18,18,18,18,18,0,18,0,,,,,,0,,28-01-22,28-01-22,16:40:36,Mon Feb 28 2022 16:40:36 GMT+0100 (közép-európai téli idő),The main experiment item,yes,0,0,C:/Users/rrics/Documents/!!ResearchBMECOGSCI/gnet,0,0,0,prototype2.png,no,mono,no,18,no,black,no,no,768,1159,3.5.6,legacy,xpyriment,osweb,1.3.13,0,right,space,right,,37691,35148,37691,,2,legacy,824,1536,24,864,24,0,0,1536,1646062835474,1024,2,48000,-16,experiment,prototype4.png,1,odd,Win32,84,146577,143573,84,84,308045,309547,303040,148083,303040,84,,,,,,visual_patterns,0,0,0,yes,1366
undefined,undefined,undefined,undefined,white,no,Mozilla,Netscape,"5.0 (Windows NT 10.0; Win64; x64) AppleWebKit/537.36 (KHTML, like Gecko) Chrome/98.0.4758.102 Safari/537.36",xpyriment,legacy,legacy,0,uniform,0,0,0,0,24,24,24,0,0,19,19,19,19,19,0,19,0,,,,,,0,,28-01-22,28-01-22,16:40:36,Mon Feb 28 2022 16:40:36 GMT+0100 (közép-európai téli idő),The main experiment item,yes,0,0,C:/Users/rrics/Documents/!!ResearchBMECOGSCI/gnet,0,0,0,prototype2.png,no,mono,no,18,no,black,no,no,768,1159,3.5.6,legacy,xpyriment,osweb,1.3.13,0,right,space,right,,37691,35148,37691,,2,legacy,824,1536,24,864,24,0,0,1536,1646062835474,1024,2,48000,-16,experiment,p3sarrsha1.png,1,odd,Win32,84,146577,143573,84,84,314558,316065,309561,148083,309560,84,,,,,,visual_patterns,0,0,0,yes,1366
undefined,undefined,undefined,undefined,white,no,Mozilla,Netscape,"5.0 (Windows NT 10.0; Win64; x64) AppleWebKit/537.36 (KHTML, like Gecko) Chrome/98.0.4758.102 Safari/537.36",xpyriment,legacy,legacy,0,uniform,0,0,0,0,24,24,24,0,0,20,20,20,20,20,0,20,0,,,,,,0,,28-01-22,28-01-22,16:40:36,Mon Feb 28 2022 16:40:36 GMT+0100 (közép-európai téli idő),The main experiment item,yes,0,0,C:/Users/rrics/Documents/!!ResearchBMECOGSCI/gnet,0,0,0,prototype2.png,no,mono,no,18,no,black,no,no,768,1159,3.5.6,legacy,xpyriment,osweb,1.3.13,0,right,space,right,,37691,35148,37691,,2,legacy,824,1536,24,864,24,0,0,1536,1646062835474,1024,2,48000,-16,experiment,prototype2.png,1,odd,Win32,84,146577,143573,84,84,321076,322584,316072,148083,316072,84,,,,,,visual_patterns,0,0,0,yes,1366
undefined,undefined,undefined,undefined,white,no,Mozilla,Netscape,"5.0 (Windows NT 10.0; Win64; x64) AppleWebKit/537.36 (KHTML, like Gecko) Chrome/98.0.4758.102 Safari/537.36",xpyriment,legacy,legacy,0,uniform,0,0,0,0,24,24,24,0,0,21,21,21,21,21,0,21,0,,,,,,0,,28-01-22,28-01-22,16:40:36,Mon Feb 28 2022 16:40:36 GMT+0100 (közép-európai téli idő),The main experiment item,yes,0,0,C:/Users/rrics/Documents/!!ResearchBMECOGSCI/gnet,0,0,0,prototype2.png,no,mono,no,18,no,black,no,no,768,1159,3.5.6,legacy,xpyriment,osweb,1.3.13,0,right,space,right,,37691,35148,37691,,2,legacy,824,1536,24,864,24,0,0,1536,1646062835474,1024,2,48000,-16,experiment,p4sarrcol2.png,1,odd,Win32,84,146577,143573,84,84,327592,329094,322592,148083,322592,84,,,,,,visual_patterns,0,0,0,yes,1366
undefined,undefined,undefined,undefined,white,no,Mozilla,Netscape,"5.0 (Windows NT 10.0; Win64; x64) AppleWebKit/537.36 (KHTML, like Gecko) Chrome/98.0.4758.102 Safari/537.36",xpyriment,legacy,legacy,0,uniform,0,0,0,0,24,24,24,0,0,22,22,22,22,22,0,22,0,,,,,,0,,28-01-22,28-01-22,16:40:36,Mon Feb 28 2022 16:40:36 GMT+0100 (közép-európai téli idő),The main experiment item,yes,0,0,C:/Users/rrics/Documents/!!ResearchBMECOGSCI/gnet,0,0,0,prototype2.png,no,mono,no,18,no,black,no,no,768,1159,3.5.6,legacy,xpyriment,osweb,1.3.13,0,right,space,right,,37691,35148,37691,,2,legacy,824,1536,24,864,24,0,0,1536,1646062835474,1024,2,48000,-16,experiment,p5sarrshacol1.png,1,odd,Win32,84,146577,143573,84,84,334097,335605,329098,148083,329098,84,,,,,,visual_patterns,0,0,0,yes,1366
undefined,undefined,undefined,undefined,white,no,Mozilla,Netscape,"5.0 (Windows NT 10.0; Win64; x64) AppleWebKit/537.36 (KHTML, like Gecko) Chrome/98.0.4758.102 Safari/537.36",xpyriment,legacy,legacy,0,uniform,0,0,0,0,24,24,24,0,0,23,23,23,23,23,0,23,0,,,,,,0,,28-01-22,28-01-22,16:40:36,Mon Feb 28 2022 16:40:36 GMT+0100 (közép-európai téli idő),The main experiment item,yes,0,0,C:/Users/rrics/Documents/!!ResearchBMECOGSCI/gnet,0,0,0,prototype2.png,no,mono,no,18,no,black,no,no,768,1159,3.5.6,legacy,xpyriment,osweb,1.3.13,0,right,space,right,,37691,35148,37691,,2,legacy,824,1536,24,864,24,0,0,1536,1646062835474,1024,2,48000,-16,experiment,prototype2.png,1,odd,Win32,84,146577,143573,84,84,340616,342124,335616,148083,335616,84,,,,,,visual_patterns,0,0,0,yes,1366
undefined,undefined,undefined,undefined,white,no,Mozilla,Netscape,"5.0 (Windows NT 10.0; Win64; x64) AppleWebKit/537.36 (KHTML, like Gecko) Chrome/98.0.4758.102 Safari/537.36",xpyriment,legacy,legacy,0,uniform,0,0,0,0,24,24,24,0,0,24,24,24,24,24,0,24,0,,,,,,0,,28-01-22,28-01-22,16:40:36,Mon Feb 28 2022 16:40:36 GMT+0100 (közép-európai téli idő),The main experiment item,yes,0,0,C:/Users/rrics/Documents/!!ResearchBMECOGSCI/gnet,0,0,0,prototype2.png,no,mono,no,18,no,black,no,no,768,1159,3.5.6,legacy,xpyriment,osweb,1.3.13,0,right,space,right,,37691,35148,37691,,2,legacy,824,1536,24,864,24,0,0,1536,1646062835474,1024,2,48000,-16,experiment,p4sarrsha2.png,1,odd,Win32,84,146577,143573,84,84,347136,348642,342138,148083,342138,84,,,,,,visual_patterns,0,0,0,yes,1366
undefined,undefined,undefined,undefined,white,no,Mozilla,Netscape,"5.0 (Windows NT 10.0; Win64; x64) AppleWebKit/537.36 (KHTML, like Gecko) Chrome/98.0.4758.102 Safari/537.36",xpyriment,legacy,legacy,0,uniform,0,0,0,0,24,24,24,0,0,25,25,25,25,25,0,25,0,,,,,,0,,28-01-22,28-01-22,16:40:36,Mon Feb 28 2022 16:40:36 GMT+0100 (közép-európai téli idő),The main experiment item,yes,0,0,C:/Users/rrics/Documents/!!ResearchBMECOGSCI/gnet,0,0,0,prototype2.png,no,mono,no,18,no,black,no,no,768,1159,3.5.6,legacy,xpyriment,osweb,1.3.13,0,right,space,right,,37691,35148,37691,,2,legacy,824,1536,24,864,24,0,0,1536,1646062835474,1024,2,48000,-16,experiment,p9sarr1.png,1,odd,Win32,84,146577,143573,84,84,353650,355153,348646,148083,348646,84,,,,,,visual_patterns,0,0,0,yes,1366
undefined,undefined,undefined,undefined,white,no,Mozilla,Netscape,"5.0 (Windows NT 10.0; Win64; x64) AppleWebKit/537.36 (KHTML, like Gecko) Chrome/98.0.4758.102 Safari/537.36",xpyriment,legacy,legacy,0,uniform,0,0,0,0,24,24,24,0,0,26,26,26,26,26,0,26,0,,,,,,0,,28-01-22,28-01-22,16:40:36,Mon Feb 28 2022 16:40:36 GMT+0100 (közép-európai téli idő),The main experiment item,yes,0,0,C:/Users/rrics/Documents/!!ResearchBMECOGSCI/gnet,0,0,0,prototype2.png,no,mono,no,18,no,black,no,no,768,1159,3.5.6,legacy,xpyriment,osweb,1.3.13,0,right,space,right,,37691,35148,37691,,2,legacy,824,1536,24,864,24,0,0,1536,1646062835474,1024,2,48000,-16,experiment,prototype1.png,1,odd,Win32,84,146577,143573,84,84,360162,361664,355160,148083,355160,84,,,,,,visual_patterns,0,0,0,yes,1366
undefined,undefined,undefined,undefined,white,no,Mozilla,Netscape,"5.0 (Windows NT 10.0; Win64; x64) AppleWebKit/537.36 (KHTML, like Gecko) Chrome/98.0.4758.102 Safari/537.36",xpyriment,legacy,legacy,0,uniform,0,0,0,0,24,24,24,0,0,27,27,27,27,27,0,27,0,,,,,,0,,28-01-22,28-01-22,16:40:36,Mon Feb 28 2022 16:40:36 GMT+0100 (közép-európai téli idő),The main experiment item,yes,0,0,C:/Users/rrics/Documents/!!ResearchBMECOGSCI/gnet,0,0,0,prototype2.png,no,mono,no,18,no,black,no,no,768,1159,3.5.6,legacy,xpyriment,osweb,1.3.13,0,right,space,right,,37691,35148,37691,,2,legacy,824,1536,24,864,24,0,0,1536,1646062835474,1024,2,48000,-16,experiment,p4sarrcol1.png,1,odd,Win32,84,146577,143573,84,84,366673,368174,361673,148083,361673,84,,,,,,visual_patterns,0,0,0,yes,1366
undefined,undefined,undefined,undefined,white,no,Mozilla,Netscape,"5.0 (Windows NT 10.0; Win64; x64) AppleWebKit/537.36 (KHTML, like Gecko) Chrome/98.0.4758.102 Safari/537.36",xpyriment,legacy,legacy,0,uniform,0,0,0,0,24,24,24,0,0,28,28,28,28,28,0,28,0,,,,,,0,,28-01-22,28-01-22,16:40:36,Mon Feb 28 2022 16:40:36 GMT+0100 (közép-európai téli idő),The main experiment item,yes,0,0,C:/Users/rrics/Documents/!!ResearchBMECOGSCI/gnet,0,0,0,prototype2.png,no,mono,no,18,no,black,no,no,768,1159,3.5.6,legacy,xpyriment,osweb,1.3.13,0,right,space,right,,37691,35148,37691,,2,legacy,824,1536,24,864,24,0,0,1536,1646062835474,1024,2,48000,-16,experiment,prototype4.png,1,odd,Win32,84,146577,143573,84,84,373186,374693,368181,148083,368181,84,,,,,,visual_patterns,0,0,0,yes,1366
undefined,undefined,undefined,undefined,white,no,Mozilla,Netscape,"5.0 (Windows NT 10.0; Win64; x64) AppleWebKit/537.36 (KHTML, like Gecko) Chrome/98.0.4758.102 Safari/537.36",xpyriment,legacy,legacy,0,uniform,0,0,0,0,24,24,24,0,0,29,29,29,29,29,0,29,0,,,,,,0,,28-01-22,28-01-22,16:40:36,Mon Feb 28 2022 16:40:36 GMT+0100 (közép-európai téli idő),The main experiment item,yes,0,0,C:/Users/rrics/Documents/!!ResearchBMECOGSCI/gnet,0,0,0,prototype2.png,no,mono,no,18,no,black,no,no,768,1159,3.5.6,legacy,xpyriment,osweb,1.3.13,0,right,space,right,,37691,35148,37691,,2,legacy,824,1536,24,864,24,0,0,1536,1646062835474,1024,2,48000,-16,experiment,prototype5.png,1,odd,Win32,84,146577,143573,84,84,379700,381203,374696,148083,374696,84,,,,,,visual_patterns,0,0,0,yes,1366
undefined,undefined,undefined,undefined,white,no,Mozilla,Netscape,"5.0 (Windows NT 10.0; Win64; x64) AppleWebKit/537.36 (KHTML, like Gecko) Chrome/98.0.4758.102 Safari/537.36",xpyriment,legacy,legacy,0,uniform,0,0,0,0,24,24,24,0,0,30,30,30,30,30,0,30,0,,,,,,0,,28-01-22,28-01-22,16:40:36,Mon Feb 28 2022 16:40:36 GMT+0100 (közép-európai téli idő),The main experiment item,yes,0,0,C:/Users/rrics/Documents/!!ResearchBMECOGSCI/gnet,0,0,0,prototype2.png,no,mono,no,18,no,black,no,no,768,1159,3.5.6,legacy,xpyriment,osweb,1.3.13,0,right,space,right,,37691,35148,37691,,2,legacy,824,1536,24,864,24,0,0,1536,1646062835474,1024,2,48000,-16,experiment,p5sarrcol2.png,1,odd,Win32,84,146577,143573,84,84,386211,387714,381207,148083,381207,84,,,,,,visual_patterns,0,0,0,yes,1366
undefined,undefined,undefined,undefined,white,no,Mozilla,Netscape,"5.0 (Windows NT 10.0; Win64; x64) AppleWebKit/537.36 (KHTML, like Gecko) Chrome/98.0.4758.102 Safari/537.36",xpyriment,legacy,legacy,0,uniform,0,0,0,0,24,24,24,0,0,31,31,31,31,31,0,31,0,,,,,,0,,28-01-22,28-01-22,16:40:36,Mon Feb 28 2022 16:40:36 GMT+0100 (közép-európai téli idő),The main experiment item,yes,0,0,C:/Users/rrics/Documents/!!ResearchBMECOGSCI/gnet,0,0,0,prototype2.png,no,mono,no,18,no,black,no,no,768,1159,3.5.6,legacy,xpyriment,osweb,1.3.13,0,right,space,right,,37691,35148,37691,,2,legacy,824,1536,24,864,24,0,0,1536,1646062835474,1024,2,48000,-16,experiment,p2sarrsha2.png,1,odd,Win32,84,146577,143573,84,84,392721,394224,387720,148083,387720,84,,,,,,visual_patterns,0,0,0,yes,1366
undefined,undefined,undefined,undefined,white,no,Mozilla,Netscape,"5.0 (Windows NT 10.0; Win64; x64) AppleWebKit/537.36 (KHTML, like Gecko) Chrome/98.0.4758.102 Safari/537.36",xpyriment,legacy,legacy,0,uniform,0,0,0,0,24,24,24,0,0,32,32,32,32,32,0,32,0,,,,,,0,,28-01-22,28-01-22,16:40:36,Mon Feb 28 2022 16:40:36 GMT+0100 (közép-európai téli idő),The main experiment item,yes,0,0,C:/Users/rrics/Documents/!!ResearchBMECOGSCI/gnet,0,0,0,prototype2.png,no,mono,no,18,no,black,no,no,768,1159,3.5.6,legacy,xpyriment,osweb,1.3.13,0,right,space,right,,37691,35148,37691,,2,legacy,824,1536,24,864,24,0,0,1536,1646062835474,1024,2,48000,-16,experiment,p5sarr1.png,1,odd,Win32,84,146577,143573,84,84,399237,400743,394236,148083,394236,84,,,,,,visual_patterns,0,0,0,yes,1366
undefined,undefined,undefined,undefined,white,no,Mozilla,Netscape,"5.0 (Windows NT 10.0; Win64; x64) AppleWebKit/537.36 (KHTML, like Gecko) Chrome/98.0.4758.102 Safari/537.36",xpyriment,legacy,legacy,0,uniform,0,0,0,0,24,24,24,0,0,33,33,33,33,33,0,33,0,,,,,,0,,28-01-22,28-01-22,16:40:36,Mon Feb 28 2022 16:40:36 GMT+0100 (közép-európai téli idő),The main experiment item,yes,0,0,C:/Users/rrics/Documents/!!ResearchBMECOGSCI/gnet,0,0,0,prototype2.png,no,mono,no,18,no,black,no,no,768,1159,3.5.6,legacy,xpyriment,osweb,1.3.13,0,right,space,right,,37691,35148,37691,,2,legacy,824,1536,24,864,24,0,0,1536,1646062835474,1024,2,48000,-16,experiment,p3sarrshacol1.png,1,odd,Win32,84,146577,143573,84,84,405747,407254,400747,148083,400747,84,,,,,,visual_patterns,0,0,0,yes,1366
undefined,undefined,undefined,undefined,white,no,Mozilla,Netscape,"5.0 (Windows NT 10.0; Win64; x64) AppleWebKit/537.36 (KHTML, like Gecko) Chrome/98.0.4758.102 Safari/537.36",xpyriment,legacy,legacy,0,uniform,0,0,0,0,24,24,24,0,0,34,34,34,34,34,0,34,0,,,,,,0,,28-01-22,28-01-22,16:40:36,Mon Feb 28 2022 16:40:36 GMT+0100 (közép-európai téli idő),The main experiment item,yes,0,0,C:/Users/rrics/Documents/!!ResearchBMECOGSCI/gnet,0,0,0,prototype2.png,no,mono,no,18,no,black,no,no,768,1159,3.5.6,legacy,xpyriment,osweb,1.3.13,0,right,space,right,,37691,35148,37691,,2,legacy,824,1536,24,864,24,0,0,1536,1646062835474,1024,2,48000,-16,experiment,prototype1.png,1,odd,Win32,84,146577,143573,84,84,412260,413765,407260,148083,407260,84,,,,,,visual_patterns,0,0,0,yes,1366
undefined,undefined,undefined,undefined,white,no,Mozilla,Netscape,"5.0 (Windows NT 10.0; Win64; x64) AppleWebKit/537.36 (KHTML, like Gecko) Chrome/98.0.4758.102 Safari/537.36",xpyriment,legacy,legacy,0,uniform,0,0,0,0,24,24,24,0,0,35,35,35,35,35,0,35,0,,,,,,0,,28-01-22,28-01-22,16:40:36,Mon Feb 28 2022 16:40:36 GMT+0100 (közép-európai téli idő),The main experiment item,yes,0,0,C:/Users/rrics/Documents/!!ResearchBMECOGSCI/gnet,0,0,0,prototype2.png,no,mono,no,18,no,black,no,no,768,1159,3.5.6,legacy,xpyriment,osweb,1.3.13,0,right,space,right,,37691,35148,37691,,2,legacy,824,1536,24,864,24,0,0,1536,1646062835474,1024,2,48000,-16,experiment,p4sarrshacol1.png,1,odd,Win32,84,146577,143573,84,84,418774,420275,413772,148083,413772,84,,,,,,visual_patterns,0,0,0,yes,1366
undefined,undefined,undefined,undefined,white,no,Mozilla,Netscape,"5.0 (Windows NT 10.0; Win64; x64) AppleWebKit/537.36 (KHTML, like Gecko) Chrome/98.0.4758.102 Safari/537.36",xpyriment,legacy,legacy,0,uniform,0,0,0,0,24,24,24,0,0,36,36,36,36,36,0,36,0,,,,,,0,,28-01-22,28-01-22,16:40:36,Mon Feb 28 2022 16:40:36 GMT+0100 (közép-európai téli idő),The main experiment item,yes,0,0,C:/Users/rrics/Documents/!!ResearchBMECOGSCI/gnet,0,0,0,prototype2.png,no,mono,no,18,no,black,no,no,768,1159,3.5.6,legacy,xpyriment,osweb,1.3.13,0,right,space,right,,37691,35148,37691,,2,legacy,824,1536,24,864,24,0,0,1536,1646062835474,1024,2,48000,-16,experiment,prototype3.png,1,odd,Win32,84,146577,143573,84,84,425283,426785,420281,148083,420281,84,,,,,,visual_patterns,0,0,0,yes,1366
undefined,undefined,undefined,undefined,white,no,Mozilla,Netscape,"5.0 (Windows NT 10.0; Win64; x64) AppleWebKit/537.36 (KHTML, like Gecko) Chrome/98.0.4758.102 Safari/537.36",xpyriment,legacy,legacy,0,uniform,0,0,0,0,24,24,24,0,0,37,37,37,37,37,0,37,0,,,,,,0,,28-01-22,28-01-22,16:40:36,Mon Feb 28 2022 16:40:36 GMT+0100 (közép-európai téli idő),The main experiment item,yes,0,0,C:/Users/rrics/Documents/!!ResearchBMECOGSCI/gnet,0,0,0,prototype2.png,no,mono,no,18,no,black,no,no,768,1159,3.5.6,legacy,xpyriment,osweb,1.3.13,0,right,space,right,,37691,35148,37691,,2,legacy,824,1536,24,864,24,0,0,1536,1646062835474,1024,2,48000,-16,experiment,prototype3.png,1,odd,Win32,84,146577,143573,84,84,431790,433296,426788,148083,426788,84,,,,,,visual_patterns,0,0,0,yes,1366
undefined,undefined,undefined,undefined,white,no,Mozilla,Netscape,"5.0 (Windows NT 10.0; Win64; x64) AppleWebKit/537.36 (KHTML, like Gecko) Chrome/98.0.4758.102 Safari/537.36",xpyriment,legacy,legacy,0,uniform,0,0,0,0,24,24,24,0,0,38,38,38,38,38,0,38,0,,,,,,0,,28-01-22,28-01-22,16:40:36,Mon Feb 28 2022 16:40:36 GMT+0100 (közép-európai téli idő),The main experiment item,yes,0,0,C:/Users/rrics/Documents/!!ResearchBMECOGSCI/gnet,0,0,0,prototype2.png,no,mono,no,18,no,black,no,no,768,1159,3.5.6,legacy,xpyriment,osweb,1.3.13,0,right,space,right,,37691,35148,37691,,2,legacy,824,1536,24,864,24,0,0,1536,1646062835474,1024,2,48000,-16,experiment,p7sarr1.png,1,odd,Win32,84,146577,143573,84,84,438307,439815,433313,148083,433313,84,,,,,,visual_patterns,0,0,0,yes,1366
undefined,undefined,undefined,undefined,white,no,Mozilla,Netscape,"5.0 (Windows NT 10.0; Win64; x64) AppleWebKit/537.36 (KHTML, like Gecko) Chrome/98.0.4758.102 Safari/537.36",xpyriment,legacy,legacy,0,uniform,0,0,0,0,24,24,24,0,0,39,39,39,39,39,0,39,0,,,,,,0,,28-01-22,28-01-22,16:40:36,Mon Feb 28 2022 16:40:36 GMT+0100 (közép-európai téli idő),The main experiment item,yes,0,0,C:/Users/rrics/Documents/!!ResearchBMECOGSCI/gnet,0,0,0,prototype2.png,no,mono,no,18,no,black,no,no,768,1159,3.5.6,legacy,xpyriment,osweb,1.3.13,0,right,space,right,,37691,35148,37691,,2,legacy,824,1536,24,864,24,0,0,1536,1646062835474,1024,2,48000,-16,experiment,p1sarrsha1.png,1,odd,Win32,84,146577,143573,84,84,444824,446325,439822,148083,439822,84,,,,,,visual_patterns,0,0,0,yes,1366
undefined,undefined,undefined,undefined,white,no,Mozilla,Netscape,"5.0 (Windows NT 10.0; Win64; x64) AppleWebKit/537.36 (KHTML, like Gecko) Chrome/98.0.4758.102 Safari/537.36",xpyriment,legacy,legacy,0,uniform,0,0,0,0,24,24,24,0,0,40,40,40,40,40,0,40,0,,,,,,0,,28-01-22,28-01-22,16:40:36,Mon Feb 28 2022 16:40:36 GMT+0100 (közép-európai téli idő),The main experiment item,yes,0,0,C:/Users/rrics/Documents/!!ResearchBMECOGSCI/gnet,0,0,0,prototype2.png,no,mono,no,18,no,black,no,no,768,1159,3.5.6,legacy,xpyriment,osweb,1.3.13,0,right,space,right,,37691,35148,37691,,2,legacy,824,1536,24,864,24,0,0,1536,1646062835474,1024,2,48000,-16,experiment,prototype5.png,1,odd,Win32,84,146577,143573,84,84,451339,452844,446337,148083,446337,84,,,,,,visual_patterns,0,0,0,yes,1366
undefined,undefined,undefined,undefined,white,no,Mozilla,Netscape,"5.0 (Windows NT 10.0; Win64; x64) AppleWebKit/537.36 (KHTML, like Gecko) Chrome/98.0.4758.102 Safari/537.36",xpyriment,legacy,legacy,0,uniform,0,0,0,0,24,24,24,0,0,41,41,41,41,41,0,41,0,,,,,,0,,28-01-22,28-01-22,16:40:36,Mon Feb 28 2022 16:40:36 GMT+0100 (közép-európai téli idő),The main experiment item,yes,0,0,C:/Users/rrics/Documents/!!ResearchBMECOGSCI/gnet,0,0,0,prototype2.png,no,mono,no,18,no,black,no,no,768,1159,3.5.6,legacy,xpyriment,osweb,1.3.13,0,right,space,right,,37691,35148,37691,,2,legacy,824,1536,24,864,24,0,0,1536,1646062835474,1024,2,48000,-16,experiment,p3sarrshacol2.png,1,odd,Win32,84,146577,143573,84,84,457851,459354,452848,148083,452848,84,,,,,,visual_patterns,0,0,0,yes,1366
undefined,undefined,undefined,undefined,white,no,Mozilla,Netscape,"5.0 (Windows NT 10.0; Win64; x64) AppleWebKit/537.36 (KHTML, like Gecko) Chrome/98.0.4758.102 Safari/537.36",xpyriment,legacy,legacy,0,uniform,0,0,0,0,24,24,24,0,0,42,42,42,42,42,0,42,0,,,,,,0,,28-01-22,28-01-22,16:40:36,Mon Feb 28 2022 16:40:36 GMT+0100 (közép-európai téli idő),The main experiment item,yes,0,0,C:/Users/rrics/Documents/!!ResearchBMECOGSCI/gnet,0,0,0,prototype2.png,no,mono,no,18,no,black,no,no,768,1159,3.5.6,legacy,xpyriment,osweb,1.3.13,0,right,space,right,,37691,35148,37691,,2,legacy,824,1536,24,864,24,0,0,1536,1646062835474,1024,2,48000,-16,experiment,p3sarrcol2.png,1,odd,Win32,84,146577,143573,84,84,464362,465865,459364,148083,459364,84,,,,,,visual_patterns,0,0,0,yes,1366
undefined,undefined,undefined,undefined,white,no,Mozilla,Netscape,"5.0 (Windows NT 10.0; Win64; x64) AppleWebKit/537.36 (KHTML, like Gecko) Chrome/98.0.4758.102 Safari/537.36",xpyriment,legacy,legacy,0,uniform,0,0,0,0,24,24,24,0,0,43,43,43,43,43,0,43,0,,,,,,0,,28-01-22,28-01-22,16:40:36,Mon Feb 28 2022 16:40:36 GMT+0100 (közép-európai téli idő),The main experiment item,yes,0,0,C:/Users/rrics/Documents/!!ResearchBMECOGSCI/gnet,0,0,0,prototype2.png,no,mono,no,18,no,black,no,no,768,1159,3.5.6,legacy,xpyriment,osweb,1.3.13,0,right,space,right,,37691,35148,37691,,2,legacy,824,1536,24,864,24,0,0,1536,1646062835474,1024,2,48000,-16,experiment,p3sarr2.png,1,odd,Win32,84,146577,143573,84,84,470872,472376,465870,148083,465870,84,,,,,,visual_patterns,0,0,0,yes,1366
undefined,undefined,undefined,undefined,white,no,Mozilla,Netscape,"5.0 (Windows NT 10.0; Win64; x64) AppleWebKit/537.36 (KHTML, like Gecko) Chrome/98.0.4758.102 Safari/537.36",xpyriment,legacy,legacy,0,uniform,0,0,0,0,24,24,24,0,0,44,44,44,44,44,0,44,0,,,,,,0,,28-01-22,28-01-22,16:40:36,Mon Feb 28 2022 16:40:36 GMT+0100 (közép-európai téli idő),The main experiment item,yes,0,0,C:/Users/rrics/Documents/!!ResearchBMECOGSCI/gnet,0,0,0,prototype2.png,no,mono,no,18,no,black,no,no,768,1159,3.5.6,legacy,xpyriment,osweb,1.3.13,0,right,space,right,,37691,35148,37691,,2,legacy,824,1536,24,864,24,0,0,1536,1646062835474,1024,2,48000,-16,experiment,p2sarrsha1.png,1,odd,Win32,84,146577,143573,84,84,477384,478886,472384,148083,472384,84,,,,,,visual_patterns,0,0,0,yes,1366
undefined,undefined,undefined,undefined,white,no,Mozilla,Netscape,"5.0 (Windows NT 10.0; Win64; x64) AppleWebKit/537.36 (KHTML, like Gecko) Chrome/98.0.4758.102 Safari/537.36",xpyriment,legacy,legacy,0,uniform,0,0,0,0,24,24,24,0,0,45,45,45,45,45,0,45,0,,,,,,0,,28-01-22,28-01-22,16:40:36,Mon Feb 28 2022 16:40:36 GMT+0100 (közép-európai téli idő),The main experiment item,yes,0,0,C:/Users/rrics/Documents/!!ResearchBMECOGSCI/gnet,0,0,0,prototype2.png,no,mono,no,18,no,black,no,no,768,1159,3.5.6,legacy,xpyriment,osweb,1.3.13,0,right,space,right,,37691,35148,37691,,2,legacy,824,1536,24,864,24,0,0,1536,1646062835474,1024,2,48000,-16,experiment,p4sarrsha1.png,1,odd,Win32,84,146577,143573,84,84,483899,485405,478894,148083,478894,84,,,,,,visual_patterns,0,0,0,yes,1366
undefined,undefined,undefined,undefined,white,no,Mozilla,Netscape,"5.0 (Windows NT 10.0; Win64; x64) AppleWebKit/537.36 (KHTML, like Gecko) Chrome/98.0.4758.102 Safari/537.36",xpyriment,legacy,legacy,0,uniform,0,0,0,0,24,24,24,0,0,46,46,46,46,46,0,46,0,,,,,,0,,28-01-22,28-01-22,16:40:36,Mon Feb 28 2022 16:40:36 GMT+0100 (közép-európai téli idő),The main experiment item,yes,0,0,C:/Users/rrics/Documents/!!ResearchBMECOGSCI/gnet,0,0,0,prototype2.png,no,mono,no,18,no,black,no,no,768,1159,3.5.6,legacy,xpyriment,osweb,1.3.13,0,right,space,right,,37691,35148,37691,,2,legacy,824,1536,24,864,24,0,0,1536,1646062835474,1024,2,48000,-16,experiment,p1sarrcol1.png,1,odd,Win32,84,146577,143573,84,84,490421,491924,485420,148083,485420,84,,,,,,visual_patterns,0,0,0,yes,1366
undefined,undefined,undefined,undefined,white,no,Mozilla,Netscape,"5.0 (Windows NT 10.0; Win64; x64) AppleWebKit/537.36 (KHTML, like Gecko) Chrome/98.0.4758.102 Safari/537.36",xpyriment,legacy,legacy,0,uniform,0,0,0,0,24,24,24,0,0,47,47,47,47,47,0,47,0,,,,,,0,,28-01-22,28-01-22,16:40:36,Mon Feb 28 2022 16:40:36 GMT+0100 (közép-európai téli idő),The main experiment item,yes,0,0,C:/Users/rrics/Documents/!!ResearchBMECOGSCI/gnet,0,0,0,prototype2.png,no,mono,no,18,no,black,no,no,768,1159,3.5.6,legacy,xpyriment,osweb,1.3.13,0,right,space,right,,37691,35148,37691,,2,legacy,824,1536,24,864,24,0,0,1536,1646062835474,1024,2,48000,-16,experiment,p1sarrsha2.png,1,odd,Win32,84,146577,143573,84,84,496939,498443,491937,148083,491937,84,,,,,,visual_patterns,0,0,0,yes,1366
undefined,undefined,undefined,undefined,white,no,Mozilla,Netscape,"5.0 (Windows NT 10.0; Win64; x64) AppleWebKit/537.36 (KHTML, like Gecko) Chrome/98.0.4758.102 Safari/537.36",xpyriment,legacy,legacy,0,uniform,0,0,0,0,24,24,24,0,0,48,48,48,48,48,0,48,0,,,,,,0,,28-01-22,28-01-22,16:40:36,Mon Feb 28 2022 16:40:36 GMT+0100 (közép-európai téli idő),The main experiment item,yes,0,0,C:/Users/rrics/Documents/!!ResearchBMECOGSCI/gnet,0,0,0,prototype2.png,no,mono,no,18,no,black,no,no,768,1159,3.5.6,legacy,xpyriment,osweb,1.3.13,0,right,space,right,,37691,35148,37691,,2,legacy,824,1536,24,864,24,0,0,1536,1646062835474,1024,2,48000,-16,experiment,p7sarr2.png,1,odd,Win32,84,146577,143573,84,84,503452,504953,498456,148083,498456,84,,,,,,visual_patterns,0,0,0,yes,1366
undefined,undefined,undefined,undefined,white,no,Mozilla,Netscape,"5.0 (Windows NT 10.0; Win64; x64) AppleWebKit/537.36 (KHTML, like Gecko) Chrome/98.0.4758.102 Safari/537.36",xpyriment,legacy,legacy,0,uniform,0,0,0,0,24,24,24,0,0,49,49,49,49,49,0,49,0,,,,,,0,,28-01-22,28-01-22,16:40:36,Mon Feb 28 2022 16:40:36 GMT+0100 (közép-európai téli idő),The main experiment item,yes,0,0,C:/Users/rrics/Documents/!!ResearchBMECOGSCI/gnet,0,0,0,prototype2.png,no,mono,no,18,no,black,no,no,768,1159,3.5.6,legacy,xpyriment,osweb,1.3.13,0,right,space,right,,37691,35148,37691,,2,legacy,824,1536,24,864,24,0,0,1536,1646062835474,1024,2,48000,-16,experiment,p4sarr1.png,1,odd,Win32,84,146577,143573,84,84,509963,511472,504960,148083,504960,84,,,,,,visual_patterns,0,0,0,yes,1366
undefined,undefined,undefined,undefined,white,no,Mozilla,Netscape,"5.0 (Windows NT 10.0; Win64; x64) AppleWebKit/537.36 (KHTML, like Gecko) Chrome/98.0.4758.102 Safari/537.36",xpyriment,legacy,legacy,0,uniform,0,0,0,0,24,24,24,0,0,50,50,50,50,50,0,50,0,,,,,,0,,28-01-22,28-01-22,16:40:36,Mon Feb 28 2022 16:40:36 GMT+0100 (közép-európai téli idő),The main experiment item,yes,0,0,C:/Users/rrics/Documents/!!ResearchBMECOGSCI/gnet,0,0,0,prototype2.png,no,mono,no,18,no,black,no,no,768,1159,3.5.6,legacy,xpyriment,osweb,1.3.13,0,right,space,right,,37691,35148,37691,,2,legacy,824,1536,24,864,24,0,0,1536,1646062835474,1024,2,48000,-16,experiment,p10sarr1.png,1,odd,Win32,84,146577,143573,84,84,516477,517982,511476,148083,511476,84,,,,,,visual_patterns,0,0,0,yes,1366
undefined,undefined,undefined,undefined,white,no,Mozilla,Netscape,"5.0 (Windows NT 10.0; Win64; x64) AppleWebKit/537.36 (KHTML, like Gecko) Chrome/98.0.4758.102 Safari/537.36",xpyriment,legacy,legacy,0,uniform,0,0,0,0,24,24,24,0,0,51,51,51,51,51,0,51,0,,,,,,0,,28-01-22,28-01-22,16:40:36,Mon Feb 28 2022 16:40:36 GMT+0100 (közép-európai téli idő),The main experiment item,yes,0,0,C:/Users/rrics/Documents/!!ResearchBMECOGSCI/gnet,0,0,0,prototype2.png,no,mono,no,18,no,black,no,no,768,1159,3.5.6,legacy,xpyriment,osweb,1.3.13,0,right,space,right,,37691,35148,37691,,2,legacy,824,1536,24,864,24,0,0,1536,1646062835474,1024,2,48000,-16,experiment,prototype3.png,1,odd,Win32,84,146577,143573,84,84,522991,524492,517989,148083,517989,84,,,,,,visual_patterns,0,0,0,yes,1366
undefined,undefined,undefined,undefined,white,no,Mozilla,Netscape,"5.0 (Windows NT 10.0; Win64; x64) AppleWebKit/537.36 (KHTML, like Gecko) Chrome/98.0.4758.102 Safari/537.36",xpyriment,legacy,legacy,0,uniform,0,0,0,0,24,24,24,0,0,52,52,52,52,52,0,52,0,,,,,,0,,28-01-22,28-01-22,16:40:36,Mon Feb 28 2022 16:40:36 GMT+0100 (közép-európai téli idő),The main experiment item,yes,0,0,C:/Users/rrics/Documents/!!ResearchBMECOGSCI/gnet,0,0,0,prototype2.png,no,mono,no,18,no,black,no,no,768,1159,3.5.6,legacy,xpyriment,osweb,1.3.13,0,right,space,right,,37691,35148,37691,,2,legacy,824,1536,24,864,24,0,0,1536,1646062835474,1024,2,48000,-16,experiment,p1sarr1.png,1,odd,Win32,84,146577,143573,84,84,529497,531003,524496,148083,524496,84,,,,,,visual_patterns,0,0,0,yes,1366
undefined,undefined,undefined,undefined,white,no,Mozilla,Netscape,"5.0 (Windows NT 10.0; Win64; x64) AppleWebKit/537.36 (KHTML, like Gecko) Chrome/98.0.4758.102 Safari/537.36",xpyriment,legacy,legacy,0,uniform,0,0,0,0,24,24,24,0,0,53,53,53,53,53,0,53,0,,,,,,0,,28-01-22,28-01-22,16:40:36,Mon Feb 28 2022 16:40:36 GMT+0100 (közép-európai téli idő),The main experiment item,yes,0,0,C:/Users/rrics/Documents/!!ResearchBMECOGSCI/gnet,0,0,0,prototype2.png,no,mono,no,18,no,black,no,no,768,1159,3.5.6,legacy,xpyriment,osweb,1.3.13,0,right,space,right,,37691,35148,37691,,2,legacy,824,1536,24,864,24,0,0,1536,1646062835474,1024,2,48000,-16,experiment,p1sarrcol2.png,1,odd,Win32,84,146577,143573,84,84,536008,537514,531008,148083,531008,84,,,,,,visual_patterns,0,0,0,yes,1366
undefined,undefined,undefined,undefined,white,no,Mozilla,Netscape,"5.0 (Windows NT 10.0; Win64; x64) AppleWebKit/537.36 (KHTML, like Gecko) Chrome/98.0.4758.102 Safari/537.36",xpyriment,legacy,legacy,0,uniform,0,0,0,0,24,24,24,0,0,54,54,54,54,54,0,54,0,,,,,,0,,28-01-22,28-01-22,16:40:36,Mon Feb 28 2022 16:40:36 GMT+0100 (közép-európai téli idő),The main experiment item,yes,0,0,C:/Users/rrics/Documents/!!ResearchBMECOGSCI/gnet,0,0,0,prototype2.png,no,mono,no,18,no,black,no,no,768,1159,3.5.6,legacy,xpyriment,osweb,1.3.13,0,right,space,right,,37691,35148,37691,,2,legacy,824,1536,24,864,24,0,0,1536,1646062835474,1024,2,48000,-16,experiment,p2sarrcol2.png,1,odd,Win32,84,146577,143573,84,84,542522,544025,537522,148083,537522,84,,,,,,visual_patterns,0,0,0,yes,1366
undefined,undefined,undefined,undefined,white,no,Mozilla,Netscape,"5.0 (Windows NT 10.0; Win64; x64) AppleWebKit/537.36 (KHTML, like Gecko) Chrome/98.0.4758.102 Safari/537.36",xpyriment,legacy,legacy,0,uniform,0,0,0,0,24,24,24,0,0,55,55,55,55,55,0,55,0,,,,,,0,,28-01-22,28-01-22,16:40:36,Mon Feb 28 2022 16:40:36 GMT+0100 (közép-európai téli idő),The main experiment item,yes,0,0,C:/Users/rrics/Documents/!!ResearchBMECOGSCI/gnet,0,0,0,prototype2.png,no,mono,no,18,no,black,no,no,768,1159,3.5.6,legacy,xpyriment,osweb,1.3.13,0,right,space,right,,37691,35148,37691,,2,legacy,824,1536,24,864,24,0,0,1536,1646062835474,1024,2,48000,-16,experiment,prototype4.png,1,odd,Win32,84,146577,143573,84,84,549036,550543,544035,148083,544035,84,,,,,,visual_patterns,0,0,0,yes,1366
undefined,undefined,undefined,undefined,white,no,Mozilla,Netscape,"5.0 (Windows NT 10.0; Win64; x64) AppleWebKit/537.36 (KHTML, like Gecko) Chrome/98.0.4758.102 Safari/537.36",xpyriment,legacy,legacy,0,uniform,0,0,0,0,24,24,24,0,0,56,56,56,56,56,0,56,0,,,,,,0,,28-01-22,28-01-22,16:40:36,Mon Feb 28 2022 16:40:36 GMT+0100 (közép-európai téli idő),The main experiment item,yes,0,0,C:/Users/rrics/Documents/!!ResearchBMECOGSCI/gnet,0,0,0,prototype2.png,no,mono,no,18,no,black,no,no,768,1159,3.5.6,legacy,xpyriment,osweb,1.3.13,0,right,space,right,,37691,35148,37691,,2,legacy,824,1536,24,864,24,0,0,1536,1646062835474,1024,2,48000,-16,experiment,p2sarrshacol1.png,1,odd,Win32,84,146577,143573,84,84,555556,557062,550556,148083,550556,84,,,,,,visual_patterns,0,0,0,yes,1366
undefined,undefined,undefined,undefined,white,no,Mozilla,Netscape,"5.0 (Windows NT 10.0; Win64; x64) AppleWebKit/537.36 (KHTML, like Gecko) Chrome/98.0.4758.102 Safari/537.36",xpyriment,legacy,legacy,0,uniform,0,0,0,0,24,24,24,0,0,57,57,57,57,57,0,57,0,,,,,,0,,28-01-22,28-01-22,16:40:36,Mon Feb 28 2022 16:40:36 GMT+0100 (közép-európai téli idő),The main experiment item,yes,0,0,C:/Users/rrics/Documents/!!ResearchBMECOGSCI/gnet,0,0,0,prototype2.png,no,mono,no,18,no,black,no,no,768,1159,3.5.6,legacy,xpyriment,osweb,1.3.13,0,right,space,right,,37691,35148,37691,,2,legacy,824,1536,24,864,24,0,0,1536,1646062835474,1024,2,48000,-16,experiment,prototype5.png,1,odd,Win32,84,146577,143573,84,84,562072,563573,557071,148083,557071,84,,,,,,visual_patterns,0,0,0,yes,1366
undefined,undefined,undefined,undefined,white,no,Mozilla,Netscape,"5.0 (Windows NT 10.0; Win64; x64) AppleWebKit/537.36 (KHTML, like Gecko) Chrome/98.0.4758.102 Safari/537.36",xpyriment,legacy,legacy,0,uniform,0,0,0,0,24,24,24,0,0,58,58,58,58,58,0,58,0,,,,,,0,,28-01-22,28-01-22,16:40:36,Mon Feb 28 2022 16:40:36 GMT+0100 (közép-európai téli idő),The main experiment item,yes,0,0,C:/Users/rrics/Documents/!!ResearchBMECOGSCI/gnet,0,0,0,prototype2.png,no,mono,no,18,no,black,no,no,768,1159,3.5.6,legacy,xpyriment,osweb,1.3.13,0,right,space,right,,37691,35148,37691,,2,legacy,824,1536,24,864,24,0,0,1536,1646062835474,1024,2,48000,-16,experiment,prototype2.png,1,odd,Win32,84,146577,143573,84,84,568586,570092,563585,148083,563585,84,,,,,,visual_patterns,0,0,0,yes,1366
undefined,undefined,undefined,undefined,white,no,Mozilla,Netscape,"5.0 (Windows NT 10.0; Win64; x64) AppleWebKit/537.36 (KHTML, like Gecko) Chrome/98.0.4758.102 Safari/537.36",xpyriment,legacy,legacy,0,uniform,0,0,0,0,24,24,24,0,0,59,59,59,59,59,0,59,0,,,,,,0,,28-01-22,28-01-22,16:40:36,Mon Feb 28 2022 16:40:36 GMT+0100 (közép-európai téli idő),The main experiment item,yes,0,0,C:/Users/rrics/Documents/!!ResearchBMECOGSCI/gnet,0,0,0,prototype2.png,no,mono,no,18,no,black,no,no,768,1159,3.5.6,legacy,xpyriment,osweb,1.3.13,0,right,space,right,,37691,35148,37691,,2,legacy,824,1536,24,864,24,0,0,1536,1646062835474,1024,2,48000,-16,experiment,prototype5.png,1,odd,Win32,84,146577,143573,84,84,575102,576610,570103,148083,570103,84,,,,,,visual_patterns,0,0,0,yes,1366
undefined,undefined,undefined,undefined,white,no,Mozilla,Netscape,"5.0 (Windows NT 10.0; Win64; x64) AppleWebKit/537.36 (KHTML, like Gecko) Chrome/98.0.4758.102 Safari/537.36",xpyriment,legacy,legacy,0,uniform,0,0,0,0,24,24,24,0,0,60,60,60,60,60,0,60,0,,,,,,0,,28-01-22,28-01-22,16:40:36,Mon Feb 28 2022 16:40:36 GMT+0100 (közép-európai téli idő),The main experiment item,yes,0,0,C:/Users/rrics/Documents/!!ResearchBMECOGSCI/gnet,0,0,0,prototype2.png,no,mono,no,18,no,black,no,no,768,1159,3.5.6,legacy,xpyriment,osweb,1.3.13,0,right,space,right,,37691,35148,37691,,2,legacy,824,1536,24,864,24,0,0,1536,1646062835474,1024,2,48000,-16,experiment,p1sarrshacol2.png,1,odd,Win32,84,146577,143573,84,84,581623,583129,576619,148083,576619,84,,,,,,visual_patterns,0,0,0,yes,1366
undefined,undefined,undefined,undefined,white,no,Mozilla,Netscape,"5.0 (Windows NT 10.0; Win64; x64) AppleWebKit/537.36 (KHTML, like Gecko) Chrome/98.0.4758.102 Safari/537.36",xpyriment,legacy,legacy,0,uniform,0,0,0,0,24,24,24,0,0,61,61,61,61,61,0,61,0,,,,,,0,,28-01-22,28-01-22,16:40:36,Mon Feb 28 2022 16:40:36 GMT+0100 (közép-európai téli idő),The main experiment item,yes,0,0,C:/Users/rrics/Documents/!!ResearchBMECOGSCI/gnet,0,0,0,prototype2.png,no,mono,no,18,no,black,no,no,768,1159,3.5.6,legacy,xpyriment,osweb,1.3.13,0,right,space,right,,37691,35148,37691,,2,legacy,824,1536,24,864,24,0,0,1536,1646062835474,1024,2,48000,-16,experiment,p2sarrcol1.png,1,odd,Win32,84,146577,143573,84,84,588139,589640,583143,148083,583143,84,,,,,,visual_patterns,0,0,0,yes,1366
undefined,undefined,undefined,undefined,white,no,Mozilla,Netscape,"5.0 (Windows NT 10.0; Win64; x64) AppleWebKit/537.36 (KHTML, like Gecko) Chrome/98.0.4758.102 Safari/537.36",xpyriment,legacy,legacy,0,uniform,0,0,0,0,24,24,24,0,0,62,62,62,62,62,0,62,0,,,,,,0,,28-01-22,28-01-22,16:40:36,Mon Feb 28 2022 16:40:36 GMT+0100 (közép-európai téli idő),The main experiment item,yes,0,0,C:/Users/rrics/Documents/!!ResearchBMECOGSCI/gnet,0,0,0,prototype2.png,no,mono,no,18,no,black,no,no,768,1159,3.5.6,legacy,xpyriment,osweb,1.3.13,0,right,space,right,,37691,35148,37691,,2,legacy,824,1536,24,864,24,0,0,1536,1646062835474,1024,2,48000,-16,experiment,p5sarr2.png,1,odd,Win32,84,146577,143573,84,84,594649,596150,589647,148083,589647,84,,,,,,visual_patterns,0,0,0,yes,1366
undefined,undefined,undefined,undefined,white,no,Mozilla,Netscape,"5.0 (Windows NT 10.0; Win64; x64) AppleWebKit/537.36 (KHTML, like Gecko) Chrome/98.0.4758.102 Safari/537.36",xpyriment,legacy,legacy,0,uniform,0,0,0,0,24,24,24,0,0,63,63,63,63,63,0,63,0,,,,,,0,,28-01-22,28-01-22,16:40:36,Mon Feb 28 2022 16:40:36 GMT+0100 (közép-európai téli idő),The main experiment item,yes,0,0,C:/Users/rrics/Documents/!!ResearchBMECOGSCI/gnet,0,0,0,prototype2.png,no,mono,no,18,no,black,no,no,768,1159,3.5.6,legacy,xpyriment,osweb,1.3.13,0,right,space,right,,37691,35148,37691,,2,legacy,824,1536,24,864,24,0,0,1536,1646062835474,1024,2,48000,-16,experiment,p10sarr2.png,1,odd,Win32,84,146577,143573,84,84,601160,602661,596159,148083,596159,84,,,,,,visual_patterns,0,0,0,yes,1366
undefined,undefined,undefined,undefined,white,no,Mozilla,Netscape,"5.0 (Windows NT 10.0; Win64; x64) AppleWebKit/537.36 (KHTML, like Gecko) Chrome/98.0.4758.102 Safari/537.36",xpyriment,legacy,legacy,0,uniform,0,0,0,0,24,24,24,0,0,64,64,64,64,64,0,64,0,,,,,,0,,28-01-22,28-01-22,16:40:36,Mon Feb 28 2022 16:40:36 GMT+0100 (közép-európai téli idő),The main experiment item,yes,0,0,C:/Users/rrics/Documents/!!ResearchBMECOGSCI/gnet,0,0,0,prototype2.png,no,mono,no,18,no,black,no,no,768,1159,3.5.6,legacy,xpyriment,osweb,1.3.13,0,right,space,right,,37691,35148,37691,,2,legacy,824,1536,24,864,24,0,0,1536,1646062835474,1024,2,48000,-16,experiment,prototype1.png,1,odd,Win32,84,146577,143573,84,84,607672,609180,602672,148083,602672,84,,,,,,visual_patterns,0,0,0,yes,1366
undefined,undefined,undefined,undefined,white,no,Mozilla,Netscape,"5.0 (Windows NT 10.0; Win64; x64) AppleWebKit/537.36 (KHTML, like Gecko) Chrome/98.0.4758.102 Safari/537.36",xpyriment,legacy,legacy,0,uniform,0,0,0,0,24,24,24,0,0,65,65,65,65,65,0,65,0,,,,,,0,,28-01-22,28-01-22,16:40:36,Mon Feb 28 2022 16:40:36 GMT+0100 (közép-európai téli idő),The main experiment item,yes,0,0,C:/Users/rrics/Documents/!!ResearchBMECOGSCI/gnet,0,0,0,prototype2.png,no,mono,no,18,no,black,no,no,768,1159,3.5.6,legacy,xpyriment,osweb,1.3.13,0,right,space,right,,37691,35148,37691,,2,legacy,824,1536,24,864,24,0,0,1536,1646062835474,1024,2,48000,-16,experiment,prototype4.png,1,odd,Win32,84,146577,143573,84,84,614190,615699,609191,148083,609191,84,,,,,,visual_patterns,0,0,0,yes,1366
undefined,undefined,undefined,undefined,white,no,Mozilla,Netscape,"5.0 (Windows NT 10.0; Win64; x64) AppleWebKit/537.36 (KHTML, like Gecko) Chrome/98.0.4758.102 Safari/537.36",xpyriment,legacy,legacy,0,uniform,0,0,0,0,24,24,24,0,0,66,66,66,66,66,0,66,0,,,,,,0,,28-01-22,28-01-22,16:40:36,Mon Feb 28 2022 16:40:36 GMT+0100 (közép-európai téli idő),The main experiment item,yes,0,0,C:/Users/rrics/Documents/!!ResearchBMECOGSCI/gnet,0,0,0,prototype2.png,no,mono,no,18,no,black,no,no,768,1159,3.5.6,legacy,xpyriment,osweb,1.3.13,0,right,space,right,,37691,35148,37691,,2,legacy,824,1536,24,864,24,0,0,1536,1646062835474,1024,2,48000,-16,experiment,p2sarrshacol2.png,1,odd,Win32,84,146577,143573,84,84,620708,622217,615706,148083,615706,84,,,,,,visual_patterns,0,0,0,yes,1366
undefined,undefined,undefined,undefined,white,no,Mozilla,Netscape,"5.0 (Windows NT 10.0; Win64; x64) AppleWebKit/537.36 (KHTML, like Gecko) Chrome/98.0.4758.102 Safari/537.36",xpyriment,legacy,legacy,0,uniform,0,0,0,0,24,24,24,0,0,67,67,67,67,67,0,67,0,,,,,,0,,28-01-22,28-01-22,16:40:36,Mon Feb 28 2022 16:40:36 GMT+0100 (közép-európai téli idő),The main experiment item,yes,0,0,C:/Users/rrics/Documents/!!ResearchBMECOGSCI/gnet,0,0,0,prototype2.png,no,mono,no,18,no,black,no,no,768,1159,3.5.6,legacy,xpyriment,osweb,1.3.13,0,right,space,right,,37691,35148,37691,,2,legacy,824,1536,24,864,24,0,0,1536,1646062835474,1024,2,48000,-16,experiment,p1sarr2.png,1,odd,Win32,84,146577,143573,84,84,627232,628736,622228,148083,622228,84,,,,,,visual_patterns,0,0,0,yes,1366
undefined,undefined,undefined,undefined,white,no,Mozilla,Netscape,"5.0 (Windows NT 10.0; Win64; x64) AppleWebKit/537.36 (KHTML, like Gecko) Chrome/98.0.4758.102 Safari/537.36",xpyriment,legacy,legacy,0,uniform,0,0,0,0,24,24,24,0,0,68,68,68,68,68,0,68,0,,,,,,0,,28-01-22,28-01-22,16:40:36,Mon Feb 28 2022 16:40:36 GMT+0100 (közép-európai téli idő),The main experiment item,yes,0,0,C:/Users/rrics/Documents/!!ResearchBMECOGSCI/gnet,0,0,0,prototype2.png,no,mono,no,18,no,black,no,no,768,1159,3.5.6,legacy,xpyriment,osweb,1.3.13,0,right,space,right,,37691,35148,37691,,2,legacy,824,1536,24,864,24,0,0,1536,1646062835474,1024,2,48000,-16,experiment,p6sarr2.png,1,odd,Win32,84,146577,143573,84,84,633746,635255,628744,148083,628744,84,,,,,,visual_patterns,0,0,0,yes,1366
undefined,undefined,undefined,undefined,white,no,Mozilla,Netscape,"5.0 (Windows NT 10.0; Win64; x64) AppleWebKit/537.36 (KHTML, like Gecko) Chrome/98.0.4758.102 Safari/537.36",xpyriment,legacy,legacy,0,uniform,0,0,0,0,24,24,24,0,0,69,69,69,69,69,0,69,0,,,,,,0,,28-01-22,28-01-22,16:40:36,Mon Feb 28 2022 16:40:36 GMT+0100 (közép-európai téli idő),The main experiment item,yes,0,0,C:/Users/rrics/Documents/!!ResearchBMECOGSCI/gnet,0,0,0,prototype2.png,no,mono,no,18,no,black,no,no,768,1159,3.5.6,legacy,xpyriment,osweb,1.3.13,0,right,space,right,,37691,35148,37691,,2,legacy,824,1536,24,864,24,0,0,1536,1646062835474,1024,2,48000,-16,experiment,prototype2.png,1,odd,Win32,84,146577,143573,84,84,640266,641774,635265,148083,635265,84,,,,,,visual_patterns,0,0,0,yes,1366
undefined,undefined,undefined,undefined,white,no,Mozilla,Netscape,"5.0 (Windows NT 10.0; Win64; x64) AppleWebKit/537.36 (KHTML, like Gecko) Chrome/98.0.4758.102 Safari/537.36",xpyriment,legacy,legacy,0,uniform,0,0,0,0,24,24,24,0,0,70,70,70,70,70,0,70,0,,,,,,0,,28-01-22,28-01-22,16:40:36,Mon Feb 28 2022 16:40:36 GMT+0100 (közép-európai téli idő),The main experiment item,yes,0,0,C:/Users/rrics/Documents/!!ResearchBMECOGSCI/gnet,0,0,0,prototype2.png,no,mono,no,18,no,black,no,no,768,1159,3.5.6,legacy,xpyriment,osweb,1.3.13,0,right,space,right,,37691,35148,37691,,2,legacy,824,1536,24,864,24,0,0,1536,1646062835474,1024,2,48000,-16,experiment,p1sarrshacol1.png,1,odd,Win32,84,146577,143573,84,84,646780,648284,641782,148083,641782,84,,,,,,visual_patterns,0,0,0,yes,1366
undefined,undefined,undefined,undefined,white,no,Mozilla,Netscape,"5.0 (Windows NT 10.0; Win64; x64) AppleWebKit/537.36 (KHTML, like Gecko) Chrome/98.0.4758.102 Safari/537.36",xpyriment,legacy,legacy,0,uniform,0,0,0,0,24,24,24,0,0,71,71,71,71,71,0,71,0,,,,,,0,,28-01-22,28-01-22,16:40:36,Mon Feb 28 2022 16:40:36 GMT+0100 (közép-európai téli idő),The main experiment item,yes,0,0,C:/Users/rrics/Documents/!!ResearchBMECOGSCI/gnet,0,0,0,prototype2.png,no,mono,no,18,no,black,no,no,768,1159,3.5.6,legacy,xpyriment,osweb,1.3.13,0,right,space,right,,37691,35148,37691,,2,legacy,824,1536,24,864,24,0,0,1536,1646062835474,1024,2,48000,-16,experiment,prototype1.png,1,odd,Win32,84,146577,143573,84,84,653296,654803,648292,148083,648292,84,,,,,,visual_patterns,0,0,0,yes,1366
undefined,undefined,undefined,undefined,white,no,Mozilla,Netscape,"5.0 (Windows NT 10.0; Win64; x64) AppleWebKit/537.36 (KHTML, like Gecko) Chrome/98.0.4758.102 Safari/537.36",xpyriment,legacy,legacy,0,uniform,0,0,0,0,24,24,24,0,0,72,72,72,72,72,0,72,0,,,,,,0,,28-01-22,28-01-22,16:40:36,Mon Feb 28 2022 16:40:36 GMT+0100 (közép-európai téli idő),The main experiment item,yes,0,0,C:/Users/rrics/Documents/!!ResearchBMECOGSCI/gnet,0,0,0,prototype2.png,no,mono,no,18,no,black,no,no,768,1159,3.5.6,legacy,xpyriment,osweb,1.3.13,0,right,space,right,,37691,35148,37691,,2,legacy,824,1536,24,864,24,0,0,1536,1646062835474,1024,2,48000,-16,experiment,prototype5.png,1,odd,Win32,84,146577,143573,84,84,659815,661322,654812,148083,654812,84,,,,,,visual_patterns,0,0,0,yes,1366
undefined,undefined,undefined,undefined,white,no,Mozilla,Netscape,"5.0 (Windows NT 10.0; Win64; x64) AppleWebKit/537.36 (KHTML, like Gecko) Chrome/98.0.4758.102 Safari/537.36",xpyriment,legacy,legacy,0,uniform,0,0,0,0,24,24,24,0,0,73,73,73,73,73,0,73,0,,,,,,0,,28-01-22,28-01-22,16:40:36,Mon Feb 28 2022 16:40:36 GMT+0100 (közép-európai téli idő),The main experiment item,yes,0,0,C:/Users/rrics/Documents/!!ResearchBMECOGSCI/gnet,0,0,0,prototype2.png,no,mono,no,18,no,black,no,no,768,1159,3.5.6,legacy,xpyriment,osweb,1.3.13,0,right,space,right,,37691,35148,37691,,2,legacy,824,1536,24,864,24,0,0,1536,1646062835474,1024,2,48000,-16,experiment,prototype3.png,1,odd,Win32,84,146577,143573,84,84,666333,667840,661329,148083,661329,84,,,,,,visual_patterns,0,0,0,yes,1366
undefined,undefined,undefined,undefined,white,no,Mozilla,Netscape,"5.0 (Windows NT 10.0; Win64; x64) AppleWebKit/537.36 (KHTML, like Gecko) Chrome/98.0.4758.102 Safari/537.36",xpyriment,legacy,legacy,0,uniform,0,0,0,0,24,24,24,0,0,74,74,74,74,74,0,74,0,,,,,,0,,28-01-22,28-01-22,16:40:36,Mon Feb 28 2022 16:40:36 GMT+0100 (közép-európai téli idő),The main experiment item,yes,0,0,C:/Users/rrics/Documents/!!ResearchBMECOGSCI/gnet,0,0,0,prototype2.png,no,mono,no,18,no,black,no,no,768,1159,3.5.6,legacy,xpyriment,osweb,1.3.13,0,right,space,right,,37691,35148,37691,,2,legacy,824,1536,24,864,24,0,0,1536,1646062835474,1024,2,48000,-16,experiment,prototype2.png,1,odd,Win32,84,146577,143573,84,84,672843,674351,667844,148083,667844,84,,,,,,visual_patterns,0,0,0,yes,1366
undefined,undefined,undefined,undefined,white,no,Mozilla,Netscape,"5.0 (Windows NT 10.0; Win64; x64) AppleWebKit/537.36 (KHTML, like Gecko) Chrome/98.0.4758.102 Safari/537.36",xpyriment,legacy,legacy,0,uniform,0,0,0,0,24,24,24,0,0,74,74,74,74,74,0,74,0,0,0,0,0,0,0,0,28-01-22,28-01-22,16:40:36,Mon Feb 28 2022 16:40:36 GMT+0100 (közép-európai téli idő),The main experiment item,yes,0,0,C:/Users/rrics/Documents/!!ResearchBMECOGSCI/gnet,0,0,0,prototype2.png,no,mono,no,18,no,black,no,no,768,1159,3.5.6,legacy,xpyriment,osweb,1.3.13,0,,space,right,,37046,35148,37691,37046,2,legacy,824,1536,24,864,24,0,0,1536,1646062835474,1024,2,48000,-16,experiment,p5sarrsha3.png,1,odd,Win32,84,146577,143573,84,84,672843,674351,667844,148083,667844,84,714440,715945,711439,674356,711439,visual_patterns,0,0,0,yes,1366
undefined,undefined,undefined,undefined,white,no,Mozilla,Netscape,"5.0 (Windows NT 10.0; Win64; x64) AppleWebKit/537.36 (KHTML, like Gecko) Chrome/98.0.4758.102 Safari/537.36",xpyriment,legacy,legacy,0,uniform,0,0,0,0,24,24,24,0,0,74,74,74,74,74,0,74,0,1,1,1,1,1,0,1,28-01-22,28-01-22,16:40:36,Mon Feb 28 2022 16:40:36 GMT+0100 (közép-európai téli idő),The main experiment item,yes,0,0,C:/Users/rrics/Documents/!!ResearchBMECOGSCI/gnet,0,0,0,prototype2.png,no,mono,no,18,no,black,no,no,768,1159,3.5.6,legacy,xpyriment,osweb,1.3.13,0,,space,right,,37046,35148,37691,37046,2,legacy,824,1536,24,864,24,0,0,1536,1646062835474,1024,2,48000,-16,experiment,p2sarrshacol1.png,1,odd,Win32,84,146577,143573,84,84,672843,674351,667844,148083,667844,84,718959,720466,715959,674356,715959,visual_patterns,0,0,0,yes,1366
undefined,undefined,undefined,undefined,white,no,Mozilla,Netscape,"5.0 (Windows NT 10.0; Win64; x64) AppleWebKit/537.36 (KHTML, like Gecko) Chrome/98.0.4758.102 Safari/537.36",xpyriment,legacy,legacy,0,uniform,0,0,0,0,24,24,24,0,0,74,74,74,74,74,0,74,0,2,2,2,2,2,0,2,28-01-22,28-01-22,16:40:36,Mon Feb 28 2022 16:40:36 GMT+0100 (közép-európai téli idő),The main experiment item,yes,0,0,C:/Users/rrics/Documents/!!ResearchBMECOGSCI/gnet,0,0,0,prototype2.png,no,mono,no,18,no,black,no,no,768,1159,3.5.6,legacy,xpyriment,osweb,1.3.13,0,,space,right,,37046,35148,37691,37046,2,legacy,824,1536,24,864,24,0,0,1536,1646062835474,1024,2,48000,-16,experiment,p4sarr4.png,1,odd,Win32,84,146577,143573,84,84,672843,674351,667844,148083,667844,84,723479,724987,720482,674356,720482,visual_patterns,0,0,0,yes,1366
undefined,undefined,undefined,undefined,white,no,Mozilla,Netscape,"5.0 (Windows NT 10.0; Win64; x64) AppleWebKit/537.36 (KHTML, like Gecko) Chrome/98.0.4758.102 Safari/537.36",xpyriment,legacy,legacy,0,uniform,0,0,0,0,24,24,24,0,0,74,74,74,74,74,0,74,0,3,3,3,3,3,0,3,28-01-22,28-01-22,16:40:36,Mon Feb 28 2022 16:40:36 GMT+0100 (közép-európai téli idő),The main experiment item,yes,0,0,C:/Users/rrics/Documents/!!ResearchBMECOGSCI/gnet,0,0,0,prototype2.png,no,mono,no,18,no,black,no,no,768,1159,3.5.6,legacy,xpyriment,osweb,1.3.13,0,,space,right,,37046,35148,37691,37046,2,legacy,824,1536,24,864,24,0,0,1536,1646062835474,1024,2,48000,-16,experiment,p5sarrsha2.png,1,odd,Win32,84,146577,143573,84,84,672843,674351,667844,148083,667844,84,728005,729508,725000,674356,725000,visual_patterns,0,0,0,yes,1366
undefined,undefined,undefined,undefined,white,no,Mozilla,Netscape,"5.0 (Windows NT 10.0; Win64; x64) AppleWebKit/537.36 (KHTML, like Gecko) Chrome/98.0.4758.102 Safari/537.36",xpyriment,legacy,legacy,0,uniform,0,0,0,0,24,24,24,0,0,74,74,74,74,74,0,74,0,4,4,4,4,4,0,4,28-01-22,28-01-22,16:40:36,Mon Feb 28 2022 16:40:36 GMT+0100 (közép-európai téli idő),The main experiment item,yes,0,0,C:/Users/rrics/Documents/!!ResearchBMECOGSCI/gnet,0,0,0,prototype2.png,no,mono,no,18,no,black,no,no,768,1159,3.5.6,legacy,xpyriment,osweb,1.3.13,0,,space,right,,37046,35148,37691,37046,2,legacy,824,1536,24,864,24,0,0,1536,1646062835474,1024,2,48000,-16,experiment,p7sarr2.png,1,odd,Win32,84,146577,143573,84,84,672843,674351,667844,148083,667844,84,732516,734020,729515,674356,729515,visual_patterns,0,0,0,yes,1366
undefined,undefined,undefined,undefined,white,no,Mozilla,Netscape,"5.0 (Windows NT 10.0; Win64; x64) AppleWebKit/537.36 (KHTML, like Gecko) Chrome/98.0.4758.102 Safari/537.36",xpyriment,legacy,legacy,0,uniform,0,0,0,0,24,24,24,0,0,74,74,74,74,74,0,74,0,5,5,5,5,5,0,5,28-01-22,28-01-22,16:40:36,Mon Feb 28 2022 16:40:36 GMT+0100 (közép-európai téli idő),The main experiment item,yes,0,0,C:/Users/rrics/Documents/!!ResearchBMECOGSCI/gnet,0,0,0,prototype2.png,no,mono,no,18,no,black,no,no,768,1159,3.5.6,legacy,xpyriment,osweb,1.3.13,0,,space,right,,37046,35148,37691,37046,2,legacy,824,1536,24,864,24,0,0,1536,1646062835474,1024,2,48000,-16,experiment,p1sarrsha4.png,1,odd,Win32,84,146577,143573,84,84,672843,674351,667844,148083,667844,84,737034,738540,734033,674356,734033,visual_patterns,0,0,0,yes,1366
undefined,undefined,undefined,undefined,white,no,Mozilla,Netscape,"5.0 (Windows NT 10.0; Win64; x64) AppleWebKit/537.36 (KHTML, like Gecko) Chrome/98.0.4758.102 Safari/537.36",xpyriment,legacy,legacy,0,uniform,0,0,0,0,24,24,24,0,0,74,74,74,74,74,0,74,0,6,6,6,6,6,0,6,28-01-22,28-01-22,16:40:36,Mon Feb 28 2022 16:40:36 GMT+0100 (közép-európai téli idő),The main experiment item,yes,0,0,C:/Users/rrics/Documents/!!ResearchBMECOGSCI/gnet,0,0,0,prototype2.png,no,mono,no,18,no,black,no,no,768,1159,3.5.6,legacy,xpyriment,osweb,1.3.13,0,,space,right,,37046,35148,37691,37046,2,legacy,824,1536,24,864,24,0,0,1536,1646062835474,1024,2,48000,-16,experiment,p3sarrcol2.png,1,odd,Win32,84,146577,143573,84,84,672843,674351,667844,148083,667844,84,741547,743053,738544,674356,738544,visual_patterns,0,0,0,yes,1366
undefined,undefined,undefined,undefined,white,no,Mozilla,Netscape,"5.0 (Windows NT 10.0; Win64; x64) AppleWebKit/537.36 (KHTML, like Gecko) Chrome/98.0.4758.102 Safari/537.36",xpyriment,legacy,legacy,0,uniform,0,0,0,0,24,24,24,0,0,74,74,74,74,74,0,74,0,7,7,7,7,7,0,7,28-01-22,28-01-22,16:40:36,Mon Feb 28 2022 16:40:36 GMT+0100 (közép-európai téli idő),The main experiment item,yes,0,0,C:/Users/rrics/Documents/!!ResearchBMECOGSCI/gnet,0,0,0,prototype2.png,no,mono,no,18,no,black,no,no,768,1159,3.5.6,legacy,xpyriment,osweb,1.3.13,0,,space,right,,37046,35148,37691,37046,2,legacy,824,1536,24,864,24,0,0,1536,1646062835474,1024,2,48000,-16,experiment,p3sarrcol3.png,1,odd,Win32,84,146577,143573,84,84,672843,674351,667844,148083,667844,84,746069,747574,743068,674356,743068,visual_patterns,0,0,0,yes,1366
undefined,undefined,undefined,undefined,white,no,Mozilla,Netscape,"5.0 (Windows NT 10.0; Win64; x64) AppleWebKit/537.36 (KHTML, like Gecko) Chrome/98.0.4758.102 Safari/537.36",xpyriment,legacy,legacy,0,uniform,0,0,0,0,24,24,24,0,0,74,74,74,74,74,0,74,0,8,8,8,8,8,0,8,28-01-22,28-01-22,16:40:36,Mon Feb 28 2022 16:40:36 GMT+0100 (közép-európai téli idő),The main experiment item,yes,0,0,C:/Users/rrics/Documents/!!ResearchBMECOGSCI/gnet,0,0,0,prototype2.png,no,mono,no,18,no,black,no,no,768,1159,3.5.6,legacy,xpyriment,osweb,1.3.13,0,,space,right,,37046,35148,37691,37046,2,legacy,824,1536,24,864,24,0,0,1536,1646062835474,1024,2,48000,-16,experiment,p1sarrsha1.png,1,odd,Win32,84,146577,143573,84,84,672843,674351,667844,148083,667844,84,750583,752086,747582,674356,747582,visual_patterns,0,0,0,yes,1366
undefined,undefined,undefined,undefined,white,no,Mozilla,Netscape,"5.0 (Windows NT 10.0; Win64; x64) AppleWebKit/537.36 (KHTML, like Gecko) Chrome/98.0.4758.102 Safari/537.36",xpyriment,legacy,legacy,0,uniform,0,0,0,0,24,24,24,0,0,74,74,74,74,74,0,74,0,9,9,9,9,9,0,9,28-01-22,28-01-22,16:40:36,Mon Feb 28 2022 16:40:36 GMT+0100 (közép-európai téli idő),The main experiment item,yes,0,0,C:/Users/rrics/Documents/!!ResearchBMECOGSCI/gnet,0,0,0,prototype2.png,no,mono,no,18,no,black,no,no,768,1159,3.5.6,legacy,xpyriment,osweb,1.3.13,0,,space,right,,37046,35148,37691,37046,2,legacy,824,1536,24,864,24,0,0,1536,1646062835474,1024,2,48000,-16,experiment,p4sarr1.png,1,odd,Win32,84,146577,143573,84,84,672843,674351,667844,148083,667844,84,755097,756598,752094,674356,752094,visual_patterns,0,0,0,yes,1366
undefined,undefined,undefined,undefined,white,no,Mozilla,Netscape,"5.0 (Windows NT 10.0; Win64; x64) AppleWebKit/537.36 (KHTML, like Gecko) Chrome/98.0.4758.102 Safari/537.36",xpyriment,legacy,legacy,0,uniform,0,0,0,0,24,24,24,0,0,74,74,74,74,74,0,74,0,10,10,10,10,10,0,10,28-01-22,28-01-22,16:40:36,Mon Feb 28 2022 16:40:36 GMT+0100 (közép-európai téli idő),The main experiment item,yes,0,0,C:/Users/rrics/Documents/!!ResearchBMECOGSCI/gnet,0,0,0,prototype2.png,no,mono,no,18,no,black,no,no,768,1159,3.5.6,legacy,xpyriment,osweb,1.3.13,0,,space,right,,37046,35148,37691,37046,2,legacy,824,1536,24,864,24,0,0,1536,1646062835474,1024,2,48000,-16,experiment,p9sarr2.png,1,odd,Win32,84,146577,143573,84,84,672843,674351,667844,148083,667844,84,759609,761110,756606,674356,756606,visual_patterns,0,0,0,yes,1366
undefined,undefined,undefined,undefined,white,no,Mozilla,Netscape,"5.0 (Windows NT 10.0; Win64; x64) AppleWebKit/537.36 (KHTML, like Gecko) Chrome/98.0.4758.102 Safari/537.36",xpyriment,legacy,legacy,0,uniform,0,0,0,0,24,24,24,0,0,74,74,74,74,74,0,74,0,11,11,11,11,11,0,11,28-01-22,28-01-22,16:40:36,Mon Feb 28 2022 16:40:36 GMT+0100 (közép-európai téli idő),The main experiment item,yes,0,0,C:/Users/rrics/Documents/!!ResearchBMECOGSCI/gnet,0,0,0,prototype2.png,no,mono,no,18,no,black,no,no,768,1159,3.5.6,legacy,xpyriment,osweb,1.3.13,0,,space,right,,37046,35148,37691,37046,2,legacy,824,1536,24,864,24,0,0,1536,1646062835474,1024,2,48000,-16,experiment,p1sarr2.png,1,odd,Win32,84,146577,143573,84,84,672843,674351,667844,148083,667844,84,764116,765623,761115,674356,761115,visual_patterns,0,0,0,yes,1366
undefined,undefined,undefined,undefined,white,no,Mozilla,Netscape,"5.0 (Windows NT 10.0; Win64; x64) AppleWebKit/537.36 (KHTML, like Gecko) Chrome/98.0.4758.102 Safari/537.36",xpyriment,legacy,legacy,0,uniform,0,0,0,0,24,24,24,0,0,74,74,74,74,74,0,74,0,12,12,12,12,12,0,12,28-01-22,28-01-22,16:40:36,Mon Feb 28 2022 16:40:36 GMT+0100 (közép-európai téli idő),The main experiment item,yes,0,0,C:/Users/rrics/Documents/!!ResearchBMECOGSCI/gnet,0,0,0,prototype2.png,no,mono,no,18,no,black,no,no,768,1159,3.5.6,legacy,xpyriment,osweb,1.3.13,0,,space,right,,37046,35148,37691,37046,2,legacy,824,1536,24,864,24,0,0,1536,1646062835474,1024,2,48000,-16,experiment,p3sarrcol4.png,1,odd,Win32,84,146577,143573,84,84,672843,674351,667844,148083,667844,84,768633,770135,765634,674356,765634,visual_patterns,0,0,0,yes,1366
undefined,undefined,undefined,undefined,white,no,Mozilla,Netscape,"5.0 (Windows NT 10.0; Win64; x64) AppleWebKit/537.36 (KHTML, like Gecko) Chrome/98.0.4758.102 Safari/537.36",xpyriment,legacy,legacy,0,uniform,0,0,0,0,24,24,24,0,0,74,74,74,74,74,0,74,0,13,13,13,13,13,0,13,28-01-22,28-01-22,16:40:36,Mon Feb 28 2022 16:40:36 GMT+0100 (közép-európai téli idő),The main experiment item,yes,0,0,C:/Users/rrics/Documents/!!ResearchBMECOGSCI/gnet,0,0,0,prototype2.png,no,mono,no,18,no,black,no,no,768,1159,3.5.6,legacy,xpyriment,osweb,1.3.13,0,,space,right,,37046,35148,37691,37046,2,legacy,824,1536,24,864,24,0,0,1536,1646062835474,1024,2,48000,-16,experiment,p2sarrshacol2.png,1,odd,Win32,84,146577,143573,84,84,672843,674351,667844,148083,667844,84,773144,774648,770139,674356,770139,visual_patterns,0,0,0,yes,1366
undefined,undefined,undefined,undefined,white,no,Mozilla,Netscape,"5.0 (Windows NT 10.0; Win64; x64) AppleWebKit/537.36 (KHTML, like Gecko) Chrome/98.0.4758.102 Safari/537.36",xpyriment,legacy,legacy,0,uniform,0,0,0,0,24,24,24,0,0,74,74,74,74,74,0,74,0,14,14,14,14,14,0,14,28-01-22,28-01-22,16:40:36,Mon Feb 28 2022 16:40:36 GMT+0100 (közép-európai téli idő),The main experiment item,yes,0,0,C:/Users/rrics/Documents/!!ResearchBMECOGSCI/gnet,0,0,0,prototype2.png,no,mono,no,18,no,black,no,no,768,1159,3.5.6,legacy,xpyriment,osweb,1.3.13,0,,space,right,,37046,35148,37691,37046,2,legacy,824,1536,24,864,24,0,0,1536,1646062835474,1024,2,48000,-16,experiment,p6sarr1.png,1,odd,Win32,84,146577,143573,84,84,672843,674351,667844,148083,667844,84,777652,779160,774651,674356,774651,visual_patterns,0,0,0,yes,1366
undefined,undefined,undefined,undefined,white,no,Mozilla,Netscape,"5.0 (Windows NT 10.0; Win64; x64) AppleWebKit/537.36 (KHTML, like Gecko) Chrome/98.0.4758.102 Safari/537.36",xpyriment,legacy,legacy,0,uniform,0,0,0,0,24,24,24,0,0,74,74,74,74,74,0,74,0,15,15,15,15,15,0,15,28-01-22,28-01-22,16:40:36,Mon Feb 28 2022 16:40:36 GMT+0100 (közép-európai téli idő),The main experiment item,yes,0,0,C:/Users/rrics/Documents/!!ResearchBMECOGSCI/gnet,0,0,0,prototype2.png,no,mono,no,18,no,black,no,no,768,1159,3.5.6,legacy,xpyriment,osweb,1.3.13,0,,space,right,,37046,35148,37691,37046,2,legacy,824,1536,24,864,24,0,0,1536,1646062835474,1024,2,48000,-16,experiment,p4sarrshacol3.png,1,odd,Win32,84,146577,143573,84,84,672843,674351,667844,148083,667844,84,782167,783673,779165,674356,779165,visual_patterns,0,0,0,yes,1366
undefined,undefined,undefined,undefined,white,no,Mozilla,Netscape,"5.0 (Windows NT 10.0; Win64; x64) AppleWebKit/537.36 (KHTML, like Gecko) Chrome/98.0.4758.102 Safari/537.36",xpyriment,legacy,legacy,0,uniform,0,0,0,0,24,24,24,0,0,74,74,74,74,74,0,74,0,16,16,16,16,16,0,16,28-01-22,28-01-22,16:40:36,Mon Feb 28 2022 16:40:36 GMT+0100 (közép-európai téli idő),The main experiment item,yes,0,0,C:/Users/rrics/Documents/!!ResearchBMECOGSCI/gnet,0,0,0,prototype2.png,no,mono,no,18,no,black,no,no,768,1159,3.5.6,legacy,xpyriment,osweb,1.3.13,0,,space,right,,37046,35148,37691,37046,2,legacy,824,1536,24,864,24,0,0,1536,1646062835474,1024,2,48000,-16,experiment,p4sarrshacol4.png,1,odd,Win32,84,146577,143573,84,84,672843,674351,667844,148083,667844,84,786686,788193,783681,674356,783681,visual_patterns,0,0,0,yes,1366
undefined,undefined,undefined,undefined,white,no,Mozilla,Netscape,"5.0 (Windows NT 10.0; Win64; x64) AppleWebKit/537.36 (KHTML, like Gecko) Chrome/98.0.4758.102 Safari/537.36",xpyriment,legacy,legacy,0,uniform,0,0,0,0,24,24,24,0,0,74,74,74,74,74,0,74,0,17,17,17,17,17,0,17,28-01-22,28-01-22,16:40:36,Mon Feb 28 2022 16:40:36 GMT+0100 (közép-európai téli idő),The main experiment item,yes,0,0,C:/Users/rrics/Documents/!!ResearchBMECOGSCI/gnet,0,0,0,prototype2.png,no,mono,no,18,no,black,no,no,768,1159,3.5.6,legacy,xpyriment,osweb,1.3.13,0,,space,right,,37046,35148,37691,37046,2,legacy,824,1536,24,864,24,0,0,1536,1646062835474,1024,2,48000,-16,experiment,p2sarrcol1.png,1,odd,Win32,84,146577,143573,84,84,672843,674351,667844,148083,667844,84,791207,792714,788207,674356,788207,visual_patterns,0,0,0,yes,1366
undefined,undefined,undefined,undefined,white,no,Mozilla,Netscape,"5.0 (Windows NT 10.0; Win64; x64) AppleWebKit/537.36 (KHTML, like Gecko) Chrome/98.0.4758.102 Safari/537.36",xpyriment,legacy,legacy,0,uniform,0,0,0,0,24,24,24,0,0,74,74,74,74,74,0,74,0,18,18,18,18,18,0,18,28-01-22,28-01-22,16:40:36,Mon Feb 28 2022 16:40:36 GMT+0100 (közép-európai téli idő),The main experiment item,yes,0,0,C:/Users/rrics/Documents/!!ResearchBMECOGSCI/gnet,0,0,0,prototype2.png,no,mono,no,18,no,black,no,no,768,1159,3.5.6,legacy,xpyriment,osweb,1.3.13,0,,space,right,,37046,35148,37691,37046,2,legacy,824,1536,24,864,24,0,0,1536,1646062835474,1024,2,48000,-16,experiment,p1sarr4.png,1,odd,Win32,84,146577,143573,84,84,672843,674351,667844,148083,667844,84,795727,797235,792723,674356,792723,visual_patterns,0,0,0,yes,1366
undefined,undefined,undefined,undefined,white,no,Mozilla,Netscape,"5.0 (Windows NT 10.0; Win64; x64) AppleWebKit/537.36 (KHTML, like Gecko) Chrome/98.0.4758.102 Safari/537.36",xpyriment,legacy,legacy,0,uniform,0,0,0,0,24,24,24,0,0,74,74,74,74,74,0,74,0,19,19,19,19,19,0,19,28-01-22,28-01-22,16:40:36,Mon Feb 28 2022 16:40:36 GMT+0100 (közép-európai téli idő),The main experiment item,yes,0,0,C:/Users/rrics/Documents/!!ResearchBMECOGSCI/gnet,0,0,0,prototype2.png,no,mono,no,18,no,black,no,no,768,1159,3.5.6,legacy,xpyriment,osweb,1.3.13,0,,space,right,,37046,35148,37691,37046,2,legacy,824,1536,24,864,24,0,0,1536,1646062835474,1024,2,48000,-16,experiment,p10sarr1.png,1,odd,Win32,84,146577,143573,84,84,672843,674351,667844,148083,667844,84,800240,801747,797239,674356,797239,visual_patterns,0,0,0,yes,1366
undefined,undefined,undefined,undefined,white,no,Mozilla,Netscape,"5.0 (Windows NT 10.0; Win64; x64) AppleWebKit/537.36 (KHTML, like Gecko) Chrome/98.0.4758.102 Safari/537.36",xpyriment,legacy,legacy,0,uniform,0,0,0,0,24,24,24,0,0,74,74,74,74,74,0,74,0,20,20,20,20,20,0,20,28-01-22,28-01-22,16:40:36,Mon Feb 28 2022 16:40:36 GMT+0100 (közép-európai téli idő),The main experiment item,yes,0,0,C:/Users/rrics/Documents/!!ResearchBMECOGSCI/gnet,0,0,0,prototype2.png,no,mono,no,18,no,black,no,no,768,1159,3.5.6,legacy,xpyriment,osweb,1.3.13,0,,space,right,,37046,35148,37691,37046,2,legacy,824,1536,24,864,24,0,0,1536,1646062835474,1024,2,48000,-16,experiment,p8sarr3.png,1,odd,Win32,84,146577,143573,84,84,672843,674351,667844,148083,667844,84,804758,806260,801756,674356,801756,visual_patterns,0,0,0,yes,1366
undefined,undefined,undefined,undefined,white,no,Mozilla,Netscape,"5.0 (Windows NT 10.0; Win64; x64) AppleWebKit/537.36 (KHTML, like Gecko) Chrome/98.0.4758.102 Safari/537.36",xpyriment,legacy,legacy,0,uniform,0,0,0,0,24,24,24,0,0,74,74,74,74,74,0,74,0,21,21,21,21,21,0,21,28-01-22,28-01-22,16:40:36,Mon Feb 28 2022 16:40:36 GMT+0100 (közép-európai téli idő),The main experiment item,yes,0,0,C:/Users/rrics/Documents/!!ResearchBMECOGSCI/gnet,0,0,0,prototype2.png,no,mono,no,18,no,black,no,no,768,1159,3.5.6,legacy,xpyriment,osweb,1.3.13,0,,space,right,,37046,35148,37691,37046,2,legacy,824,1536,24,864,24,0,0,1536,1646062835474,1024,2,48000,-16,experiment,p9sarr4.png,1,odd,Win32,84,146577,143573,84,84,672843,674351,667844,148083,667844,84,809269,810772,806271,674356,806271,visual_patterns,0,0,0,yes,1366
undefined,undefined,undefined,undefined,white,no,Mozilla,Netscape,"5.0 (Windows NT 10.0; Win64; x64) AppleWebKit/537.36 (KHTML, like Gecko) Chrome/98.0.4758.102 Safari/537.36",xpyriment,legacy,legacy,0,uniform,0,0,0,0,24,24,24,0,0,74,74,74,74,74,0,74,0,22,22,22,22,22,0,22,28-01-22,28-01-22,16:40:36,Mon Feb 28 2022 16:40:36 GMT+0100 (közép-európai téli idő),The main experiment item,yes,0,0,C:/Users/rrics/Documents/!!ResearchBMECOGSCI/gnet,0,0,0,prototype2.png,no,mono,no,18,no,black,no,no,768,1159,3.5.6,legacy,xpyriment,osweb,1.3.13,0,,space,right,,37046,35148,37691,37046,2,legacy,824,1536,24,864,24,0,0,1536,1646062835474,1024,2,48000,-16,experiment,p5sarrcol2.png,1,odd,Win32,84,146577,143573,84,84,672843,674351,667844,148083,667844,84,813793,815301,810789,674356,810789,visual_patterns,0,0,0,yes,1366
undefined,undefined,undefined,undefined,white,no,Mozilla,Netscape,"5.0 (Windows NT 10.0; Win64; x64) AppleWebKit/537.36 (KHTML, like Gecko) Chrome/98.0.4758.102 Safari/537.36",xpyriment,legacy,legacy,0,uniform,0,0,0,0,24,24,24,0,0,74,74,74,74,74,0,74,0,23,23,23,23,23,0,23,28-01-22,28-01-22,16:40:36,Mon Feb 28 2022 16:40:36 GMT+0100 (közép-európai téli idő),The main experiment item,yes,0,0,C:/Users/rrics/Documents/!!ResearchBMECOGSCI/gnet,0,0,0,prototype2.png,no,mono,no,18,no,black,no,no,768,1159,3.5.6,legacy,xpyriment,osweb,1.3.13,0,,space,right,,37046,35148,37691,37046,2,legacy,824,1536,24,864,24,0,0,1536,1646062835474,1024,2,48000,-16,experiment,p7sarr4.png,1,odd,Win32,84,146577,143573,84,84,672843,674351,667844,148083,667844,84,818310,819814,815309,674356,815309,visual_patterns,0,0,0,yes,1366
undefined,undefined,undefined,undefined,white,no,Mozilla,Netscape,"5.0 (Windows NT 10.0; Win64; x64) AppleWebKit/537.36 (KHTML, like Gecko) Chrome/98.0.4758.102 Safari/537.36",xpyriment,legacy,legacy,0,uniform,0,0,0,0,24,24,24,0,0,74,74,74,74,74,0,74,0,24,24,24,24,24,0,24,28-01-22,28-01-22,16:40:36,Mon Feb 28 2022 16:40:36 GMT+0100 (közép-európai téli idő),The main experiment item,yes,0,0,C:/Users/rrics/Documents/!!ResearchBMECOGSCI/gnet,0,0,0,prototype2.png,no,mono,no,18,no,black,no,no,768,1159,3.5.6,legacy,xpyriment,osweb,1.3.13,0,,space,right,,37046,35148,37691,37046,2,legacy,824,1536,24,864,24,0,0,1536,1646062835474,1024,2,48000,-16,experiment,p3sarrsha3.png,1,odd,Win32,84,146577,143573,84,84,672843,674351,667844,148083,667844,84,822824,824326,819822,674356,819822,visual_patterns,0,0,0,yes,1366
undefined,undefined,undefined,undefined,white,no,Mozilla,Netscape,"5.0 (Windows NT 10.0; Win64; x64) AppleWebKit/537.36 (KHTML, like Gecko) Chrome/98.0.4758.102 Safari/537.36",xpyriment,legacy,legacy,0,uniform,0,0,0,0,24,24,24,0,0,74,74,74,74,74,0,74,0,25,25,25,25,25,0,25,28-01-22,28-01-22,16:40:36,Mon Feb 28 2022 16:40:36 GMT+0100 (közép-európai téli idő),The main experiment item,yes,0,0,C:/Users/rrics/Documents/!!ResearchBMECOGSCI/gnet,0,0,0,prototype2.png,no,mono,no,18,no,black,no,no,768,1159,3.5.6,legacy,xpyriment,osweb,1.3.13,0,,space,right,,37046,35148,37691,37046,2,legacy,824,1536,24,864,24,0,0,1536,1646062835474,1024,2,48000,-16,experiment,p8sarr4.png,1,odd,Win32,84,146577,143573,84,84,672843,674351,667844,148083,667844,84,827336,828838,824334,674356,824334,visual_patterns,0,0,0,yes,1366
undefined,undefined,undefined,undefined,white,no,Mozilla,Netscape,"5.0 (Windows NT 10.0; Win64; x64) AppleWebKit/537.36 (KHTML, like Gecko) Chrome/98.0.4758.102 Safari/537.36",xpyriment,legacy,legacy,0,uniform,0,0,0,0,24,24,24,0,0,74,74,74,74,74,0,74,0,26,26,26,26,26,0,26,28-01-22,28-01-22,16:40:36,Mon Feb 28 2022 16:40:36 GMT+0100 (közép-európai téli idő),The main experiment item,yes,0,0,C:/Users/rrics/Documents/!!ResearchBMECOGSCI/gnet,0,0,0,prototype2.png,no,mono,no,18,no,black,no,no,768,1159,3.5.6,legacy,xpyriment,osweb,1.3.13,0,,space,right,,37046,35148,37691,37046,2,legacy,824,1536,24,864,24,0,0,1536,1646062835474,1024,2,48000,-16,experiment,p2sarrshacol4.png,1,odd,Win32,84,146577,143573,84,84,672843,674351,667844,148083,667844,84,831856,833358,828854,674356,828854,visual_patterns,0,0,0,yes,1366
undefined,undefined,undefined,undefined,white,no,Mozilla,Netscape,"5.0 (Windows NT 10.0; Win64; x64) AppleWebKit/537.36 (KHTML, like Gecko) Chrome/98.0.4758.102 Safari/537.36",xpyriment,legacy,legacy,0,uniform,0,0,0,0,24,24,24,0,0,74,74,74,74,74,0,74,0,27,27,27,27,27,0,27,28-01-22,28-01-22,16:40:36,Mon Feb 28 2022 16:40:36 GMT+0100 (közép-európai téli idő),The main experiment item,yes,0,0,C:/Users/rrics/Documents/!!ResearchBMECOGSCI/gnet,0,0,0,prototype2.png,no,mono,no,18,no,black,no,no,768,1159,3.5.6,legacy,xpyriment,osweb,1.3.13,0,,space,right,,37046,35148,37691,37046,2,legacy,824,1536,24,864,24,0,0,1536,1646062835474,1024,2,48000,-16,experiment,p4sarrshacol1.png,1,odd,Win32,84,146577,143573,84,84,672843,674351,667844,148083,667844,84,836372,837880,833370,674356,833370,visual_patterns,0,0,0,yes,1366
undefined,undefined,undefined,undefined,white,no,Mozilla,Netscape,"5.0 (Windows NT 10.0; Win64; x64) AppleWebKit/537.36 (KHTML, like Gecko) Chrome/98.0.4758.102 Safari/537.36",xpyriment,legacy,legacy,0,uniform,0,0,0,0,24,24,24,0,0,74,74,74,74,74,0,74,0,28,28,28,28,28,0,28,28-01-22,28-01-22,16:40:36,Mon Feb 28 2022 16:40:36 GMT+0100 (közép-európai téli idő),The main experiment item,yes,0,0,C:/Users/rrics/Documents/!!ResearchBMECOGSCI/gnet,0,0,0,prototype2.png,no,mono,no,18,no,black,no,no,768,1159,3.5.6,legacy,xpyriment,osweb,1.3.13,0,,space,right,,37046,35148,37691,37046,2,legacy,824,1536,24,864,24,0,0,1536,1646062835474,1024,2,48000,-16,experiment,p1sarrshacol3.png,1,odd,Win32,84,146577,143573,84,84,672843,674351,667844,148083,667844,84,840887,842392,837888,674356,837888,visual_patterns,0,0,0,yes,1366
undefined,undefined,undefined,undefined,white,no,Mozilla,Netscape,"5.0 (Windows NT 10.0; Win64; x64) AppleWebKit/537.36 (KHTML, like Gecko) Chrome/98.0.4758.102 Safari/537.36",xpyriment,legacy,legacy,0,uniform,0,0,0,0,24,24,24,0,0,74,74,74,74,74,0,74,0,29,29,29,29,29,0,29,28-01-22,28-01-22,16:40:36,Mon Feb 28 2022 16:40:36 GMT+0100 (közép-európai téli idő),The main experiment item,yes,0,0,C:/Users/rrics/Documents/!!ResearchBMECOGSCI/gnet,0,0,0,prototype2.png,no,mono,no,18,no,black,no,no,768,1159,3.5.6,legacy,xpyriment,osweb,1.3.13,0,,space,right,,37046,35148,37691,37046,2,legacy,824,1536,24,864,24,0,0,1536,1646062835474,1024,2,48000,-16,experiment,p2sarrsha1.png,1,odd,Win32,84,146577,143573,84,84,672843,674351,667844,148083,667844,84,845406,846913,842405,674356,842405,visual_patterns,0,0,0,yes,1366
undefined,undefined,undefined,undefined,white,no,Mozilla,Netscape,"5.0 (Windows NT 10.0; Win64; x64) AppleWebKit/537.36 (KHTML, like Gecko) Chrome/98.0.4758.102 Safari/537.36",xpyriment,legacy,legacy,0,uniform,0,0,0,0,24,24,24,0,0,74,74,74,74,74,0,74,0,30,30,30,30,30,0,30,28-01-22,28-01-22,16:40:36,Mon Feb 28 2022 16:40:36 GMT+0100 (közép-európai téli idő),The main experiment item,yes,0,0,C:/Users/rrics/Documents/!!ResearchBMECOGSCI/gnet,0,0,0,prototype2.png,no,mono,no,18,no,black,no,no,768,1159,3.5.6,legacy,xpyriment,osweb,1.3.13,0,,space,right,,37046,35148,37691,37046,2,legacy,824,1536,24,864,24,0,0,1536,1646062835474,1024,2,48000,-16,experiment,p3sarr2.png,1,odd,Win32,84,146577,143573,84,84,672843,674351,667844,148083,667844,84,849927,851434,846923,674356,846923,visual_patterns,0,0,0,yes,1366
undefined,undefined,undefined,undefined,white,no,Mozilla,Netscape,"5.0 (Windows NT 10.0; Win64; x64) AppleWebKit/537.36 (KHTML, like Gecko) Chrome/98.0.4758.102 Safari/537.36",xpyriment,legacy,legacy,0,uniform,0,0,0,0,24,24,24,0,0,74,74,74,74,74,0,74,0,31,31,31,31,31,0,31,28-01-22,28-01-22,16:40:36,Mon Feb 28 2022 16:40:36 GMT+0100 (közép-európai téli idő),The main experiment item,yes,0,0,C:/Users/rrics/Documents/!!ResearchBMECOGSCI/gnet,0,0,0,prototype2.png,no,mono,no,18,no,black,no,no,768,1159,3.5.6,legacy,xpyriment,osweb,1.3.13,0,,space,right,,37046,35148,37691,37046,2,legacy,824,1536,24,864,24,0,0,1536,1646062835474,1024,2,48000,-16,experiment,p3sarrshacol3.png,1,odd,Win32,84,146577,143573,84,84,672843,674351,667844,148083,667844,84,854444,855946,851442,674356,851442,visual_patterns,0,0,0,yes,1366
undefined,undefined,undefined,undefined,white,no,Mozilla,Netscape,"5.0 (Windows NT 10.0; Win64; x64) AppleWebKit/537.36 (KHTML, like Gecko) Chrome/98.0.4758.102 Safari/537.36",xpyriment,legacy,legacy,0,uniform,0,0,0,0,24,24,24,0,0,74,74,74,74,74,0,74,0,32,32,32,32,32,0,32,28-01-22,28-01-22,16:40:36,Mon Feb 28 2022 16:40:36 GMT+0100 (közép-európai téli idő),The main experiment item,yes,0,0,C:/Users/rrics/Documents/!!ResearchBMECOGSCI/gnet,0,0,0,prototype2.png,no,mono,no,18,no,black,no,no,768,1159,3.5.6,legacy,xpyriment,osweb,1.3.13,0,,space,right,,37046,35148,37691,37046,2,legacy,824,1536,24,864,24,0,0,1536,1646062835474,1024,2,48000,-16,experiment,p2sarrcol4.png,1,odd,Win32,84,146577,143573,84,84,672843,674351,667844,148083,667844,84,858961,860467,855962,674356,855962,visual_patterns,0,0,0,yes,1366
undefined,undefined,undefined,undefined,white,no,Mozilla,Netscape,"5.0 (Windows NT 10.0; Win64; x64) AppleWebKit/537.36 (KHTML, like Gecko) Chrome/98.0.4758.102 Safari/537.36",xpyriment,legacy,legacy,0,uniform,0,0,0,0,24,24,24,0,0,74,74,74,74,74,0,74,0,33,33,33,33,33,0,33,28-01-22,28-01-22,16:40:36,Mon Feb 28 2022 16:40:36 GMT+0100 (közép-európai téli idő),The main experiment item,yes,0,0,C:/Users/rrics/Documents/!!ResearchBMECOGSCI/gnet,0,0,0,prototype2.png,no,mono,no,18,no,black,no,no,768,1159,3.5.6,legacy,xpyriment,osweb,1.3.13,0,,space,right,,37046,35148,37691,37046,2,legacy,824,1536,24,864,24,0,0,1536,1646062835474,1024,2,48000,-16,experiment,p5sarrcol1.png,1,odd,Win32,84,146577,143573,84,84,672843,674351,667844,148083,667844,84,863478,864979,860475,674356,860475,visual_patterns,0,0,0,yes,1366
undefined,undefined,undefined,undefined,white,no,Mozilla,Netscape,"5.0 (Windows NT 10.0; Win64; x64) AppleWebKit/537.36 (KHTML, like Gecko) Chrome/98.0.4758.102 Safari/537.36",xpyriment,legacy,legacy,0,uniform,0,0,0,0,24,24,24,0,0,74,74,74,74,74,0,74,0,34,34,34,34,34,0,34,28-01-22,28-01-22,16:40:36,Mon Feb 28 2022 16:40:36 GMT+0100 (közép-európai téli idő),The main experiment item,yes,0,0,C:/Users/rrics/Documents/!!ResearchBMECOGSCI/gnet,0,0,0,prototype2.png,no,mono,no,18,no,black,no,no,768,1159,3.5.6,legacy,xpyriment,osweb,1.3.13,0,,space,right,,37046,35148,37691,37046,2,legacy,824,1536,24,864,24,0,0,1536,1646062835474,1024,2,48000,-16,experiment,p8sarr2.png,1,odd,Win32,84,146577,143573,84,84,672843,674351,667844,148083,667844,84,867990,869492,864986,674356,864986,visual_patterns,0,0,0,yes,1366
undefined,undefined,undefined,undefined,white,no,Mozilla,Netscape,"5.0 (Windows NT 10.0; Win64; x64) AppleWebKit/537.36 (KHTML, like Gecko) Chrome/98.0.4758.102 Safari/537.36",xpyriment,legacy,legacy,0,uniform,0,0,0,0,24,24,24,0,0,74,74,74,74,74,0,74,0,35,35,35,35,35,0,35,28-01-22,28-01-22,16:40:36,Mon Feb 28 2022 16:40:36 GMT+0100 (közép-európai téli idő),The main experiment item,yes,0,0,C:/Users/rrics/Documents/!!ResearchBMECOGSCI/gnet,0,0,0,prototype2.png,no,mono,no,18,no,black,no,no,768,1159,3.5.6,legacy,xpyriment,osweb,1.3.13,0,,space,right,,37046,35148,37691,37046,2,legacy,824,1536,24,864,24,0,0,1536,1646062835474,1024,2,48000,-16,experiment,p5sarr3.png,1,odd,Win32,84,146577,143573,84,84,672843,674351,667844,148083,667844,84,872507,874012,869509,674356,869509,visual_patterns,0,0,0,yes,1366
undefined,undefined,undefined,undefined,white,no,Mozilla,Netscape,"5.0 (Windows NT 10.0; Win64; x64) AppleWebKit/537.36 (KHTML, like Gecko) Chrome/98.0.4758.102 Safari/537.36",xpyriment,legacy,legacy,0,uniform,0,0,0,0,24,24,24,0,0,74,74,74,74,74,0,74,0,36,36,36,36,36,0,36,28-01-22,28-01-22,16:40:36,Mon Feb 28 2022 16:40:36 GMT+0100 (közép-európai téli idő),The main experiment item,yes,0,0,C:/Users/rrics/Documents/!!ResearchBMECOGSCI/gnet,0,0,0,prototype2.png,no,mono,no,18,no,black,no,no,768,1159,3.5.6,legacy,xpyriment,osweb,1.3.13,0,,space,right,,37046,35148,37691,37046,2,legacy,824,1536,24,864,24,0,0,1536,1646062835474,1024,2,48000,-16,experiment,p7sarr1.png,1,odd,Win32,84,146577,143573,84,84,672843,674351,667844,148083,667844,84,877023,878525,874020,674356,874020,visual_patterns,0,0,0,yes,1366
undefined,undefined,undefined,undefined,white,no,Mozilla,Netscape,"5.0 (Windows NT 10.0; Win64; x64) AppleWebKit/537.36 (KHTML, like Gecko) Chrome/98.0.4758.102 Safari/537.36",xpyriment,legacy,legacy,0,uniform,0,0,0,0,24,24,24,0,0,74,74,74,74,74,0,74,0,37,37,37,37,37,0,37,28-01-22,28-01-22,16:40:36,Mon Feb 28 2022 16:40:36 GMT+0100 (közép-európai téli idő),The main experiment item,yes,0,0,C:/Users/rrics/Documents/!!ResearchBMECOGSCI/gnet,0,0,0,prototype2.png,no,mono,no,18,no,black,no,no,768,1159,3.5.6,legacy,xpyriment,osweb,1.3.13,0,,space,right,,37046,35148,37691,37046,2,legacy,824,1536,24,864,24,0,0,1536,1646062835474,1024,2,48000,-16,experiment,p1sarrcol4.png,1,odd,Win32,84,146577,143573,84,84,672843,674351,667844,148083,667844,84,881546,883054,878546,674356,878546,visual_patterns,0,0,0,yes,1366
undefined,undefined,undefined,undefined,white,no,Mozilla,Netscape,"5.0 (Windows NT 10.0; Win64; x64) AppleWebKit/537.36 (KHTML, like Gecko) Chrome/98.0.4758.102 Safari/537.36",xpyriment,legacy,legacy,0,uniform,0,0,0,0,24,24,24,0,0,74,74,74,74,74,0,74,0,38,38,38,38,38,0,38,28-01-22,28-01-22,16:40:36,Mon Feb 28 2022 16:40:36 GMT+0100 (közép-európai téli idő),The main experiment item,yes,0,0,C:/Users/rrics/Documents/!!ResearchBMECOGSCI/gnet,0,0,0,prototype2.png,no,mono,no,18,no,black,no,no,768,1159,3.5.6,legacy,xpyriment,osweb,1.3.13,0,,space,right,,37046,35148,37691,37046,2,legacy,824,1536,24,864,24,0,0,1536,1646062835474,1024,2,48000,-16,experiment,p3sarrsha4.png,1,odd,Win32,84,146577,143573,84,84,672843,674351,667844,148083,667844,84,886068,887574,883070,674356,883070,visual_patterns,0,0,0,yes,1366
undefined,undefined,undefined,undefined,white,no,Mozilla,Netscape,"5.0 (Windows NT 10.0; Win64; x64) AppleWebKit/537.36 (KHTML, like Gecko) Chrome/98.0.4758.102 Safari/537.36",xpyriment,legacy,legacy,0,uniform,0,0,0,0,24,24,24,0,0,74,74,74,74,74,0,74,0,39,39,39,39,39,0,39,28-01-22,28-01-22,16:40:36,Mon Feb 28 2022 16:40:36 GMT+0100 (közép-európai téli idő),The main experiment item,yes,0,0,C:/Users/rrics/Documents/!!ResearchBMECOGSCI/gnet,0,0,0,prototype2.png,no,mono,no,18,no,black,no,no,768,1159,3.5.6,legacy,xpyriment,osweb,1.3.13,0,,space,right,,37046,35148,37691,37046,2,legacy,824,1536,24,864,24,0,0,1536,1646062835474,1024,2,48000,-16,experiment,p3sarr1.png,1,odd,Win32,84,146577,143573,84,84,672843,674351,667844,148083,667844,84,890582,892087,887582,674356,887582,visual_patterns,0,0,0,yes,1366
undefined,undefined,undefined,undefined,white,no,Mozilla,Netscape,"5.0 (Windows NT 10.0; Win64; x64) AppleWebKit/537.36 (KHTML, like Gecko) Chrome/98.0.4758.102 Safari/537.36",xpyriment,legacy,legacy,0,uniform,0,0,0,0,24,24,24,0,0,74,74,74,74,74,0,74,0,40,40,40,40,40,0,40,28-01-22,28-01-22,16:40:36,Mon Feb 28 2022 16:40:36 GMT+0100 (közép-európai téli idő),The main experiment item,yes,0,0,C:/Users/rrics/Documents/!!ResearchBMECOGSCI/gnet,0,0,0,prototype2.png,no,mono,no,18,no,black,no,no,768,1159,3.5.6,legacy,xpyriment,osweb,1.3.13,0,,space,right,,37046,35148,37691,37046,2,legacy,824,1536,24,864,24,0,0,1536,1646062835474,1024,2,48000,-16,experiment,p2sarrsha3.png,1,odd,Win32,84,146577,143573,84,84,672843,674351,667844,148083,667844,84,895098,896599,892096,674356,892096,visual_patterns,0,0,0,yes,1366
undefined,undefined,undefined,undefined,white,no,Mozilla,Netscape,"5.0 (Windows NT 10.0; Win64; x64) AppleWebKit/537.36 (KHTML, like Gecko) Chrome/98.0.4758.102 Safari/537.36",xpyriment,legacy,legacy,0,uniform,0,0,0,0,24,24,24,0,0,74,74,74,74,74,0,74,0,41,41,41,41,41,0,41,28-01-22,28-01-22,16:40:36,Mon Feb 28 2022 16:40:36 GMT+0100 (közép-európai téli idő),The main experiment item,yes,0,0,C:/Users/rrics/Documents/!!ResearchBMECOGSCI/gnet,0,0,0,prototype2.png,no,mono,no,18,no,black,no,no,768,1159,3.5.6,legacy,xpyriment,osweb,1.3.13,0,,space,right,,37046,35148,37691,37046,2,legacy,824,1536,24,864,24,0,0,1536,1646062835474,1024,2,48000,-16,experiment,p9sarr3.png,1,odd,Win32,84,146577,143573,84,84,672843,674351,667844,148083,667844,84,899609,901112,896607,674356,896607,visual_patterns,0,0,0,yes,1366
undefined,undefined,undefined,undefined,white,no,Mozilla,Netscape,"5.0 (Windows NT 10.0; Win64; x64) AppleWebKit/537.36 (KHTML, like Gecko) Chrome/98.0.4758.102 Safari/537.36",xpyriment,legacy,legacy,0,uniform,0,0,0,0,24,24,24,0,0,74,74,74,74,74,0,74,0,42,42,42,42,42,0,42,28-01-22,28-01-22,16:40:36,Mon Feb 28 2022 16:40:36 GMT+0100 (közép-európai téli idő),The main experiment item,yes,0,0,C:/Users/rrics/Documents/!!ResearchBMECOGSCI/gnet,0,0,0,prototype2.png,no,mono,no,18,no,black,no,no,768,1159,3.5.6,legacy,xpyriment,osweb,1.3.13,0,,space,right,,37046,35148,37691,37046,2,legacy,824,1536,24,864,24,0,0,1536,1646062835474,1024,2,48000,-16,experiment,p10sarr4.png,1,odd,Win32,84,146577,143573,84,84,672843,674351,667844,148083,667844,84,904131,905632,901127,674356,901127,visual_patterns,0,0,0,yes,1366
undefined,undefined,undefined,undefined,white,no,Mozilla,Netscape,"5.0 (Windows NT 10.0; Win64; x64) AppleWebKit/537.36 (KHTML, like Gecko) Chrome/98.0.4758.102 Safari/537.36",xpyriment,legacy,legacy,0,uniform,0,0,0,0,24,24,24,0,0,74,74,74,74,74,0,74,0,43,43,43,43,43,0,43,28-01-22,28-01-22,16:40:36,Mon Feb 28 2022 16:40:36 GMT+0100 (közép-európai téli idő),The main experiment item,yes,0,0,C:/Users/rrics/Documents/!!ResearchBMECOGSCI/gnet,0,0,0,prototype2.png,no,mono,no,18,no,black,no,no,768,1159,3.5.6,legacy,xpyriment,osweb,1.3.13,0,,space,right,,37046,35148,37691,37046,2,legacy,824,1536,24,864,24,0,0,1536,1646062835474,1024,2,48000,-16,experiment,p4sarrcol1.png,1,odd,Win32,84,146577,143573,84,84,672843,674351,667844,148083,667844,84,908637,910145,905637,674356,905637,visual_patterns,0,0,0,yes,1366
undefined,undefined,undefined,undefined,white,no,Mozilla,Netscape,"5.0 (Windows NT 10.0; Win64; x64) AppleWebKit/537.36 (KHTML, like Gecko) Chrome/98.0.4758.102 Safari/537.36",xpyriment,legacy,legacy,0,uniform,0,0,0,0,24,24,24,0,0,74,74,74,74,74,0,74,0,44,44,44,44,44,0,44,28-01-22,28-01-22,16:40:36,Mon Feb 28 2022 16:40:36 GMT+0100 (közép-európai téli idő),The main experiment item,yes,0,0,C:/Users/rrics/Documents/!!ResearchBMECOGSCI/gnet,0,0,0,prototype2.png,no,mono,no,18,no,black,no,no,768,1159,3.5.6,legacy,xpyriment,osweb,1.3.13,0,,space,right,,37046,35148,37691,37046,2,legacy,824,1536,24,864,24,0,0,1536,1646062835474,1024,2,48000,-16,experiment,p5sarrshacol4.png,1,odd,Win32,84,146577,143573,84,84,672843,674351,667844,148083,667844,84,913155,914657,910153,674356,910153,visual_patterns,0,0,0,yes,1366
undefined,undefined,undefined,undefined,white,no,Mozilla,Netscape,"5.0 (Windows NT 10.0; Win64; x64) AppleWebKit/537.36 (KHTML, like Gecko) Chrome/98.0.4758.102 Safari/537.36",xpyriment,legacy,legacy,0,uniform,0,0,0,0,24,24,24,0,0,74,74,74,74,74,0,74,0,45,45,45,45,45,0,45,28-01-22,28-01-22,16:40:36,Mon Feb 28 2022 16:40:36 GMT+0100 (közép-európai téli idő),The main experiment item,yes,0,0,C:/Users/rrics/Documents/!!ResearchBMECOGSCI/gnet,0,0,0,prototype2.png,no,mono,no,18,no,black,no,no,768,1159,3.5.6,legacy,xpyriment,osweb,1.3.13,0,,space,right,,37046,35148,37691,37046,2,legacy,824,1536,24,864,24,0,0,1536,1646062835474,1024,2,48000,-16,experiment,p3sarr3.png,1,odd,Win32,84,146577,143573,84,84,672843,674351,667844,148083,667844,84,917671,919178,914675,674356,914675,visual_patterns,0,0,0,yes,1366
undefined,undefined,undefined,undefined,white,no,Mozilla,Netscape,"5.0 (Windows NT 10.0; Win64; x64) AppleWebKit/537.36 (KHTML, like Gecko) Chrome/98.0.4758.102 Safari/537.36",xpyriment,legacy,legacy,0,uniform,0,0,0,0,24,24,24,0,0,74,74,74,74,74,0,74,0,46,46,46,46,46,0,46,28-01-22,28-01-22,16:40:36,Mon Feb 28 2022 16:40:36 GMT+0100 (közép-európai téli idő),The main experiment item,yes,0,0,C:/Users/rrics/Documents/!!ResearchBMECOGSCI/gnet,0,0,0,prototype2.png,no,mono,no,18,no,black,no,no,768,1159,3.5.6,legacy,xpyriment,osweb,1.3.13,0,,space,right,,37046,35148,37691,37046,2,legacy,824,1536,24,864,24,0,0,1536,1646062835474,1024,2,48000,-16,experiment,p2sarr3.png,1,odd,Win32,84,146577,143573,84,84,672843,674351,667844,148083,667844,84,922186,923690,919186,674356,919186,visual_patterns,0,0,0,yes,1366
undefined,undefined,undefined,undefined,white,no,Mozilla,Netscape,"5.0 (Windows NT 10.0; Win64; x64) AppleWebKit/537.36 (KHTML, like Gecko) Chrome/98.0.4758.102 Safari/537.36",xpyriment,legacy,legacy,0,uniform,0,0,0,0,24,24,24,0,0,74,74,74,74,74,0,74,0,47,47,47,47,47,0,47,28-01-22,28-01-22,16:40:36,Mon Feb 28 2022 16:40:36 GMT+0100 (közép-európai téli idő),The main experiment item,yes,0,0,C:/Users/rrics/Documents/!!ResearchBMECOGSCI/gnet,0,0,0,prototype2.png,no,mono,no,18,no,black,no,no,768,1159,3.5.6,legacy,xpyriment,osweb,1.3.13,0,,space,right,,37046,35148,37691,37046,2,legacy,824,1536,24,864,24,0,0,1536,1646062835474,1024,2,48000,-16,experiment,p4sarr2.png,1,odd,Win32,84,146577,143573,84,84,672843,674351,667844,148083,667844,84,926710,928211,923705,674356,923705,visual_patterns,0,0,0,yes,1366
undefined,undefined,undefined,undefined,white,no,Mozilla,Netscape,"5.0 (Windows NT 10.0; Win64; x64) AppleWebKit/537.36 (KHTML, like Gecko) Chrome/98.0.4758.102 Safari/537.36",xpyriment,legacy,legacy,0,uniform,0,0,0,0,24,24,24,0,0,74,74,74,74,74,0,74,0,48,48,48,48,48,0,48,28-01-22,28-01-22,16:40:36,Mon Feb 28 2022 16:40:36 GMT+0100 (közép-európai téli idő),The main experiment item,yes,0,0,C:/Users/rrics/Documents/!!ResearchBMECOGSCI/gnet,0,0,0,prototype2.png,no,mono,no,18,no,black,no,no,768,1159,3.5.6,legacy,xpyriment,osweb,1.3.13,0,,space,right,,37046,35148,37691,37046,2,legacy,824,1536,24,864,24,0,0,1536,1646062835474,1024,2,48000,-16,experiment,p2sarrshacol3.png,1,odd,Win32,84,146577,143573,84,84,672843,674351,667844,148083,667844,84,931215,932723,928216,674356,928216,visual_patterns,0,0,0,yes,1366
undefined,undefined,undefined,undefined,white,no,Mozilla,Netscape,"5.0 (Windows NT 10.0; Win64; x64) AppleWebKit/537.36 (KHTML, like Gecko) Chrome/98.0.4758.102 Safari/537.36",xpyriment,legacy,legacy,0,uniform,0,0,0,0,24,24,24,0,0,74,74,74,74,74,0,74,0,49,49,49,49,49,0,49,28-01-22,28-01-22,16:40:36,Mon Feb 28 2022 16:40:36 GMT+0100 (közép-európai téli idő),The main experiment item,yes,0,0,C:/Users/rrics/Documents/!!ResearchBMECOGSCI/gnet,0,0,0,prototype2.png,no,mono,no,18,no,black,no,no,768,1159,3.5.6,legacy,xpyriment,osweb,1.3.13,0,,space,right,,37046,35148,37691,37046,2,legacy,824,1536,24,864,24,0,0,1536,1646062835474,1024,2,48000,-16,experiment,p2sarrcol2.png,1,odd,Win32,84,146577,143573,84,84,672843,674351,667844,148083,667844,84,935732,937235,932730,674356,932730,visual_patterns,0,0,0,yes,1366
