acc,accuracy,average_response_time,avg_rt,background,bidi,browser_codename,browser_name,browser_version,canvas_backend,clock_backend,color_backend,compensation,coordinates,count_end,count_experiment,count_osweb,count_prestudy,count_prestudy_isi,count_prestudy_sequence,count_prestudy_stimpres,count_start,count_study,count_study_coroutines,count_study_isi,count_study_logger,count_study_response,count_study_sequence,count_study_start,count_study_stimpres,count_test,count_test_coroutines,count_test_isi,count_test_logger,count_test_response,count_test_sequence,count_test_start,count_test_stimpres,date_startdate,date_startdateUTC,date_starttime,datetime,description,disable_garbage_collection,experiment_debug,experiment_parameters,experiment_path,experiment_pilot,experiment_taskname,experiment_taskversion,fampict,font_bold,font_family,font_italic,font_size,font_underline,foreground,form_clicks,fullscreen,height,jatosStudyResultId,jatosVersion,keyboard_backend,mouse_backend,opensesame_codename,opensesame_version,repeat_cycle,response,response_start,response_study_start,response_test_start,response_time,response_time_start,response_time_study_start,response_time_test_start,round_decimals,sampler_backend,screen_availableHeight,screen_availableWidth,screen_colorDepth,screen_height,screen_pixelDepth,screen_screenX,screen_screenY,screen_width,sessionid,sound_buf_size,sound_channels,sound_freq,sound_sample_size,start,stim,subject_nr,subject_parity,system_os,time_prestudy,time_prestudy_isi,time_prestudy_stimpres,time_start,time_study,time_study_isi,time_study_logger,time_study_response,time_study_start,time_study_stimpres,time_test,time_test_isi,time_test_logger,time_test_response,time_test_start,time_test_stimpres,title,total_correct,total_response_time,total_responses,uniform_coordinates,width
undefined,undefined,undefined,undefined,white,no,Mozilla,Netscape,5.0 (Windows),xpyriment,legacy,legacy,0,uniform,0,0,0,0,24,24,24,0,0,0,0,0,0,0,0,0,0,,,,,,0,,01-02-22,01-02-22,10:57:57,Tue Mar 01 2022 10:57:57 GMT+0100 (közép-európai téli idő),The main experiment item,yes,0,0,C:/Users/rrics/Documents/!!ResearchBMECOGSCI/gnet,0,0,0,prototype2.png,no,mono,no,18,no,black,no,no,768,1161,3.5.6,legacy,xpyriment,osweb,1.3.13,0,space,space,space,,19178,25006,19178,,2,legacy,1040,1920,24,1080,24,-8,-8,1920,1646128727693,1024,2,48000,-16,experiment,p6sarr1.png,1,odd,Win32,66,136980,133976,66,66,162710,164217,157723,138501,157723,66,,,,,,visual_patterns,0,0,0,yes,1366
undefined,undefined,undefined,undefined,white,no,Mozilla,Netscape,5.0 (Windows),xpyriment,legacy,legacy,0,uniform,0,0,0,0,24,24,24,0,0,1,1,1,1,1,0,1,0,,,,,,0,,01-02-22,01-02-22,10:57:57,Tue Mar 01 2022 10:57:57 GMT+0100 (közép-európai téli idő),The main experiment item,yes,0,0,C:/Users/rrics/Documents/!!ResearchBMECOGSCI/gnet,0,0,0,prototype2.png,no,mono,no,18,no,black,no,no,768,1161,3.5.6,legacy,xpyriment,osweb,1.3.13,0,space,space,space,,19178,25006,19178,,2,legacy,1040,1920,24,1080,24,-8,-8,1920,1646128727693,1024,2,48000,-16,experiment,prototype3.png,1,odd,Win32,66,136980,133976,66,66,169234,170740,164257,138501,164257,66,,,,,,visual_patterns,0,0,0,yes,1366
undefined,undefined,undefined,undefined,white,no,Mozilla,Netscape,5.0 (Windows),xpyriment,legacy,legacy,0,uniform,0,0,0,0,24,24,24,0,0,2,2,2,2,2,0,2,0,,,,,,0,,01-02-22,01-02-22,10:57:57,Tue Mar 01 2022 10:57:57 GMT+0100 (közép-európai téli idő),The main experiment item,yes,0,0,C:/Users/rrics/Documents/!!ResearchBMECOGSCI/gnet,0,0,0,prototype2.png,no,mono,no,18,no,black,no,no,768,1161,3.5.6,legacy,xpyriment,osweb,1.3.13,0,space,space,space,,19178,25006,19178,,2,legacy,1040,1920,24,1080,24,-8,-8,1920,1646128727693,1024,2,48000,-16,experiment,p3sarr1.png,1,odd,Win32,66,136980,133976,66,66,175759,177263,170769,138501,170769,66,,,,,,visual_patterns,0,0,0,yes,1366
undefined,undefined,undefined,undefined,white,no,Mozilla,Netscape,5.0 (Windows),xpyriment,legacy,legacy,0,uniform,0,0,0,0,24,24,24,0,0,3,3,3,3,3,0,3,0,,,,,,0,,01-02-22,01-02-22,10:57:57,Tue Mar 01 2022 10:57:57 GMT+0100 (közép-európai téli idő),The main experiment item,yes,0,0,C:/Users/rrics/Documents/!!ResearchBMECOGSCI/gnet,0,0,0,prototype2.png,no,mono,no,18,no,black,no,no,768,1161,3.5.6,legacy,xpyriment,osweb,1.3.13,0,space,space,space,,19178,25006,19178,,2,legacy,1040,1920,24,1080,24,-8,-8,1920,1646128727693,1024,2,48000,-16,experiment,p9sarr2.png,1,odd,Win32,66,136980,133976,66,66,182290,183799,177297,138501,177297,66,,,,,,visual_patterns,0,0,0,yes,1366
undefined,undefined,undefined,undefined,white,no,Mozilla,Netscape,5.0 (Windows),xpyriment,legacy,legacy,0,uniform,0,0,0,0,24,24,24,0,0,4,4,4,4,4,0,4,0,,,,,,0,,01-02-22,01-02-22,10:57:57,Tue Mar 01 2022 10:57:57 GMT+0100 (közép-európai téli idő),The main experiment item,yes,0,0,C:/Users/rrics/Documents/!!ResearchBMECOGSCI/gnet,0,0,0,prototype2.png,no,mono,no,18,no,black,no,no,768,1161,3.5.6,legacy,xpyriment,osweb,1.3.13,0,space,space,space,,19178,25006,19178,,2,legacy,1040,1920,24,1080,24,-8,-8,1920,1646128727693,1024,2,48000,-16,experiment,p4sarr2.png,1,odd,Win32,66,136980,133976,66,66,188815,190321,183827,138501,183827,66,,,,,,visual_patterns,0,0,0,yes,1366
undefined,undefined,undefined,undefined,white,no,Mozilla,Netscape,5.0 (Windows),xpyriment,legacy,legacy,0,uniform,0,0,0,0,24,24,24,0,0,5,5,5,5,5,0,5,0,,,,,,0,,01-02-22,01-02-22,10:57:57,Tue Mar 01 2022 10:57:57 GMT+0100 (közép-európai téli idő),The main experiment item,yes,0,0,C:/Users/rrics/Documents/!!ResearchBMECOGSCI/gnet,0,0,0,prototype2.png,no,mono,no,18,no,black,no,no,768,1161,3.5.6,legacy,xpyriment,osweb,1.3.13,0,space,space,space,,19178,25006,19178,,2,legacy,1040,1920,24,1080,24,-8,-8,1920,1646128727693,1024,2,48000,-16,experiment,p4sarrshacol2.png,1,odd,Win32,66,136980,133976,66,66,195338,196845,190356,138501,190356,66,,,,,,visual_patterns,0,0,0,yes,1366
undefined,undefined,undefined,undefined,white,no,Mozilla,Netscape,5.0 (Windows),xpyriment,legacy,legacy,0,uniform,0,0,0,0,24,24,24,0,0,6,6,6,6,6,0,6,0,,,,,,0,,01-02-22,01-02-22,10:57:57,Tue Mar 01 2022 10:57:57 GMT+0100 (közép-európai téli idő),The main experiment item,yes,0,0,C:/Users/rrics/Documents/!!ResearchBMECOGSCI/gnet,0,0,0,prototype2.png,no,mono,no,18,no,black,no,no,768,1161,3.5.6,legacy,xpyriment,osweb,1.3.13,0,space,space,space,,19178,25006,19178,,2,legacy,1040,1920,24,1080,24,-8,-8,1920,1646128727693,1024,2,48000,-16,experiment,p5sarrsha2.png,1,odd,Win32,66,136980,133976,66,66,201874,203380,196892,138501,196892,66,,,,,,visual_patterns,0,0,0,yes,1366
undefined,undefined,undefined,undefined,white,no,Mozilla,Netscape,5.0 (Windows),xpyriment,legacy,legacy,0,uniform,0,0,0,0,24,24,24,0,0,7,7,7,7,7,0,7,0,,,,,,0,,01-02-22,01-02-22,10:57:57,Tue Mar 01 2022 10:57:57 GMT+0100 (közép-európai téli idő),The main experiment item,yes,0,0,C:/Users/rrics/Documents/!!ResearchBMECOGSCI/gnet,0,0,0,prototype2.png,no,mono,no,18,no,black,no,no,768,1161,3.5.6,legacy,xpyriment,osweb,1.3.13,0,space,space,space,,19178,25006,19178,,2,legacy,1040,1920,24,1080,24,-8,-8,1920,1646128727693,1024,2,48000,-16,experiment,p2sarr1.png,1,odd,Win32,66,136980,133976,66,66,208401,209903,203402,138501,203402,66,,,,,,visual_patterns,0,0,0,yes,1366
undefined,undefined,undefined,undefined,white,no,Mozilla,Netscape,5.0 (Windows),xpyriment,legacy,legacy,0,uniform,0,0,0,0,24,24,24,0,0,8,8,8,8,8,0,8,0,,,,,,0,,01-02-22,01-02-22,10:57:57,Tue Mar 01 2022 10:57:57 GMT+0100 (közép-európai téli idő),The main experiment item,yes,0,0,C:/Users/rrics/Documents/!!ResearchBMECOGSCI/gnet,0,0,0,prototype2.png,no,mono,no,18,no,black,no,no,768,1161,3.5.6,legacy,xpyriment,osweb,1.3.13,0,space,space,space,,19178,25006,19178,,2,legacy,1040,1920,24,1080,24,-8,-8,1920,1646128727693,1024,2,48000,-16,experiment,prototype4.png,1,odd,Win32,66,136980,133976,66,66,214919,216426,209928,138501,209928,66,,,,,,visual_patterns,0,0,0,yes,1366
undefined,undefined,undefined,undefined,white,no,Mozilla,Netscape,5.0 (Windows),xpyriment,legacy,legacy,0,uniform,0,0,0,0,24,24,24,0,0,9,9,9,9,9,0,9,0,,,,,,0,,01-02-22,01-02-22,10:57:57,Tue Mar 01 2022 10:57:57 GMT+0100 (közép-európai téli idő),The main experiment item,yes,0,0,C:/Users/rrics/Documents/!!ResearchBMECOGSCI/gnet,0,0,0,prototype2.png,no,mono,no,18,no,black,no,no,768,1161,3.5.6,legacy,xpyriment,osweb,1.3.13,0,space,space,space,,19178,25006,19178,,2,legacy,1040,1920,24,1080,24,-8,-8,1920,1646128727693,1024,2,48000,-16,experiment,p5sarrsha1.png,1,odd,Win32,66,136980,133976,66,66,221436,222949,216454,138501,216454,66,,,,,,visual_patterns,0,0,0,yes,1366
undefined,undefined,undefined,undefined,white,no,Mozilla,Netscape,5.0 (Windows),xpyriment,legacy,legacy,0,uniform,0,0,0,0,24,24,24,0,0,10,10,10,10,10,0,10,0,,,,,,0,,01-02-22,01-02-22,10:57:57,Tue Mar 01 2022 10:57:57 GMT+0100 (közép-európai téli idő),The main experiment item,yes,0,0,C:/Users/rrics/Documents/!!ResearchBMECOGSCI/gnet,0,0,0,prototype2.png,no,mono,no,18,no,black,no,no,768,1161,3.5.6,legacy,xpyriment,osweb,1.3.13,0,space,space,space,,19178,25006,19178,,2,legacy,1040,1920,24,1080,24,-8,-8,1920,1646128727693,1024,2,48000,-16,experiment,p5sarrcol1.png,1,odd,Win32,66,136980,133976,66,66,227961,229471,222977,138501,222977,66,,,,,,visual_patterns,0,0,0,yes,1366
undefined,undefined,undefined,undefined,white,no,Mozilla,Netscape,5.0 (Windows),xpyriment,legacy,legacy,0,uniform,0,0,0,0,24,24,24,0,0,11,11,11,11,11,0,11,0,,,,,,0,,01-02-22,01-02-22,10:57:57,Tue Mar 01 2022 10:57:57 GMT+0100 (közép-európai téli idő),The main experiment item,yes,0,0,C:/Users/rrics/Documents/!!ResearchBMECOGSCI/gnet,0,0,0,prototype2.png,no,mono,no,18,no,black,no,no,768,1161,3.5.6,legacy,xpyriment,osweb,1.3.13,0,space,space,space,,19178,25006,19178,,2,legacy,1040,1920,24,1080,24,-8,-8,1920,1646128727693,1024,2,48000,-16,experiment,p8sarr2.png,1,odd,Win32,66,136980,133976,66,66,234477,235981,229496,138501,229496,66,,,,,,visual_patterns,0,0,0,yes,1366
undefined,undefined,undefined,undefined,white,no,Mozilla,Netscape,5.0 (Windows),xpyriment,legacy,legacy,0,uniform,0,0,0,0,24,24,24,0,0,12,12,12,12,12,0,12,0,,,,,,0,,01-02-22,01-02-22,10:57:57,Tue Mar 01 2022 10:57:57 GMT+0100 (közép-európai téli idő),The main experiment item,yes,0,0,C:/Users/rrics/Documents/!!ResearchBMECOGSCI/gnet,0,0,0,prototype2.png,no,mono,no,18,no,black,no,no,768,1161,3.5.6,legacy,xpyriment,osweb,1.3.13,0,space,space,space,,19178,25006,19178,,2,legacy,1040,1920,24,1080,24,-8,-8,1920,1646128727693,1024,2,48000,-16,experiment,p5sarrshacol2.png,1,odd,Win32,66,136980,133976,66,66,241002,242503,236011,138501,236011,66,,,,,,visual_patterns,0,0,0,yes,1366
undefined,undefined,undefined,undefined,white,no,Mozilla,Netscape,5.0 (Windows),xpyriment,legacy,legacy,0,uniform,0,0,0,0,24,24,24,0,0,13,13,13,13,13,0,13,0,,,,,,0,,01-02-22,01-02-22,10:57:57,Tue Mar 01 2022 10:57:57 GMT+0100 (közép-európai téli idő),The main experiment item,yes,0,0,C:/Users/rrics/Documents/!!ResearchBMECOGSCI/gnet,0,0,0,prototype2.png,no,mono,no,18,no,black,no,no,768,1161,3.5.6,legacy,xpyriment,osweb,1.3.13,0,space,space,space,,19178,25006,19178,,2,legacy,1040,1920,24,1080,24,-8,-8,1920,1646128727693,1024,2,48000,-16,experiment,p8sarr1.png,1,odd,Win32,66,136980,133976,66,66,247515,249026,242533,138501,242533,66,,,,,,visual_patterns,0,0,0,yes,1366
undefined,undefined,undefined,undefined,white,no,Mozilla,Netscape,5.0 (Windows),xpyriment,legacy,legacy,0,uniform,0,0,0,0,24,24,24,0,0,14,14,14,14,14,0,14,0,,,,,,0,,01-02-22,01-02-22,10:57:57,Tue Mar 01 2022 10:57:57 GMT+0100 (közép-európai téli idő),The main experiment item,yes,0,0,C:/Users/rrics/Documents/!!ResearchBMECOGSCI/gnet,0,0,0,prototype2.png,no,mono,no,18,no,black,no,no,768,1161,3.5.6,legacy,xpyriment,osweb,1.3.13,0,space,space,space,,19178,25006,19178,,2,legacy,1040,1920,24,1080,24,-8,-8,1920,1646128727693,1024,2,48000,-16,experiment,p3sarrcol1.png,1,odd,Win32,66,136980,133976,66,66,254056,255562,249068,138501,249068,66,,,,,,visual_patterns,0,0,0,yes,1366
undefined,undefined,undefined,undefined,white,no,Mozilla,Netscape,5.0 (Windows),xpyriment,legacy,legacy,0,uniform,0,0,0,0,24,24,24,0,0,15,15,15,15,15,0,15,0,,,,,,0,,01-02-22,01-02-22,10:57:57,Tue Mar 01 2022 10:57:57 GMT+0100 (közép-európai téli idő),The main experiment item,yes,0,0,C:/Users/rrics/Documents/!!ResearchBMECOGSCI/gnet,0,0,0,prototype2.png,no,mono,no,18,no,black,no,no,768,1161,3.5.6,legacy,xpyriment,osweb,1.3.13,0,space,space,space,,19178,25006,19178,,2,legacy,1040,1920,24,1080,24,-8,-8,1920,1646128727693,1024,2,48000,-16,experiment,prototype1.png,1,odd,Win32,66,136980,133976,66,66,260582,262085,255582,138501,255582,66,,,,,,visual_patterns,0,0,0,yes,1366
undefined,undefined,undefined,undefined,white,no,Mozilla,Netscape,5.0 (Windows),xpyriment,legacy,legacy,0,uniform,0,0,0,0,24,24,24,0,0,16,16,16,16,16,0,16,0,,,,,,0,,01-02-22,01-02-22,10:57:57,Tue Mar 01 2022 10:57:57 GMT+0100 (közép-európai téli idő),The main experiment item,yes,0,0,C:/Users/rrics/Documents/!!ResearchBMECOGSCI/gnet,0,0,0,prototype2.png,no,mono,no,18,no,black,no,no,768,1161,3.5.6,legacy,xpyriment,osweb,1.3.13,0,space,space,space,,19178,25006,19178,,2,legacy,1040,1920,24,1080,24,-8,-8,1920,1646128727693,1024,2,48000,-16,experiment,p2sarr2.png,1,odd,Win32,66,136980,133976,66,66,267114,268622,262115,138501,262115,66,,,,,,visual_patterns,0,0,0,yes,1366
undefined,undefined,undefined,undefined,white,no,Mozilla,Netscape,5.0 (Windows),xpyriment,legacy,legacy,0,uniform,0,0,0,0,24,24,24,0,0,17,17,17,17,17,0,17,0,,,,,,0,,01-02-22,01-02-22,10:57:57,Tue Mar 01 2022 10:57:57 GMT+0100 (közép-európai téli idő),The main experiment item,yes,0,0,C:/Users/rrics/Documents/!!ResearchBMECOGSCI/gnet,0,0,0,prototype2.png,no,mono,no,18,no,black,no,no,768,1161,3.5.6,legacy,xpyriment,osweb,1.3.13,0,space,space,space,,19178,25006,19178,,2,legacy,1040,1920,24,1080,24,-8,-8,1920,1646128727693,1024,2,48000,-16,experiment,p3sarrsha2.png,1,odd,Win32,66,136980,133976,66,66,273644,275157,268644,138501,268644,66,,,,,,visual_patterns,0,0,0,yes,1366
undefined,undefined,undefined,undefined,white,no,Mozilla,Netscape,5.0 (Windows),xpyriment,legacy,legacy,0,uniform,0,0,0,0,24,24,24,0,0,18,18,18,18,18,0,18,0,,,,,,0,,01-02-22,01-02-22,10:57:57,Tue Mar 01 2022 10:57:57 GMT+0100 (közép-európai téli idő),The main experiment item,yes,0,0,C:/Users/rrics/Documents/!!ResearchBMECOGSCI/gnet,0,0,0,prototype2.png,no,mono,no,18,no,black,no,no,768,1161,3.5.6,legacy,xpyriment,osweb,1.3.13,0,space,space,space,,19178,25006,19178,,2,legacy,1040,1920,24,1080,24,-8,-8,1920,1646128727693,1024,2,48000,-16,experiment,prototype4.png,1,odd,Win32,66,136980,133976,66,66,280165,281667,275180,138501,275180,66,,,,,,visual_patterns,0,0,0,yes,1366
undefined,undefined,undefined,undefined,white,no,Mozilla,Netscape,5.0 (Windows),xpyriment,legacy,legacy,0,uniform,0,0,0,0,24,24,24,0,0,19,19,19,19,19,0,19,0,,,,,,0,,01-02-22,01-02-22,10:57:57,Tue Mar 01 2022 10:57:57 GMT+0100 (közép-európai téli idő),The main experiment item,yes,0,0,C:/Users/rrics/Documents/!!ResearchBMECOGSCI/gnet,0,0,0,prototype2.png,no,mono,no,18,no,black,no,no,768,1161,3.5.6,legacy,xpyriment,osweb,1.3.13,0,space,space,space,,19178,25006,19178,,2,legacy,1040,1920,24,1080,24,-8,-8,1920,1646128727693,1024,2,48000,-16,experiment,p3sarrsha1.png,1,odd,Win32,66,136980,133976,66,66,286674,288176,281687,138501,281687,66,,,,,,visual_patterns,0,0,0,yes,1366
undefined,undefined,undefined,undefined,white,no,Mozilla,Netscape,5.0 (Windows),xpyriment,legacy,legacy,0,uniform,0,0,0,0,24,24,24,0,0,20,20,20,20,20,0,20,0,,,,,,0,,01-02-22,01-02-22,10:57:57,Tue Mar 01 2022 10:57:57 GMT+0100 (közép-európai téli idő),The main experiment item,yes,0,0,C:/Users/rrics/Documents/!!ResearchBMECOGSCI/gnet,0,0,0,prototype2.png,no,mono,no,18,no,black,no,no,768,1161,3.5.6,legacy,xpyriment,osweb,1.3.13,0,space,space,space,,19178,25006,19178,,2,legacy,1040,1920,24,1080,24,-8,-8,1920,1646128727693,1024,2,48000,-16,experiment,prototype2.png,1,odd,Win32,66,136980,133976,66,66,293206,294712,288216,138501,288216,66,,,,,,visual_patterns,0,0,0,yes,1366
undefined,undefined,undefined,undefined,white,no,Mozilla,Netscape,5.0 (Windows),xpyriment,legacy,legacy,0,uniform,0,0,0,0,24,24,24,0,0,21,21,21,21,21,0,21,0,,,,,,0,,01-02-22,01-02-22,10:57:57,Tue Mar 01 2022 10:57:57 GMT+0100 (közép-európai téli idő),The main experiment item,yes,0,0,C:/Users/rrics/Documents/!!ResearchBMECOGSCI/gnet,0,0,0,prototype2.png,no,mono,no,18,no,black,no,no,768,1161,3.5.6,legacy,xpyriment,osweb,1.3.13,0,space,space,space,,19178,25006,19178,,2,legacy,1040,1920,24,1080,24,-8,-8,1920,1646128727693,1024,2,48000,-16,experiment,p4sarrcol2.png,1,odd,Win32,66,136980,133976,66,66,299733,301235,294748,138501,294748,66,,,,,,visual_patterns,0,0,0,yes,1366
undefined,undefined,undefined,undefined,white,no,Mozilla,Netscape,5.0 (Windows),xpyriment,legacy,legacy,0,uniform,0,0,0,0,24,24,24,0,0,22,22,22,22,22,0,22,0,,,,,,0,,01-02-22,01-02-22,10:57:57,Tue Mar 01 2022 10:57:57 GMT+0100 (közép-európai téli idő),The main experiment item,yes,0,0,C:/Users/rrics/Documents/!!ResearchBMECOGSCI/gnet,0,0,0,prototype2.png,no,mono,no,18,no,black,no,no,768,1161,3.5.6,legacy,xpyriment,osweb,1.3.13,0,space,space,space,,19178,25006,19178,,2,legacy,1040,1920,24,1080,24,-8,-8,1920,1646128727693,1024,2,48000,-16,experiment,p5sarrshacol1.png,1,odd,Win32,66,136980,133976,66,66,306251,307758,301256,138501,301256,66,,,,,,visual_patterns,0,0,0,yes,1366
undefined,undefined,undefined,undefined,white,no,Mozilla,Netscape,5.0 (Windows),xpyriment,legacy,legacy,0,uniform,0,0,0,0,24,24,24,0,0,23,23,23,23,23,0,23,0,,,,,,0,,01-02-22,01-02-22,10:57:57,Tue Mar 01 2022 10:57:57 GMT+0100 (közép-európai téli idő),The main experiment item,yes,0,0,C:/Users/rrics/Documents/!!ResearchBMECOGSCI/gnet,0,0,0,prototype2.png,no,mono,no,18,no,black,no,no,768,1161,3.5.6,legacy,xpyriment,osweb,1.3.13,0,space,space,space,,19178,25006,19178,,2,legacy,1040,1920,24,1080,24,-8,-8,1920,1646128727693,1024,2,48000,-16,experiment,prototype2.png,1,odd,Win32,66,136980,133976,66,66,312770,314280,307789,138501,307789,66,,,,,,visual_patterns,0,0,0,yes,1366
undefined,undefined,undefined,undefined,white,no,Mozilla,Netscape,5.0 (Windows),xpyriment,legacy,legacy,0,uniform,0,0,0,0,24,24,24,0,0,24,24,24,24,24,0,24,0,,,,,,0,,01-02-22,01-02-22,10:57:57,Tue Mar 01 2022 10:57:57 GMT+0100 (közép-európai téli idő),The main experiment item,yes,0,0,C:/Users/rrics/Documents/!!ResearchBMECOGSCI/gnet,0,0,0,prototype2.png,no,mono,no,18,no,black,no,no,768,1161,3.5.6,legacy,xpyriment,osweb,1.3.13,0,space,space,space,,19178,25006,19178,,2,legacy,1040,1920,24,1080,24,-8,-8,1920,1646128727693,1024,2,48000,-16,experiment,p4sarrsha2.png,1,odd,Win32,66,136980,133976,66,66,319304,320816,314314,138501,314313,66,,,,,,visual_patterns,0,0,0,yes,1366
undefined,undefined,undefined,undefined,white,no,Mozilla,Netscape,5.0 (Windows),xpyriment,legacy,legacy,0,uniform,0,0,0,0,24,24,24,0,0,25,25,25,25,25,0,25,0,,,,,,0,,01-02-22,01-02-22,10:57:57,Tue Mar 01 2022 10:57:57 GMT+0100 (közép-európai téli idő),The main experiment item,yes,0,0,C:/Users/rrics/Documents/!!ResearchBMECOGSCI/gnet,0,0,0,prototype2.png,no,mono,no,18,no,black,no,no,768,1161,3.5.6,legacy,xpyriment,osweb,1.3.13,0,space,space,space,,19178,25006,19178,,2,legacy,1040,1920,24,1080,24,-8,-8,1920,1646128727693,1024,2,48000,-16,experiment,p9sarr1.png,1,odd,Win32,66,136980,133976,66,66,325829,327340,320842,138501,320842,66,,,,,,visual_patterns,0,0,0,yes,1366
undefined,undefined,undefined,undefined,white,no,Mozilla,Netscape,5.0 (Windows),xpyriment,legacy,legacy,0,uniform,0,0,0,0,24,24,24,0,0,26,26,26,26,26,0,26,0,,,,,,0,,01-02-22,01-02-22,10:57:57,Tue Mar 01 2022 10:57:57 GMT+0100 (közép-európai téli idő),The main experiment item,yes,0,0,C:/Users/rrics/Documents/!!ResearchBMECOGSCI/gnet,0,0,0,prototype2.png,no,mono,no,18,no,black,no,no,768,1161,3.5.6,legacy,xpyriment,osweb,1.3.13,0,space,space,space,,19178,25006,19178,,2,legacy,1040,1920,24,1080,24,-8,-8,1920,1646128727693,1024,2,48000,-16,experiment,prototype1.png,1,odd,Win32,66,136980,133976,66,66,332353,333862,327370,138501,327370,66,,,,,,visual_patterns,0,0,0,yes,1366
undefined,undefined,undefined,undefined,white,no,Mozilla,Netscape,5.0 (Windows),xpyriment,legacy,legacy,0,uniform,0,0,0,0,24,24,24,0,0,27,27,27,27,27,0,27,0,,,,,,0,,01-02-22,01-02-22,10:57:57,Tue Mar 01 2022 10:57:57 GMT+0100 (közép-európai téli idő),The main experiment item,yes,0,0,C:/Users/rrics/Documents/!!ResearchBMECOGSCI/gnet,0,0,0,prototype2.png,no,mono,no,18,no,black,no,no,768,1161,3.5.6,legacy,xpyriment,osweb,1.3.13,0,space,space,space,,19178,25006,19178,,2,legacy,1040,1920,24,1080,24,-8,-8,1920,1646128727693,1024,2,48000,-16,experiment,p4sarrcol1.png,1,odd,Win32,66,136980,133976,66,66,338882,340385,333897,138501,333897,66,,,,,,visual_patterns,0,0,0,yes,1366
undefined,undefined,undefined,undefined,white,no,Mozilla,Netscape,5.0 (Windows),xpyriment,legacy,legacy,0,uniform,0,0,0,0,24,24,24,0,0,28,28,28,28,28,0,28,0,,,,,,0,,01-02-22,01-02-22,10:57:57,Tue Mar 01 2022 10:57:57 GMT+0100 (közép-európai téli idő),The main experiment item,yes,0,0,C:/Users/rrics/Documents/!!ResearchBMECOGSCI/gnet,0,0,0,prototype2.png,no,mono,no,18,no,black,no,no,768,1161,3.5.6,legacy,xpyriment,osweb,1.3.13,0,space,space,space,,19178,25006,19178,,2,legacy,1040,1920,24,1080,24,-8,-8,1920,1646128727693,1024,2,48000,-16,experiment,prototype4.png,1,odd,Win32,66,136980,133976,66,66,345401,346907,340411,138501,340411,66,,,,,,visual_patterns,0,0,0,yes,1366
undefined,undefined,undefined,undefined,white,no,Mozilla,Netscape,5.0 (Windows),xpyriment,legacy,legacy,0,uniform,0,0,0,0,24,24,24,0,0,29,29,29,29,29,0,29,0,,,,,,0,,01-02-22,01-02-22,10:57:57,Tue Mar 01 2022 10:57:57 GMT+0100 (közép-európai téli idő),The main experiment item,yes,0,0,C:/Users/rrics/Documents/!!ResearchBMECOGSCI/gnet,0,0,0,prototype2.png,no,mono,no,18,no,black,no,no,768,1161,3.5.6,legacy,xpyriment,osweb,1.3.13,0,space,space,space,,19178,25006,19178,,2,legacy,1040,1920,24,1080,24,-8,-8,1920,1646128727693,1024,2,48000,-16,experiment,prototype5.png,1,odd,Win32,66,136980,133976,66,66,351925,353431,346927,138501,346927,66,,,,,,visual_patterns,0,0,0,yes,1366
undefined,undefined,undefined,undefined,white,no,Mozilla,Netscape,5.0 (Windows),xpyriment,legacy,legacy,0,uniform,0,0,0,0,24,24,24,0,0,30,30,30,30,30,0,30,0,,,,,,0,,01-02-22,01-02-22,10:57:57,Tue Mar 01 2022 10:57:57 GMT+0100 (közép-európai téli idő),The main experiment item,yes,0,0,C:/Users/rrics/Documents/!!ResearchBMECOGSCI/gnet,0,0,0,prototype2.png,no,mono,no,18,no,black,no,no,768,1161,3.5.6,legacy,xpyriment,osweb,1.3.13,0,space,space,space,,19178,25006,19178,,2,legacy,1040,1920,24,1080,24,-8,-8,1920,1646128727693,1024,2,48000,-16,experiment,p5sarrcol2.png,1,odd,Win32,66,136980,133976,66,66,358451,359953,353467,138501,353467,66,,,,,,visual_patterns,0,0,0,yes,1366
undefined,undefined,undefined,undefined,white,no,Mozilla,Netscape,5.0 (Windows),xpyriment,legacy,legacy,0,uniform,0,0,0,0,24,24,24,0,0,31,31,31,31,31,0,31,0,,,,,,0,,01-02-22,01-02-22,10:57:57,Tue Mar 01 2022 10:57:57 GMT+0100 (közép-európai téli idő),The main experiment item,yes,0,0,C:/Users/rrics/Documents/!!ResearchBMECOGSCI/gnet,0,0,0,prototype2.png,no,mono,no,18,no,black,no,no,768,1161,3.5.6,legacy,xpyriment,osweb,1.3.13,0,space,space,space,,19178,25006,19178,,2,legacy,1040,1920,24,1080,24,-8,-8,1920,1646128727693,1024,2,48000,-16,experiment,p2sarrsha2.png,1,odd,Win32,66,136980,133976,66,66,364976,366490,359992,138501,359992,66,,,,,,visual_patterns,0,0,0,yes,1366
undefined,undefined,undefined,undefined,white,no,Mozilla,Netscape,5.0 (Windows),xpyriment,legacy,legacy,0,uniform,0,0,0,0,24,24,24,0,0,32,32,32,32,32,0,32,0,,,,,,0,,01-02-22,01-02-22,10:57:57,Tue Mar 01 2022 10:57:57 GMT+0100 (közép-európai téli idő),The main experiment item,yes,0,0,C:/Users/rrics/Documents/!!ResearchBMECOGSCI/gnet,0,0,0,prototype2.png,no,mono,no,18,no,black,no,no,768,1161,3.5.6,legacy,xpyriment,osweb,1.3.13,0,space,space,space,,19178,25006,19178,,2,legacy,1040,1920,24,1080,24,-8,-8,1920,1646128727693,1024,2,48000,-16,experiment,p5sarr1.png,1,odd,Win32,66,136980,133976,66,66,371509,373012,366532,138501,366532,66,,,,,,visual_patterns,0,0,0,yes,1366
undefined,undefined,undefined,undefined,white,no,Mozilla,Netscape,5.0 (Windows),xpyriment,legacy,legacy,0,uniform,0,0,0,0,24,24,24,0,0,33,33,33,33,33,0,33,0,,,,,,0,,01-02-22,01-02-22,10:57:57,Tue Mar 01 2022 10:57:57 GMT+0100 (közép-európai téli idő),The main experiment item,yes,0,0,C:/Users/rrics/Documents/!!ResearchBMECOGSCI/gnet,0,0,0,prototype2.png,no,mono,no,18,no,black,no,no,768,1161,3.5.6,legacy,xpyriment,osweb,1.3.13,0,space,space,space,,19178,25006,19178,,2,legacy,1040,1920,24,1080,24,-8,-8,1920,1646128727693,1024,2,48000,-16,experiment,p3sarrshacol1.png,1,odd,Win32,66,136980,133976,66,66,378025,379535,373036,138501,373036,66,,,,,,visual_patterns,0,0,0,yes,1366
undefined,undefined,undefined,undefined,white,no,Mozilla,Netscape,5.0 (Windows),xpyriment,legacy,legacy,0,uniform,0,0,0,0,24,24,24,0,0,34,34,34,34,34,0,34,0,,,,,,0,,01-02-22,01-02-22,10:57:57,Tue Mar 01 2022 10:57:57 GMT+0100 (közép-európai téli idő),The main experiment item,yes,0,0,C:/Users/rrics/Documents/!!ResearchBMECOGSCI/gnet,0,0,0,prototype2.png,no,mono,no,18,no,black,no,no,768,1161,3.5.6,legacy,xpyriment,osweb,1.3.13,0,space,space,space,,19178,25006,19178,,2,legacy,1040,1920,24,1080,24,-8,-8,1920,1646128727693,1024,2,48000,-16,experiment,prototype1.png,1,odd,Win32,66,136980,133976,66,66,384555,386057,379567,138501,379566,66,,,,,,visual_patterns,0,0,0,yes,1366
undefined,undefined,undefined,undefined,white,no,Mozilla,Netscape,5.0 (Windows),xpyriment,legacy,legacy,0,uniform,0,0,0,0,24,24,24,0,0,35,35,35,35,35,0,35,0,,,,,,0,,01-02-22,01-02-22,10:57:57,Tue Mar 01 2022 10:57:57 GMT+0100 (közép-európai téli idő),The main experiment item,yes,0,0,C:/Users/rrics/Documents/!!ResearchBMECOGSCI/gnet,0,0,0,prototype2.png,no,mono,no,18,no,black,no,no,768,1161,3.5.6,legacy,xpyriment,osweb,1.3.13,0,space,space,space,,19178,25006,19178,,2,legacy,1040,1920,24,1080,24,-8,-8,1920,1646128727693,1024,2,48000,-16,experiment,p4sarrshacol1.png,1,odd,Win32,66,136980,133976,66,66,391071,392580,386077,138501,386077,66,,,,,,visual_patterns,0,0,0,yes,1366
undefined,undefined,undefined,undefined,white,no,Mozilla,Netscape,5.0 (Windows),xpyriment,legacy,legacy,0,uniform,0,0,0,0,24,24,24,0,0,36,36,36,36,36,0,36,0,,,,,,0,,01-02-22,01-02-22,10:57:57,Tue Mar 01 2022 10:57:57 GMT+0100 (közép-európai téli idő),The main experiment item,yes,0,0,C:/Users/rrics/Documents/!!ResearchBMECOGSCI/gnet,0,0,0,prototype2.png,no,mono,no,18,no,black,no,no,768,1161,3.5.6,legacy,xpyriment,osweb,1.3.13,0,space,space,space,,19178,25006,19178,,2,legacy,1040,1920,24,1080,24,-8,-8,1920,1646128727693,1024,2,48000,-16,experiment,prototype3.png,1,odd,Win32,66,136980,133976,66,66,397601,399103,392606,138501,392606,66,,,,,,visual_patterns,0,0,0,yes,1366
undefined,undefined,undefined,undefined,white,no,Mozilla,Netscape,5.0 (Windows),xpyriment,legacy,legacy,0,uniform,0,0,0,0,24,24,24,0,0,37,37,37,37,37,0,37,0,,,,,,0,,01-02-22,01-02-22,10:57:57,Tue Mar 01 2022 10:57:57 GMT+0100 (közép-európai téli idő),The main experiment item,yes,0,0,C:/Users/rrics/Documents/!!ResearchBMECOGSCI/gnet,0,0,0,prototype2.png,no,mono,no,18,no,black,no,no,768,1161,3.5.6,legacy,xpyriment,osweb,1.3.13,0,space,space,space,,19178,25006,19178,,2,legacy,1040,1920,24,1080,24,-8,-8,1920,1646128727693,1024,2,48000,-16,experiment,prototype3.png,1,odd,Win32,66,136980,133976,66,66,404122,405626,399135,138501,399135,66,,,,,,visual_patterns,0,0,0,yes,1366
undefined,undefined,undefined,undefined,white,no,Mozilla,Netscape,5.0 (Windows),xpyriment,legacy,legacy,0,uniform,0,0,0,0,24,24,24,0,0,38,38,38,38,38,0,38,0,,,,,,0,,01-02-22,01-02-22,10:57:57,Tue Mar 01 2022 10:57:57 GMT+0100 (közép-európai téli idő),The main experiment item,yes,0,0,C:/Users/rrics/Documents/!!ResearchBMECOGSCI/gnet,0,0,0,prototype2.png,no,mono,no,18,no,black,no,no,768,1161,3.5.6,legacy,xpyriment,osweb,1.3.13,0,space,space,space,,19178,25006,19178,,2,legacy,1040,1920,24,1080,24,-8,-8,1920,1646128727693,1024,2,48000,-16,experiment,p7sarr1.png,1,odd,Win32,66,136980,133976,66,66,410637,412149,405646,138501,405646,66,,,,,,visual_patterns,0,0,0,yes,1366
undefined,undefined,undefined,undefined,white,no,Mozilla,Netscape,5.0 (Windows),xpyriment,legacy,legacy,0,uniform,0,0,0,0,24,24,24,0,0,39,39,39,39,39,0,39,0,,,,,,0,,01-02-22,01-02-22,10:57:57,Tue Mar 01 2022 10:57:57 GMT+0100 (közép-európai téli idő),The main experiment item,yes,0,0,C:/Users/rrics/Documents/!!ResearchBMECOGSCI/gnet,0,0,0,prototype2.png,no,mono,no,18,no,black,no,no,768,1161,3.5.6,legacy,xpyriment,osweb,1.3.13,0,space,space,space,,19178,25006,19178,,2,legacy,1040,1920,24,1080,24,-8,-8,1920,1646128727693,1024,2,48000,-16,experiment,p1sarrsha1.png,1,odd,Win32,66,136980,133976,66,66,417155,418659,412175,138501,412175,66,,,,,,visual_patterns,0,0,0,yes,1366
undefined,undefined,undefined,undefined,white,no,Mozilla,Netscape,5.0 (Windows),xpyriment,legacy,legacy,0,uniform,0,0,0,0,24,24,24,0,0,40,40,40,40,40,0,40,0,,,,,,0,,01-02-22,01-02-22,10:57:57,Tue Mar 01 2022 10:57:57 GMT+0100 (közép-európai téli idő),The main experiment item,yes,0,0,C:/Users/rrics/Documents/!!ResearchBMECOGSCI/gnet,0,0,0,prototype2.png,no,mono,no,18,no,black,no,no,768,1161,3.5.6,legacy,xpyriment,osweb,1.3.13,0,space,space,space,,19178,25006,19178,,2,legacy,1040,1920,24,1080,24,-8,-8,1920,1646128727693,1024,2,48000,-16,experiment,prototype5.png,1,odd,Win32,66,136980,133976,66,66,423701,425208,418712,138501,418712,66,,,,,,visual_patterns,0,0,0,yes,1366
undefined,undefined,undefined,undefined,white,no,Mozilla,Netscape,5.0 (Windows),xpyriment,legacy,legacy,0,uniform,0,0,0,0,24,24,24,0,0,41,41,41,41,41,0,41,0,,,,,,0,,01-02-22,01-02-22,10:57:57,Tue Mar 01 2022 10:57:57 GMT+0100 (közép-európai téli idő),The main experiment item,yes,0,0,C:/Users/rrics/Documents/!!ResearchBMECOGSCI/gnet,0,0,0,prototype2.png,no,mono,no,18,no,black,no,no,768,1161,3.5.6,legacy,xpyriment,osweb,1.3.13,0,space,space,space,,19178,25006,19178,,2,legacy,1040,1920,24,1080,24,-8,-8,1920,1646128727693,1024,2,48000,-16,experiment,p3sarrshacol2.png,1,odd,Win32,66,136980,133976,66,66,430230,431743,425239,138501,425239,66,,,,,,visual_patterns,0,0,0,yes,1366
undefined,undefined,undefined,undefined,white,no,Mozilla,Netscape,5.0 (Windows),xpyriment,legacy,legacy,0,uniform,0,0,0,0,24,24,24,0,0,42,42,42,42,42,0,42,0,,,,,,0,,01-02-22,01-02-22,10:57:57,Tue Mar 01 2022 10:57:57 GMT+0100 (közép-európai téli idő),The main experiment item,yes,0,0,C:/Users/rrics/Documents/!!ResearchBMECOGSCI/gnet,0,0,0,prototype2.png,no,mono,no,18,no,black,no,no,768,1161,3.5.6,legacy,xpyriment,osweb,1.3.13,0,space,space,space,,19178,25006,19178,,2,legacy,1040,1920,24,1080,24,-8,-8,1920,1646128727693,1024,2,48000,-16,experiment,p3sarrcol2.png,1,odd,Win32,66,136980,133976,66,66,436759,438266,431775,138501,431775,66,,,,,,visual_patterns,0,0,0,yes,1366
undefined,undefined,undefined,undefined,white,no,Mozilla,Netscape,5.0 (Windows),xpyriment,legacy,legacy,0,uniform,0,0,0,0,24,24,24,0,0,43,43,43,43,43,0,43,0,,,,,,0,,01-02-22,01-02-22,10:57:57,Tue Mar 01 2022 10:57:57 GMT+0100 (közép-európai téli idő),The main experiment item,yes,0,0,C:/Users/rrics/Documents/!!ResearchBMECOGSCI/gnet,0,0,0,prototype2.png,no,mono,no,18,no,black,no,no,768,1161,3.5.6,legacy,xpyriment,osweb,1.3.13,0,space,space,space,,19178,25006,19178,,2,legacy,1040,1920,24,1080,24,-8,-8,1920,1646128727693,1024,2,48000,-16,experiment,p3sarr2.png,1,odd,Win32,66,136980,133976,66,66,443290,444804,438295,138501,438295,66,,,,,,visual_patterns,0,0,0,yes,1366
undefined,undefined,undefined,undefined,white,no,Mozilla,Netscape,5.0 (Windows),xpyriment,legacy,legacy,0,uniform,0,0,0,0,24,24,24,0,0,44,44,44,44,44,0,44,0,,,,,,0,,01-02-22,01-02-22,10:57:57,Tue Mar 01 2022 10:57:57 GMT+0100 (közép-európai téli idő),The main experiment item,yes,0,0,C:/Users/rrics/Documents/!!ResearchBMECOGSCI/gnet,0,0,0,prototype2.png,no,mono,no,18,no,black,no,no,768,1161,3.5.6,legacy,xpyriment,osweb,1.3.13,0,space,space,space,,19178,25006,19178,,2,legacy,1040,1920,24,1080,24,-8,-8,1920,1646128727693,1024,2,48000,-16,experiment,p2sarrsha1.png,1,odd,Win32,66,136980,133976,66,66,449826,451338,444833,138501,444833,66,,,,,,visual_patterns,0,0,0,yes,1366
undefined,undefined,undefined,undefined,white,no,Mozilla,Netscape,5.0 (Windows),xpyriment,legacy,legacy,0,uniform,0,0,0,0,24,24,24,0,0,45,45,45,45,45,0,45,0,,,,,,0,,01-02-22,01-02-22,10:57:57,Tue Mar 01 2022 10:57:57 GMT+0100 (közép-európai téli idő),The main experiment item,yes,0,0,C:/Users/rrics/Documents/!!ResearchBMECOGSCI/gnet,0,0,0,prototype2.png,no,mono,no,18,no,black,no,no,768,1161,3.5.6,legacy,xpyriment,osweb,1.3.13,0,space,space,space,,19178,25006,19178,,2,legacy,1040,1920,24,1080,24,-8,-8,1920,1646128727693,1024,2,48000,-16,experiment,p4sarrsha1.png,1,odd,Win32,66,136980,133976,66,66,456368,457875,451374,138501,451374,66,,,,,,visual_patterns,0,0,0,yes,1366
undefined,undefined,undefined,undefined,white,no,Mozilla,Netscape,5.0 (Windows),xpyriment,legacy,legacy,0,uniform,0,0,0,0,24,24,24,0,0,46,46,46,46,46,0,46,0,,,,,,0,,01-02-22,01-02-22,10:57:57,Tue Mar 01 2022 10:57:57 GMT+0100 (közép-európai téli idő),The main experiment item,yes,0,0,C:/Users/rrics/Documents/!!ResearchBMECOGSCI/gnet,0,0,0,prototype2.png,no,mono,no,18,no,black,no,no,768,1161,3.5.6,legacy,xpyriment,osweb,1.3.13,0,space,space,space,,19178,25006,19178,,2,legacy,1040,1920,24,1080,24,-8,-8,1920,1646128727693,1024,2,48000,-16,experiment,p1sarrcol1.png,1,odd,Win32,66,136980,133976,66,66,462882,464384,457892,138501,457892,66,,,,,,visual_patterns,0,0,0,yes,1366
undefined,undefined,undefined,undefined,white,no,Mozilla,Netscape,5.0 (Windows),xpyriment,legacy,legacy,0,uniform,0,0,0,0,24,24,24,0,0,47,47,47,47,47,0,47,0,,,,,,0,,01-02-22,01-02-22,10:57:57,Tue Mar 01 2022 10:57:57 GMT+0100 (közép-európai téli idő),The main experiment item,yes,0,0,C:/Users/rrics/Documents/!!ResearchBMECOGSCI/gnet,0,0,0,prototype2.png,no,mono,no,18,no,black,no,no,768,1161,3.5.6,legacy,xpyriment,osweb,1.3.13,0,space,space,space,,19178,25006,19178,,2,legacy,1040,1920,24,1080,24,-8,-8,1920,1646128727693,1024,2,48000,-16,experiment,p1sarrsha2.png,1,odd,Win32,66,136980,133976,66,66,469399,470907,464421,138501,464421,66,,,,,,visual_patterns,0,0,0,yes,1366
undefined,undefined,undefined,undefined,white,no,Mozilla,Netscape,5.0 (Windows),xpyriment,legacy,legacy,0,uniform,0,0,0,0,24,24,24,0,0,48,48,48,48,48,0,48,0,,,,,,0,,01-02-22,01-02-22,10:57:57,Tue Mar 01 2022 10:57:57 GMT+0100 (közép-európai téli idő),The main experiment item,yes,0,0,C:/Users/rrics/Documents/!!ResearchBMECOGSCI/gnet,0,0,0,prototype2.png,no,mono,no,18,no,black,no,no,768,1161,3.5.6,legacy,xpyriment,osweb,1.3.13,0,space,space,space,,19178,25006,19178,,2,legacy,1040,1920,24,1080,24,-8,-8,1920,1646128727693,1024,2,48000,-16,experiment,p7sarr2.png,1,odd,Win32,66,136980,133976,66,66,475918,477430,470927,138501,470927,66,,,,,,visual_patterns,0,0,0,yes,1366
undefined,undefined,undefined,undefined,white,no,Mozilla,Netscape,5.0 (Windows),xpyriment,legacy,legacy,0,uniform,0,0,0,0,24,24,24,0,0,49,49,49,49,49,0,49,0,,,,,,0,,01-02-22,01-02-22,10:57:57,Tue Mar 01 2022 10:57:57 GMT+0100 (közép-európai téli idő),The main experiment item,yes,0,0,C:/Users/rrics/Documents/!!ResearchBMECOGSCI/gnet,0,0,0,prototype2.png,no,mono,no,18,no,black,no,no,768,1161,3.5.6,legacy,xpyriment,osweb,1.3.13,0,space,space,space,,19178,25006,19178,,2,legacy,1040,1920,24,1080,24,-8,-8,1920,1646128727693,1024,2,48000,-16,experiment,p4sarr1.png,1,odd,Win32,66,136980,133976,66,66,482446,483952,477456,138501,477456,66,,,,,,visual_patterns,0,0,0,yes,1366
undefined,undefined,undefined,undefined,white,no,Mozilla,Netscape,5.0 (Windows),xpyriment,legacy,legacy,0,uniform,0,0,0,0,24,24,24,0,0,50,50,50,50,50,0,50,0,,,,,,0,,01-02-22,01-02-22,10:57:57,Tue Mar 01 2022 10:57:57 GMT+0100 (közép-európai téli idő),The main experiment item,yes,0,0,C:/Users/rrics/Documents/!!ResearchBMECOGSCI/gnet,0,0,0,prototype2.png,no,mono,no,18,no,black,no,no,768,1161,3.5.6,legacy,xpyriment,osweb,1.3.13,0,space,space,space,,19178,25006,19178,,2,legacy,1040,1920,24,1080,24,-8,-8,1920,1646128727693,1024,2,48000,-16,experiment,p10sarr1.png,1,odd,Win32,66,136980,133976,66,66,488976,490488,483992,138501,483992,66,,,,,,visual_patterns,0,0,0,yes,1366
undefined,undefined,undefined,undefined,white,no,Mozilla,Netscape,5.0 (Windows),xpyriment,legacy,legacy,0,uniform,0,0,0,0,24,24,24,0,0,51,51,51,51,51,0,51,0,,,,,,0,,01-02-22,01-02-22,10:57:57,Tue Mar 01 2022 10:57:57 GMT+0100 (közép-európai téli idő),The main experiment item,yes,0,0,C:/Users/rrics/Documents/!!ResearchBMECOGSCI/gnet,0,0,0,prototype2.png,no,mono,no,18,no,black,no,no,768,1161,3.5.6,legacy,xpyriment,osweb,1.3.13,0,space,space,space,,19178,25006,19178,,2,legacy,1040,1920,24,1080,24,-8,-8,1920,1646128727693,1024,2,48000,-16,experiment,prototype3.png,1,odd,Win32,66,136980,133976,66,66,495494,496998,490504,138501,490504,66,,,,,,visual_patterns,0,0,0,yes,1366
undefined,undefined,undefined,undefined,white,no,Mozilla,Netscape,5.0 (Windows),xpyriment,legacy,legacy,0,uniform,0,0,0,0,24,24,24,0,0,52,52,52,52,52,0,52,0,,,,,,0,,01-02-22,01-02-22,10:57:57,Tue Mar 01 2022 10:57:57 GMT+0100 (közép-európai téli idő),The main experiment item,yes,0,0,C:/Users/rrics/Documents/!!ResearchBMECOGSCI/gnet,0,0,0,prototype2.png,no,mono,no,18,no,black,no,no,768,1161,3.5.6,legacy,xpyriment,osweb,1.3.13,0,space,space,space,,19178,25006,19178,,2,legacy,1040,1920,24,1080,24,-8,-8,1920,1646128727693,1024,2,48000,-16,experiment,p1sarr1.png,1,odd,Win32,66,136980,133976,66,66,502012,503520,497024,138501,497024,66,,,,,,visual_patterns,0,0,0,yes,1366
undefined,undefined,undefined,undefined,white,no,Mozilla,Netscape,5.0 (Windows),xpyriment,legacy,legacy,0,uniform,0,0,0,0,24,24,24,0,0,53,53,53,53,53,0,53,0,,,,,,0,,01-02-22,01-02-22,10:57:57,Tue Mar 01 2022 10:57:57 GMT+0100 (közép-európai téli idő),The main experiment item,yes,0,0,C:/Users/rrics/Documents/!!ResearchBMECOGSCI/gnet,0,0,0,prototype2.png,no,mono,no,18,no,black,no,no,768,1161,3.5.6,legacy,xpyriment,osweb,1.3.13,0,space,space,space,,19178,25006,19178,,2,legacy,1040,1920,24,1080,24,-8,-8,1920,1646128727693,1024,2,48000,-16,experiment,p1sarrcol2.png,1,odd,Win32,66,136980,133976,66,66,508539,510043,503537,138501,503537,66,,,,,,visual_patterns,0,0,0,yes,1366
undefined,undefined,undefined,undefined,white,no,Mozilla,Netscape,5.0 (Windows),xpyriment,legacy,legacy,0,uniform,0,0,0,0,24,24,24,0,0,54,54,54,54,54,0,54,0,,,,,,0,,01-02-22,01-02-22,10:57:57,Tue Mar 01 2022 10:57:57 GMT+0100 (közép-európai téli idő),The main experiment item,yes,0,0,C:/Users/rrics/Documents/!!ResearchBMECOGSCI/gnet,0,0,0,prototype2.png,no,mono,no,18,no,black,no,no,768,1161,3.5.6,legacy,xpyriment,osweb,1.3.13,0,space,space,space,,19178,25006,19178,,2,legacy,1040,1920,24,1080,24,-8,-8,1920,1646128727693,1024,2,48000,-16,experiment,p2sarrcol2.png,1,odd,Win32,66,136980,133976,66,66,515054,516566,510074,138501,510074,66,,,,,,visual_patterns,0,0,0,yes,1366
undefined,undefined,undefined,undefined,white,no,Mozilla,Netscape,5.0 (Windows),xpyriment,legacy,legacy,0,uniform,0,0,0,0,24,24,24,0,0,55,55,55,55,55,0,55,0,,,,,,0,,01-02-22,01-02-22,10:57:57,Tue Mar 01 2022 10:57:57 GMT+0100 (közép-európai téli idő),The main experiment item,yes,0,0,C:/Users/rrics/Documents/!!ResearchBMECOGSCI/gnet,0,0,0,prototype2.png,no,mono,no,18,no,black,no,no,768,1161,3.5.6,legacy,xpyriment,osweb,1.3.13,0,space,space,space,,19178,25006,19178,,2,legacy,1040,1920,24,1080,24,-8,-8,1920,1646128727693,1024,2,48000,-16,experiment,prototype4.png,1,odd,Win32,66,136980,133976,66,66,521577,523088,516586,138501,516586,66,,,,,,visual_patterns,0,0,0,yes,1366
undefined,undefined,undefined,undefined,white,no,Mozilla,Netscape,5.0 (Windows),xpyriment,legacy,legacy,0,uniform,0,0,0,0,24,24,24,0,0,56,56,56,56,56,0,56,0,,,,,,0,,01-02-22,01-02-22,10:57:57,Tue Mar 01 2022 10:57:57 GMT+0100 (közép-európai téli idő),The main experiment item,yes,0,0,C:/Users/rrics/Documents/!!ResearchBMECOGSCI/gnet,0,0,0,prototype2.png,no,mono,no,18,no,black,no,no,768,1161,3.5.6,legacy,xpyriment,osweb,1.3.13,0,space,space,space,,19178,25006,19178,,2,legacy,1040,1920,24,1080,24,-8,-8,1920,1646128727693,1024,2,48000,-16,experiment,p2sarrshacol1.png,1,odd,Win32,66,136980,133976,66,66,528102,529611,523121,138501,523121,66,,,,,,visual_patterns,0,0,0,yes,1366
undefined,undefined,undefined,undefined,white,no,Mozilla,Netscape,5.0 (Windows),xpyriment,legacy,legacy,0,uniform,0,0,0,0,24,24,24,0,0,57,57,57,57,57,0,57,0,,,,,,0,,01-02-22,01-02-22,10:57:57,Tue Mar 01 2022 10:57:57 GMT+0100 (közép-európai téli idő),The main experiment item,yes,0,0,C:/Users/rrics/Documents/!!ResearchBMECOGSCI/gnet,0,0,0,prototype2.png,no,mono,no,18,no,black,no,no,768,1161,3.5.6,legacy,xpyriment,osweb,1.3.13,0,space,space,space,,19178,25006,19178,,2,legacy,1040,1920,24,1080,24,-8,-8,1920,1646128727693,1024,2,48000,-16,experiment,prototype5.png,1,odd,Win32,66,136980,133976,66,66,534622,536134,529633,138501,529633,66,,,,,,visual_patterns,0,0,0,yes,1366
undefined,undefined,undefined,undefined,white,no,Mozilla,Netscape,5.0 (Windows),xpyriment,legacy,legacy,0,uniform,0,0,0,0,24,24,24,0,0,58,58,58,58,58,0,58,0,,,,,,0,,01-02-22,01-02-22,10:57:57,Tue Mar 01 2022 10:57:57 GMT+0100 (közép-európai téli idő),The main experiment item,yes,0,0,C:/Users/rrics/Documents/!!ResearchBMECOGSCI/gnet,0,0,0,prototype2.png,no,mono,no,18,no,black,no,no,768,1161,3.5.6,legacy,xpyriment,osweb,1.3.13,0,space,space,space,,19178,25006,19178,,2,legacy,1040,1920,24,1080,24,-8,-8,1920,1646128727693,1024,2,48000,-16,experiment,prototype2.png,1,odd,Win32,66,136980,133976,66,66,541144,542657,536165,138501,536165,66,,,,,,visual_patterns,0,0,0,yes,1366
undefined,undefined,undefined,undefined,white,no,Mozilla,Netscape,5.0 (Windows),xpyriment,legacy,legacy,0,uniform,0,0,0,0,24,24,24,0,0,59,59,59,59,59,0,59,0,,,,,,0,,01-02-22,01-02-22,10:57:57,Tue Mar 01 2022 10:57:57 GMT+0100 (közép-európai téli idő),The main experiment item,yes,0,0,C:/Users/rrics/Documents/!!ResearchBMECOGSCI/gnet,0,0,0,prototype2.png,no,mono,no,18,no,black,no,no,768,1161,3.5.6,legacy,xpyriment,osweb,1.3.13,0,space,space,space,,19178,25006,19178,,2,legacy,1040,1920,24,1080,24,-8,-8,1920,1646128727693,1024,2,48000,-16,experiment,prototype5.png,1,odd,Win32,66,136980,133976,66,66,547668,549180,542679,138501,542679,66,,,,,,visual_patterns,0,0,0,yes,1366
undefined,undefined,undefined,undefined,white,no,Mozilla,Netscape,5.0 (Windows),xpyriment,legacy,legacy,0,uniform,0,0,0,0,24,24,24,0,0,60,60,60,60,60,0,60,0,,,,,,0,,01-02-22,01-02-22,10:57:57,Tue Mar 01 2022 10:57:57 GMT+0100 (közép-európai téli idő),The main experiment item,yes,0,0,C:/Users/rrics/Documents/!!ResearchBMECOGSCI/gnet,0,0,0,prototype2.png,no,mono,no,18,no,black,no,no,768,1161,3.5.6,legacy,xpyriment,osweb,1.3.13,0,space,space,space,,19178,25006,19178,,2,legacy,1040,1920,24,1080,24,-8,-8,1920,1646128727693,1024,2,48000,-16,experiment,p1sarrshacol2.png,1,odd,Win32,66,136980,133976,66,66,554194,555703,549200,138501,549200,66,,,,,,visual_patterns,0,0,0,yes,1366
undefined,undefined,undefined,undefined,white,no,Mozilla,Netscape,5.0 (Windows),xpyriment,legacy,legacy,0,uniform,0,0,0,0,24,24,24,0,0,61,61,61,61,61,0,61,0,,,,,,0,,01-02-22,01-02-22,10:57:57,Tue Mar 01 2022 10:57:57 GMT+0100 (közép-európai téli idő),The main experiment item,yes,0,0,C:/Users/rrics/Documents/!!ResearchBMECOGSCI/gnet,0,0,0,prototype2.png,no,mono,no,18,no,black,no,no,768,1161,3.5.6,legacy,xpyriment,osweb,1.3.13,0,space,space,space,,19178,25006,19178,,2,legacy,1040,1920,24,1080,24,-8,-8,1920,1646128727693,1024,2,48000,-16,experiment,p2sarrcol1.png,1,odd,Win32,66,136980,133976,66,66,560726,562238,555739,138501,555739,66,,,,,,visual_patterns,0,0,0,yes,1366
undefined,undefined,undefined,undefined,white,no,Mozilla,Netscape,5.0 (Windows),xpyriment,legacy,legacy,0,uniform,0,0,0,0,24,24,24,0,0,62,62,62,62,62,0,62,0,,,,,,0,,01-02-22,01-02-22,10:57:57,Tue Mar 01 2022 10:57:57 GMT+0100 (közép-európai téli idő),The main experiment item,yes,0,0,C:/Users/rrics/Documents/!!ResearchBMECOGSCI/gnet,0,0,0,prototype2.png,no,mono,no,18,no,black,no,no,768,1161,3.5.6,legacy,xpyriment,osweb,1.3.13,0,space,space,space,,19178,25006,19178,,2,legacy,1040,1920,24,1080,24,-8,-8,1920,1646128727693,1024,2,48000,-16,experiment,p5sarr2.png,1,odd,Win32,66,136980,133976,66,66,567259,568762,562268,138501,562268,66,,,,,,visual_patterns,0,0,0,yes,1366
undefined,undefined,undefined,undefined,white,no,Mozilla,Netscape,5.0 (Windows),xpyriment,legacy,legacy,0,uniform,0,0,0,0,24,24,24,0,0,63,63,63,63,63,0,63,0,,,,,,0,,01-02-22,01-02-22,10:57:57,Tue Mar 01 2022 10:57:57 GMT+0100 (közép-európai téli idő),The main experiment item,yes,0,0,C:/Users/rrics/Documents/!!ResearchBMECOGSCI/gnet,0,0,0,prototype2.png,no,mono,no,18,no,black,no,no,768,1161,3.5.6,legacy,xpyriment,osweb,1.3.13,0,space,space,space,,19178,25006,19178,,2,legacy,1040,1920,24,1080,24,-8,-8,1920,1646128727693,1024,2,48000,-16,experiment,p10sarr2.png,1,odd,Win32,66,136980,133976,66,66,573785,575297,568804,138501,568804,66,,,,,,visual_patterns,0,0,0,yes,1366
undefined,undefined,undefined,undefined,white,no,Mozilla,Netscape,5.0 (Windows),xpyriment,legacy,legacy,0,uniform,0,0,0,0,24,24,24,0,0,64,64,64,64,64,0,64,0,,,,,,0,,01-02-22,01-02-22,10:57:57,Tue Mar 01 2022 10:57:57 GMT+0100 (közép-európai téli idő),The main experiment item,yes,0,0,C:/Users/rrics/Documents/!!ResearchBMECOGSCI/gnet,0,0,0,prototype2.png,no,mono,no,18,no,black,no,no,768,1161,3.5.6,legacy,xpyriment,osweb,1.3.13,0,space,space,space,,19178,25006,19178,,2,legacy,1040,1920,24,1080,24,-8,-8,1920,1646128727693,1024,2,48000,-16,experiment,prototype1.png,1,odd,Win32,66,136980,133976,66,66,580319,581821,575331,138501,575331,66,,,,,,visual_patterns,0,0,0,yes,1366
undefined,undefined,undefined,undefined,white,no,Mozilla,Netscape,5.0 (Windows),xpyriment,legacy,legacy,0,uniform,0,0,0,0,24,24,24,0,0,65,65,65,65,65,0,65,0,,,,,,0,,01-02-22,01-02-22,10:57:57,Tue Mar 01 2022 10:57:57 GMT+0100 (közép-európai téli idő),The main experiment item,yes,0,0,C:/Users/rrics/Documents/!!ResearchBMECOGSCI/gnet,0,0,0,prototype2.png,no,mono,no,18,no,black,no,no,768,1161,3.5.6,legacy,xpyriment,osweb,1.3.13,0,space,space,space,,19178,25006,19178,,2,legacy,1040,1920,24,1080,24,-8,-8,1920,1646128727693,1024,2,48000,-16,experiment,prototype4.png,1,odd,Win32,66,136980,133976,66,66,586837,588343,581842,138501,581842,66,,,,,,visual_patterns,0,0,0,yes,1366
undefined,undefined,undefined,undefined,white,no,Mozilla,Netscape,5.0 (Windows),xpyriment,legacy,legacy,0,uniform,0,0,0,0,24,24,24,0,0,66,66,66,66,66,0,66,0,,,,,,0,,01-02-22,01-02-22,10:57:57,Tue Mar 01 2022 10:57:57 GMT+0100 (közép-európai téli idő),The main experiment item,yes,0,0,C:/Users/rrics/Documents/!!ResearchBMECOGSCI/gnet,0,0,0,prototype2.png,no,mono,no,18,no,black,no,no,768,1161,3.5.6,legacy,xpyriment,osweb,1.3.13,0,space,space,space,,19178,25006,19178,,2,legacy,1040,1920,24,1080,24,-8,-8,1920,1646128727693,1024,2,48000,-16,experiment,p2sarrshacol2.png,1,odd,Win32,66,136980,133976,66,66,593352,594853,588366,138501,588366,66,,,,,,visual_patterns,0,0,0,yes,1366
undefined,undefined,undefined,undefined,white,no,Mozilla,Netscape,5.0 (Windows),xpyriment,legacy,legacy,0,uniform,0,0,0,0,24,24,24,0,0,67,67,67,67,67,0,67,0,,,,,,0,,01-02-22,01-02-22,10:57:57,Tue Mar 01 2022 10:57:57 GMT+0100 (közép-európai téli idő),The main experiment item,yes,0,0,C:/Users/rrics/Documents/!!ResearchBMECOGSCI/gnet,0,0,0,prototype2.png,no,mono,no,18,no,black,no,no,768,1161,3.5.6,legacy,xpyriment,osweb,1.3.13,0,space,space,space,,19178,25006,19178,,2,legacy,1040,1920,24,1080,24,-8,-8,1920,1646128727693,1024,2,48000,-16,experiment,p1sarr2.png,1,odd,Win32,66,136980,133976,66,66,599870,601375,594872,138501,594872,66,,,,,,visual_patterns,0,0,0,yes,1366
undefined,undefined,undefined,undefined,white,no,Mozilla,Netscape,5.0 (Windows),xpyriment,legacy,legacy,0,uniform,0,0,0,0,24,24,24,0,0,68,68,68,68,68,0,68,0,,,,,,0,,01-02-22,01-02-22,10:57:57,Tue Mar 01 2022 10:57:57 GMT+0100 (közép-európai téli idő),The main experiment item,yes,0,0,C:/Users/rrics/Documents/!!ResearchBMECOGSCI/gnet,0,0,0,prototype2.png,no,mono,no,18,no,black,no,no,768,1161,3.5.6,legacy,xpyriment,osweb,1.3.13,0,space,space,space,,19178,25006,19178,,2,legacy,1040,1920,24,1080,24,-8,-8,1920,1646128727693,1024,2,48000,-16,experiment,p6sarr2.png,1,odd,Win32,66,136980,133976,66,66,606401,607912,601431,138501,601431,66,,,,,,visual_patterns,0,0,0,yes,1366
undefined,undefined,undefined,undefined,white,no,Mozilla,Netscape,5.0 (Windows),xpyriment,legacy,legacy,0,uniform,0,0,0,0,24,24,24,0,0,69,69,69,69,69,0,69,0,,,,,,0,,01-02-22,01-02-22,10:57:57,Tue Mar 01 2022 10:57:57 GMT+0100 (közép-európai téli idő),The main experiment item,yes,0,0,C:/Users/rrics/Documents/!!ResearchBMECOGSCI/gnet,0,0,0,prototype2.png,no,mono,no,18,no,black,no,no,768,1161,3.5.6,legacy,xpyriment,osweb,1.3.13,0,space,space,space,,19178,25006,19178,,2,legacy,1040,1920,24,1080,24,-8,-8,1920,1646128727693,1024,2,48000,-16,experiment,prototype2.png,1,odd,Win32,66,136980,133976,66,66,612935,614448,607949,138501,607949,66,,,,,,visual_patterns,0,0,0,yes,1366
undefined,undefined,undefined,undefined,white,no,Mozilla,Netscape,5.0 (Windows),xpyriment,legacy,legacy,0,uniform,0,0,0,0,24,24,24,0,0,70,70,70,70,70,0,70,0,,,,,,0,,01-02-22,01-02-22,10:57:57,Tue Mar 01 2022 10:57:57 GMT+0100 (közép-európai téli idő),The main experiment item,yes,0,0,C:/Users/rrics/Documents/!!ResearchBMECOGSCI/gnet,0,0,0,prototype2.png,no,mono,no,18,no,black,no,no,768,1161,3.5.6,legacy,xpyriment,osweb,1.3.13,0,space,space,space,,19178,25006,19178,,2,legacy,1040,1920,24,1080,24,-8,-8,1920,1646128727693,1024,2,48000,-16,experiment,p1sarrshacol1.png,1,odd,Win32,66,136980,133976,66,66,619470,620984,614482,138501,614482,66,,,,,,visual_patterns,0,0,0,yes,1366
undefined,undefined,undefined,undefined,white,no,Mozilla,Netscape,5.0 (Windows),xpyriment,legacy,legacy,0,uniform,0,0,0,0,24,24,24,0,0,71,71,71,71,71,0,71,0,,,,,,0,,01-02-22,01-02-22,10:57:57,Tue Mar 01 2022 10:57:57 GMT+0100 (közép-európai téli idő),The main experiment item,yes,0,0,C:/Users/rrics/Documents/!!ResearchBMECOGSCI/gnet,0,0,0,prototype2.png,no,mono,no,18,no,black,no,no,768,1161,3.5.6,legacy,xpyriment,osweb,1.3.13,0,space,space,space,,19178,25006,19178,,2,legacy,1040,1920,24,1080,24,-8,-8,1920,1646128727693,1024,2,48000,-16,experiment,prototype1.png,1,odd,Win32,66,136980,133976,66,66,625995,627506,621010,138501,621010,66,,,,,,visual_patterns,0,0,0,yes,1366
undefined,undefined,undefined,undefined,white,no,Mozilla,Netscape,5.0 (Windows),xpyriment,legacy,legacy,0,uniform,0,0,0,0,24,24,24,0,0,72,72,72,72,72,0,72,0,,,,,,0,,01-02-22,01-02-22,10:57:57,Tue Mar 01 2022 10:57:57 GMT+0100 (közép-európai téli idő),The main experiment item,yes,0,0,C:/Users/rrics/Documents/!!ResearchBMECOGSCI/gnet,0,0,0,prototype2.png,no,mono,no,18,no,black,no,no,768,1161,3.5.6,legacy,xpyriment,osweb,1.3.13,0,space,space,space,,19178,25006,19178,,2,legacy,1040,1920,24,1080,24,-8,-8,1920,1646128727693,1024,2,48000,-16,experiment,prototype5.png,1,odd,Win32,66,136980,133976,66,66,632523,634029,627531,138501,627531,66,,,,,,visual_patterns,0,0,0,yes,1366
undefined,undefined,undefined,undefined,white,no,Mozilla,Netscape,5.0 (Windows),xpyriment,legacy,legacy,0,uniform,0,0,0,0,24,24,24,0,0,73,73,73,73,73,0,73,0,,,,,,0,,01-02-22,01-02-22,10:57:57,Tue Mar 01 2022 10:57:57 GMT+0100 (közép-európai téli idő),The main experiment item,yes,0,0,C:/Users/rrics/Documents/!!ResearchBMECOGSCI/gnet,0,0,0,prototype2.png,no,mono,no,18,no,black,no,no,768,1161,3.5.6,legacy,xpyriment,osweb,1.3.13,0,space,space,space,,19178,25006,19178,,2,legacy,1040,1920,24,1080,24,-8,-8,1920,1646128727693,1024,2,48000,-16,experiment,prototype3.png,1,odd,Win32,66,136980,133976,66,66,639039,640552,634049,138501,634049,66,,,,,,visual_patterns,0,0,0,yes,1366
undefined,undefined,undefined,undefined,white,no,Mozilla,Netscape,5.0 (Windows),xpyriment,legacy,legacy,0,uniform,0,0,0,0,24,24,24,0,0,74,74,74,74,74,0,74,0,,,,,,0,,01-02-22,01-02-22,10:57:57,Tue Mar 01 2022 10:57:57 GMT+0100 (közép-európai téli idő),The main experiment item,yes,0,0,C:/Users/rrics/Documents/!!ResearchBMECOGSCI/gnet,0,0,0,prototype2.png,no,mono,no,18,no,black,no,no,768,1161,3.5.6,legacy,xpyriment,osweb,1.3.13,0,space,space,space,,19178,25006,19178,,2,legacy,1040,1920,24,1080,24,-8,-8,1920,1646128727693,1024,2,48000,-16,experiment,prototype2.png,1,odd,Win32,66,136980,133976,66,66,645573,647075,640571,138501,640571,66,,,,,,visual_patterns,0,0,0,yes,1366
undefined,undefined,undefined,undefined,white,no,Mozilla,Netscape,5.0 (Windows),xpyriment,legacy,legacy,0,uniform,0,0,0,0,24,24,24,0,0,74,74,74,74,74,0,74,0,0,0,0,0,0,0,0,01-02-22,01-02-22,10:57:57,Tue Mar 01 2022 10:57:57 GMT+0100 (közép-európai téli idő),The main experiment item,yes,0,0,C:/Users/rrics/Documents/!!ResearchBMECOGSCI/gnet,0,0,0,prototype2.png,no,mono,no,18,no,black,no,no,768,1161,3.5.6,legacy,xpyriment,osweb,1.3.13,0,space,space,space,space,26436,25006,19178,26436,2,legacy,1040,1920,24,1080,24,-8,-8,1920,1646128727693,1024,2,48000,-16,experiment,p5sarrsha3.png,1,odd,Win32,66,136980,133976,66,66,645573,647075,640571,138501,640571,66,676574,678088,673584,647110,673584,visual_patterns,0,0,0,yes,1366
undefined,undefined,undefined,undefined,white,no,Mozilla,Netscape,5.0 (Windows),xpyriment,legacy,legacy,0,uniform,0,0,0,0,24,24,24,0,0,74,74,74,74,74,0,74,0,1,1,1,1,1,0,1,01-02-22,01-02-22,10:57:57,Tue Mar 01 2022 10:57:57 GMT+0100 (közép-európai téli idő),The main experiment item,yes,0,0,C:/Users/rrics/Documents/!!ResearchBMECOGSCI/gnet,0,0,0,prototype2.png,no,mono,no,18,no,black,no,no,768,1161,3.5.6,legacy,xpyriment,osweb,1.3.13,0,space,space,space,space,26436,25006,19178,26436,2,legacy,1040,1920,24,1080,24,-8,-8,1920,1646128727693,1024,2,48000,-16,experiment,p2sarrshacol1.png,1,odd,Win32,66,136980,133976,66,66,645573,647075,640571,138501,640571,66,681104,682610,678116,647110,678116,visual_patterns,0,0,0,yes,1366
undefined,undefined,undefined,undefined,white,no,Mozilla,Netscape,5.0 (Windows),xpyriment,legacy,legacy,0,uniform,0,0,0,0,24,24,24,0,0,74,74,74,74,74,0,74,0,2,2,2,2,2,0,2,01-02-22,01-02-22,10:57:57,Tue Mar 01 2022 10:57:57 GMT+0100 (közép-európai téli idő),The main experiment item,yes,0,0,C:/Users/rrics/Documents/!!ResearchBMECOGSCI/gnet,0,0,0,prototype2.png,no,mono,no,18,no,black,no,no,768,1161,3.5.6,legacy,xpyriment,osweb,1.3.13,0,space,space,space,space,26436,25006,19178,26436,2,legacy,1040,1920,24,1080,24,-8,-8,1920,1646128727693,1024,2,48000,-16,experiment,p4sarr4.png,1,odd,Win32,66,136980,133976,66,66,645573,647075,640571,138501,640571,66,685634,687145,682654,647110,682654,visual_patterns,0,0,0,yes,1366
undefined,undefined,undefined,undefined,white,no,Mozilla,Netscape,5.0 (Windows),xpyriment,legacy,legacy,0,uniform,0,0,0,0,24,24,24,0,0,74,74,74,74,74,0,74,0,3,3,3,3,3,0,3,01-02-22,01-02-22,10:57:57,Tue Mar 01 2022 10:57:57 GMT+0100 (közép-európai téli idő),The main experiment item,yes,0,0,C:/Users/rrics/Documents/!!ResearchBMECOGSCI/gnet,0,0,0,prototype2.png,no,mono,no,18,no,black,no,no,768,1161,3.5.6,legacy,xpyriment,osweb,1.3.13,0,space,space,space,space,26436,25006,19178,26436,2,legacy,1040,1920,24,1080,24,-8,-8,1920,1646128727693,1024,2,48000,-16,experiment,p5sarrsha2.png,1,odd,Win32,66,136980,133976,66,66,645573,647075,640571,138501,640571,66,690157,691667,687175,647110,687175,visual_patterns,0,0,0,yes,1366
undefined,undefined,undefined,undefined,white,no,Mozilla,Netscape,5.0 (Windows),xpyriment,legacy,legacy,0,uniform,0,0,0,0,24,24,24,0,0,74,74,74,74,74,0,74,0,4,4,4,4,4,0,4,01-02-22,01-02-22,10:57:57,Tue Mar 01 2022 10:57:57 GMT+0100 (közép-európai téli idő),The main experiment item,yes,0,0,C:/Users/rrics/Documents/!!ResearchBMECOGSCI/gnet,0,0,0,prototype2.png,no,mono,no,18,no,black,no,no,768,1161,3.5.6,legacy,xpyriment,osweb,1.3.13,0,space,space,space,space,26436,25006,19178,26436,2,legacy,1040,1920,24,1080,24,-8,-8,1920,1646128727693,1024,2,48000,-16,experiment,p7sarr2.png,1,odd,Win32,66,136980,133976,66,66,645573,647075,640571,138501,640571,66,694683,696188,691699,647110,691698,visual_patterns,0,0,0,yes,1366
undefined,undefined,undefined,undefined,white,no,Mozilla,Netscape,5.0 (Windows),xpyriment,legacy,legacy,0,uniform,0,0,0,0,24,24,24,0,0,74,74,74,74,74,0,74,0,5,5,5,5,5,0,5,01-02-22,01-02-22,10:57:57,Tue Mar 01 2022 10:57:57 GMT+0100 (közép-európai téli idő),The main experiment item,yes,0,0,C:/Users/rrics/Documents/!!ResearchBMECOGSCI/gnet,0,0,0,prototype2.png,no,mono,no,18,no,black,no,no,768,1161,3.5.6,legacy,xpyriment,osweb,1.3.13,0,space,space,space,space,26436,25006,19178,26436,2,legacy,1040,1920,24,1080,24,-8,-8,1920,1646128727693,1024,2,48000,-16,experiment,p1sarrsha4.png,1,odd,Win32,66,136980,133976,66,66,645573,647075,640571,138501,640571,66,699198,700711,696219,647110,696218,visual_patterns,0,0,0,yes,1366
undefined,undefined,undefined,undefined,white,no,Mozilla,Netscape,5.0 (Windows),xpyriment,legacy,legacy,0,uniform,0,0,0,0,24,24,24,0,0,74,74,74,74,74,0,74,0,6,6,6,6,6,0,6,01-02-22,01-02-22,10:57:57,Tue Mar 01 2022 10:57:57 GMT+0100 (közép-európai téli idő),The main experiment item,yes,0,0,C:/Users/rrics/Documents/!!ResearchBMECOGSCI/gnet,0,0,0,prototype2.png,no,mono,no,18,no,black,no,no,768,1161,3.5.6,legacy,xpyriment,osweb,1.3.13,0,space,space,space,space,26436,25006,19178,26436,2,legacy,1040,1920,24,1080,24,-8,-8,1920,1646128727693,1024,2,48000,-16,experiment,p3sarrcol2.png,1,odd,Win32,66,136980,133976,66,66,645573,647075,640571,138501,640571,66,703744,705246,700743,647110,700743,visual_patterns,0,0,0,yes,1366
undefined,undefined,undefined,undefined,white,no,Mozilla,Netscape,5.0 (Windows),xpyriment,legacy,legacy,0,uniform,0,0,0,0,24,24,24,0,0,74,74,74,74,74,0,74,0,7,7,7,7,7,0,7,01-02-22,01-02-22,10:57:57,Tue Mar 01 2022 10:57:57 GMT+0100 (közép-európai téli idő),The main experiment item,yes,0,0,C:/Users/rrics/Documents/!!ResearchBMECOGSCI/gnet,0,0,0,prototype2.png,no,mono,no,18,no,black,no,no,768,1161,3.5.6,legacy,xpyriment,osweb,1.3.13,0,space,space,space,space,26436,25006,19178,26436,2,legacy,1040,1920,24,1080,24,-8,-8,1920,1646128727693,1024,2,48000,-16,experiment,p3sarrcol3.png,1,odd,Win32,66,136980,133976,66,66,645573,647075,640571,138501,640571,66,708266,709767,705292,647110,705292,visual_patterns,0,0,0,yes,1366
undefined,undefined,undefined,undefined,white,no,Mozilla,Netscape,5.0 (Windows),xpyriment,legacy,legacy,0,uniform,0,0,0,0,24,24,24,0,0,74,74,74,74,74,0,74,0,8,8,8,8,8,0,8,01-02-22,01-02-22,10:57:57,Tue Mar 01 2022 10:57:57 GMT+0100 (közép-európai téli idő),The main experiment item,yes,0,0,C:/Users/rrics/Documents/!!ResearchBMECOGSCI/gnet,0,0,0,prototype2.png,no,mono,no,18,no,black,no,no,768,1161,3.5.6,legacy,xpyriment,osweb,1.3.13,0,space,space,space,space,26436,25006,19178,26436,2,legacy,1040,1920,24,1080,24,-8,-8,1920,1646128727693,1024,2,48000,-16,experiment,p1sarrsha1.png,1,odd,Win32,66,136980,133976,66,66,645573,647075,640571,138501,640571,66,712793,714303,709799,647110,709799,visual_patterns,0,0,0,yes,1366
undefined,undefined,undefined,undefined,white,no,Mozilla,Netscape,5.0 (Windows),xpyriment,legacy,legacy,0,uniform,0,0,0,0,24,24,24,0,0,74,74,74,74,74,0,74,0,9,9,9,9,9,0,9,01-02-22,01-02-22,10:57:57,Tue Mar 01 2022 10:57:57 GMT+0100 (közép-európai téli idő),The main experiment item,yes,0,0,C:/Users/rrics/Documents/!!ResearchBMECOGSCI/gnet,0,0,0,prototype2.png,no,mono,no,18,no,black,no,no,768,1161,3.5.6,legacy,xpyriment,osweb,1.3.13,0,space,space,space,space,26436,25006,19178,26436,2,legacy,1040,1920,24,1080,24,-8,-8,1920,1646128727693,1024,2,48000,-16,experiment,p4sarr1.png,1,odd,Win32,66,136980,133976,66,66,645573,647075,640571,138501,640571,66,717316,718825,714332,647110,714332,visual_patterns,0,0,0,yes,1366
undefined,undefined,undefined,undefined,white,no,Mozilla,Netscape,5.0 (Windows),xpyriment,legacy,legacy,0,uniform,0,0,0,0,24,24,24,0,0,74,74,74,74,74,0,74,0,10,10,10,10,10,0,10,01-02-22,01-02-22,10:57:57,Tue Mar 01 2022 10:57:57 GMT+0100 (közép-európai téli idő),The main experiment item,yes,0,0,C:/Users/rrics/Documents/!!ResearchBMECOGSCI/gnet,0,0,0,prototype2.png,no,mono,no,18,no,black,no,no,768,1161,3.5.6,legacy,xpyriment,osweb,1.3.13,0,space,space,space,space,26436,25006,19178,26436,2,legacy,1040,1920,24,1080,24,-8,-8,1920,1646128727693,1024,2,48000,-16,experiment,p9sarr2.png,1,odd,Win32,66,136980,133976,66,66,645573,647075,640571,138501,640571,66,721853,723360,718861,647110,718861,visual_patterns,0,0,0,yes,1366
undefined,undefined,undefined,undefined,white,no,Mozilla,Netscape,5.0 (Windows),xpyriment,legacy,legacy,0,uniform,0,0,0,0,24,24,24,0,0,74,74,74,74,74,0,74,0,11,11,11,11,11,0,11,01-02-22,01-02-22,10:57:57,Tue Mar 01 2022 10:57:57 GMT+0100 (közép-európai téli idő),The main experiment item,yes,0,0,C:/Users/rrics/Documents/!!ResearchBMECOGSCI/gnet,0,0,0,prototype2.png,no,mono,no,18,no,black,no,no,768,1161,3.5.6,legacy,xpyriment,osweb,1.3.13,0,space,space,space,space,26436,25006,19178,26436,2,legacy,1040,1920,24,1080,24,-8,-8,1920,1646128727693,1024,2,48000,-16,experiment,p1sarr2.png,1,odd,Win32,66,136980,133976,66,66,645573,647075,640571,138501,640571,66,726384,727896,723383,647110,723383,visual_patterns,0,0,0,yes,1366
undefined,undefined,undefined,undefined,white,no,Mozilla,Netscape,5.0 (Windows),xpyriment,legacy,legacy,0,uniform,0,0,0,0,24,24,24,0,0,74,74,74,74,74,0,74,0,12,12,12,12,12,0,12,01-02-22,01-02-22,10:57:57,Tue Mar 01 2022 10:57:57 GMT+0100 (közép-európai téli idő),The main experiment item,yes,0,0,C:/Users/rrics/Documents/!!ResearchBMECOGSCI/gnet,0,0,0,prototype2.png,no,mono,no,18,no,black,no,no,768,1161,3.5.6,legacy,xpyriment,osweb,1.3.13,0,space,space,space,space,26436,25006,19178,26436,2,legacy,1040,1920,24,1080,24,-8,-8,1920,1646128727693,1024,2,48000,-16,experiment,p3sarrcol4.png,1,odd,Win32,66,136980,133976,66,66,645573,647075,640571,138501,640571,66,730910,732417,727931,647110,727931,visual_patterns,0,0,0,yes,1366
undefined,undefined,undefined,undefined,white,no,Mozilla,Netscape,5.0 (Windows),xpyriment,legacy,legacy,0,uniform,0,0,0,0,24,24,24,0,0,74,74,74,74,74,0,74,0,13,13,13,13,13,0,13,01-02-22,01-02-22,10:57:57,Tue Mar 01 2022 10:57:57 GMT+0100 (közép-európai téli idő),The main experiment item,yes,0,0,C:/Users/rrics/Documents/!!ResearchBMECOGSCI/gnet,0,0,0,prototype2.png,no,mono,no,18,no,black,no,no,768,1161,3.5.6,legacy,xpyriment,osweb,1.3.13,0,space,space,space,space,26436,25006,19178,26436,2,legacy,1040,1920,24,1080,24,-8,-8,1920,1646128727693,1024,2,48000,-16,experiment,p2sarrshacol2.png,1,odd,Win32,66,136980,133976,66,66,645573,647075,640571,138501,640571,66,735429,736940,732437,647110,732437,visual_patterns,0,0,0,yes,1366
undefined,undefined,undefined,undefined,white,no,Mozilla,Netscape,5.0 (Windows),xpyriment,legacy,legacy,0,uniform,0,0,0,0,24,24,24,0,0,74,74,74,74,74,0,74,0,14,14,14,14,14,0,14,01-02-22,01-02-22,10:57:57,Tue Mar 01 2022 10:57:57 GMT+0100 (közép-európai téli idő),The main experiment item,yes,0,0,C:/Users/rrics/Documents/!!ResearchBMECOGSCI/gnet,0,0,0,prototype2.png,no,mono,no,18,no,black,no,no,768,1161,3.5.6,legacy,xpyriment,osweb,1.3.13,0,space,space,space,space,26436,25006,19178,26436,2,legacy,1040,1920,24,1080,24,-8,-8,1920,1646128727693,1024,2,48000,-16,experiment,p6sarr1.png,1,odd,Win32,66,136980,133976,66,66,645573,647075,640571,138501,640571,66,739961,741475,736970,647110,736969,visual_patterns,0,0,0,yes,1366
undefined,undefined,undefined,undefined,white,no,Mozilla,Netscape,5.0 (Windows),xpyriment,legacy,legacy,0,uniform,0,0,0,0,24,24,24,0,0,74,74,74,74,74,0,74,0,15,15,15,15,15,0,15,01-02-22,01-02-22,10:57:57,Tue Mar 01 2022 10:57:57 GMT+0100 (közép-európai téli idő),The main experiment item,yes,0,0,C:/Users/rrics/Documents/!!ResearchBMECOGSCI/gnet,0,0,0,prototype2.png,no,mono,no,18,no,black,no,no,768,1161,3.5.6,legacy,xpyriment,osweb,1.3.13,0,space,space,space,space,26436,25006,19178,26436,2,legacy,1040,1920,24,1080,24,-8,-8,1920,1646128727693,1024,2,48000,-16,experiment,p4sarrshacol3.png,1,odd,Win32,66,136980,133976,66,66,645573,647075,640571,138501,640571,66,744510,746023,741516,647110,741516,visual_patterns,0,0,0,yes,1366
undefined,undefined,undefined,undefined,white,no,Mozilla,Netscape,5.0 (Windows),xpyriment,legacy,legacy,0,uniform,0,0,0,0,24,24,24,0,0,74,74,74,74,74,0,74,0,16,16,16,16,16,0,16,01-02-22,01-02-22,10:57:57,Tue Mar 01 2022 10:57:57 GMT+0100 (közép-európai téli idő),The main experiment item,yes,0,0,C:/Users/rrics/Documents/!!ResearchBMECOGSCI/gnet,0,0,0,prototype2.png,no,mono,no,18,no,black,no,no,768,1161,3.5.6,legacy,xpyriment,osweb,1.3.13,0,space,space,space,space,26436,25006,19178,26436,2,legacy,1040,1920,24,1080,24,-8,-8,1920,1646128727693,1024,2,48000,-16,experiment,p4sarrshacol4.png,1,odd,Win32,66,136980,133976,66,66,645573,647075,640571,138501,640571,66,749056,750558,746067,647110,746067,visual_patterns,0,0,0,yes,1366
undefined,undefined,undefined,undefined,white,no,Mozilla,Netscape,5.0 (Windows),xpyriment,legacy,legacy,0,uniform,0,0,0,0,24,24,24,0,0,74,74,74,74,74,0,74,0,17,17,17,17,17,0,17,01-02-22,01-02-22,10:57:57,Tue Mar 01 2022 10:57:57 GMT+0100 (közép-európai téli idő),The main experiment item,yes,0,0,C:/Users/rrics/Documents/!!ResearchBMECOGSCI/gnet,0,0,0,prototype2.png,no,mono,no,18,no,black,no,no,768,1161,3.5.6,legacy,xpyriment,osweb,1.3.13,0,space,space,space,space,26436,25006,19178,26436,2,legacy,1040,1920,24,1080,24,-8,-8,1920,1646128727693,1024,2,48000,-16,experiment,p2sarrcol1.png,1,odd,Win32,66,136980,133976,66,66,645573,647075,640571,138501,640571,66,753587,755093,750594,647110,750594,visual_patterns,0,0,0,yes,1366
undefined,undefined,undefined,undefined,white,no,Mozilla,Netscape,5.0 (Windows),xpyriment,legacy,legacy,0,uniform,0,0,0,0,24,24,24,0,0,74,74,74,74,74,0,74,0,18,18,18,18,18,0,18,01-02-22,01-02-22,10:57:57,Tue Mar 01 2022 10:57:57 GMT+0100 (közép-európai téli idő),The main experiment item,yes,0,0,C:/Users/rrics/Documents/!!ResearchBMECOGSCI/gnet,0,0,0,prototype2.png,no,mono,no,18,no,black,no,no,768,1161,3.5.6,legacy,xpyriment,osweb,1.3.13,0,space,space,space,space,26436,25006,19178,26436,2,legacy,1040,1920,24,1080,24,-8,-8,1920,1646128727693,1024,2,48000,-16,experiment,p1sarr4.png,1,odd,Win32,66,136980,133976,66,66,645573,647075,640571,138501,640571,66,758113,759615,755123,647110,755123,visual_patterns,0,0,0,yes,1366
undefined,undefined,undefined,undefined,white,no,Mozilla,Netscape,5.0 (Windows),xpyriment,legacy,legacy,0,uniform,0,0,0,0,24,24,24,0,0,74,74,74,74,74,0,74,0,19,19,19,19,19,0,19,01-02-22,01-02-22,10:57:57,Tue Mar 01 2022 10:57:57 GMT+0100 (közép-európai téli idő),The main experiment item,yes,0,0,C:/Users/rrics/Documents/!!ResearchBMECOGSCI/gnet,0,0,0,prototype2.png,no,mono,no,18,no,black,no,no,768,1161,3.5.6,legacy,xpyriment,osweb,1.3.13,0,space,space,space,space,26436,25006,19178,26436,2,legacy,1040,1920,24,1080,24,-8,-8,1920,1646128727693,1024,2,48000,-16,experiment,p10sarr1.png,1,odd,Win32,66,136980,133976,66,66,645573,647075,640571,138501,640571,66,762641,764151,759659,647110,759659,visual_patterns,0,0,0,yes,1366
undefined,undefined,undefined,undefined,white,no,Mozilla,Netscape,5.0 (Windows),xpyriment,legacy,legacy,0,uniform,0,0,0,0,24,24,24,0,0,74,74,74,74,74,0,74,0,20,20,20,20,20,0,20,01-02-22,01-02-22,10:57:57,Tue Mar 01 2022 10:57:57 GMT+0100 (közép-európai téli idő),The main experiment item,yes,0,0,C:/Users/rrics/Documents/!!ResearchBMECOGSCI/gnet,0,0,0,prototype2.png,no,mono,no,18,no,black,no,no,768,1161,3.5.6,legacy,xpyriment,osweb,1.3.13,0,space,space,space,space,26436,25006,19178,26436,2,legacy,1040,1920,24,1080,24,-8,-8,1920,1646128727693,1024,2,48000,-16,experiment,p8sarr3.png,1,odd,Win32,66,136980,133976,66,66,645573,647075,640571,138501,640571,66,767168,768672,764193,647110,764193,visual_patterns,0,0,0,yes,1366
undefined,undefined,undefined,undefined,white,no,Mozilla,Netscape,5.0 (Windows),xpyriment,legacy,legacy,0,uniform,0,0,0,0,24,24,24,0,0,74,74,74,74,74,0,74,0,21,21,21,21,21,0,21,01-02-22,01-02-22,10:57:57,Tue Mar 01 2022 10:57:57 GMT+0100 (közép-európai téli idő),The main experiment item,yes,0,0,C:/Users/rrics/Documents/!!ResearchBMECOGSCI/gnet,0,0,0,prototype2.png,no,mono,no,18,no,black,no,no,768,1161,3.5.6,legacy,xpyriment,osweb,1.3.13,0,space,space,space,space,26436,25006,19178,26436,2,legacy,1040,1920,24,1080,24,-8,-8,1920,1646128727693,1024,2,48000,-16,experiment,p9sarr4.png,1,odd,Win32,66,136980,133976,66,66,645573,647075,640571,138501,640571,66,771687,773195,768697,647110,768697,visual_patterns,0,0,0,yes,1366
undefined,undefined,undefined,undefined,white,no,Mozilla,Netscape,5.0 (Windows),xpyriment,legacy,legacy,0,uniform,0,0,0,0,24,24,24,0,0,74,74,74,74,74,0,74,0,22,22,22,22,22,0,22,01-02-22,01-02-22,10:57:57,Tue Mar 01 2022 10:57:57 GMT+0100 (közép-európai téli idő),The main experiment item,yes,0,0,C:/Users/rrics/Documents/!!ResearchBMECOGSCI/gnet,0,0,0,prototype2.png,no,mono,no,18,no,black,no,no,768,1161,3.5.6,legacy,xpyriment,osweb,1.3.13,0,space,space,space,space,26436,25006,19178,26436,2,legacy,1040,1920,24,1080,24,-8,-8,1920,1646128727693,1024,2,48000,-16,experiment,p5sarrcol2.png,1,odd,Win32,66,136980,133976,66,66,645573,647075,640571,138501,640571,66,776222,777729,773245,647110,773244,visual_patterns,0,0,0,yes,1366
undefined,undefined,undefined,undefined,white,no,Mozilla,Netscape,5.0 (Windows),xpyriment,legacy,legacy,0,uniform,0,0,0,0,24,24,24,0,0,74,74,74,74,74,0,74,0,23,23,23,23,23,0,23,01-02-22,01-02-22,10:57:57,Tue Mar 01 2022 10:57:57 GMT+0100 (közép-európai téli idő),The main experiment item,yes,0,0,C:/Users/rrics/Documents/!!ResearchBMECOGSCI/gnet,0,0,0,prototype2.png,no,mono,no,18,no,black,no,no,768,1161,3.5.6,legacy,xpyriment,osweb,1.3.13,0,space,space,space,space,26436,25006,19178,26436,2,legacy,1040,1920,24,1080,24,-8,-8,1920,1646128727693,1024,2,48000,-16,experiment,p7sarr4.png,1,odd,Win32,66,136980,133976,66,66,645573,647075,640571,138501,640571,66,780746,782252,777768,647110,777768,visual_patterns,0,0,0,yes,1366
undefined,undefined,undefined,undefined,white,no,Mozilla,Netscape,5.0 (Windows),xpyriment,legacy,legacy,0,uniform,0,0,0,0,24,24,24,0,0,74,74,74,74,74,0,74,0,24,24,24,24,24,0,24,01-02-22,01-02-22,10:57:57,Tue Mar 01 2022 10:57:57 GMT+0100 (közép-európai téli idő),The main experiment item,yes,0,0,C:/Users/rrics/Documents/!!ResearchBMECOGSCI/gnet,0,0,0,prototype2.png,no,mono,no,18,no,black,no,no,768,1161,3.5.6,legacy,xpyriment,osweb,1.3.13,0,space,space,space,space,26436,25006,19178,26436,2,legacy,1040,1920,24,1080,24,-8,-8,1920,1646128727693,1024,2,48000,-16,experiment,p3sarrsha3.png,1,odd,Win32,66,136980,133976,66,66,645573,647075,640571,138501,640571,66,785265,786774,782274,647110,782274,visual_patterns,0,0,0,yes,1366
undefined,undefined,undefined,undefined,white,no,Mozilla,Netscape,5.0 (Windows),xpyriment,legacy,legacy,0,uniform,0,0,0,0,24,24,24,0,0,74,74,74,74,74,0,74,0,25,25,25,25,25,0,25,01-02-22,01-02-22,10:57:57,Tue Mar 01 2022 10:57:57 GMT+0100 (közép-európai téli idő),The main experiment item,yes,0,0,C:/Users/rrics/Documents/!!ResearchBMECOGSCI/gnet,0,0,0,prototype2.png,no,mono,no,18,no,black,no,no,768,1161,3.5.6,legacy,xpyriment,osweb,1.3.13,0,space,space,space,space,26436,25006,19178,26436,2,legacy,1040,1920,24,1080,24,-8,-8,1920,1646128727693,1024,2,48000,-16,experiment,p8sarr4.png,1,odd,Win32,66,136980,133976,66,66,645573,647075,640571,138501,640571,66,789809,791323,786827,647110,786827,visual_patterns,0,0,0,yes,1366
undefined,undefined,undefined,undefined,white,no,Mozilla,Netscape,5.0 (Windows),xpyriment,legacy,legacy,0,uniform,0,0,0,0,24,24,24,0,0,74,74,74,74,74,0,74,0,26,26,26,26,26,0,26,01-02-22,01-02-22,10:57:57,Tue Mar 01 2022 10:57:57 GMT+0100 (közép-európai téli idő),The main experiment item,yes,0,0,C:/Users/rrics/Documents/!!ResearchBMECOGSCI/gnet,0,0,0,prototype2.png,no,mono,no,18,no,black,no,no,768,1161,3.5.6,legacy,xpyriment,osweb,1.3.13,0,space,space,space,space,26436,25006,19178,26436,2,legacy,1040,1920,24,1080,24,-8,-8,1920,1646128727693,1024,2,48000,-16,experiment,p2sarrshacol4.png,1,odd,Win32,66,136980,133976,66,66,645573,647075,640571,138501,640571,66,794333,795844,791344,647110,791344,visual_patterns,0,0,0,yes,1366
undefined,undefined,undefined,undefined,white,no,Mozilla,Netscape,5.0 (Windows),xpyriment,legacy,legacy,0,uniform,0,0,0,0,24,24,24,0,0,74,74,74,74,74,0,74,0,27,27,27,27,27,0,27,01-02-22,01-02-22,10:57:57,Tue Mar 01 2022 10:57:57 GMT+0100 (közép-európai téli idő),The main experiment item,yes,0,0,C:/Users/rrics/Documents/!!ResearchBMECOGSCI/gnet,0,0,0,prototype2.png,no,mono,no,18,no,black,no,no,768,1161,3.5.6,legacy,xpyriment,osweb,1.3.13,0,space,space,space,space,26436,25006,19178,26436,2,legacy,1040,1920,24,1080,24,-8,-8,1920,1646128727693,1024,2,48000,-16,experiment,p4sarrshacol1.png,1,odd,Win32,66,136980,133976,66,66,645573,647075,640571,138501,640571,66,798869,800380,795868,647110,795868,visual_patterns,0,0,0,yes,1366
undefined,undefined,undefined,undefined,white,no,Mozilla,Netscape,5.0 (Windows),xpyriment,legacy,legacy,0,uniform,0,0,0,0,24,24,24,0,0,74,74,74,74,74,0,74,0,28,28,28,28,28,0,28,01-02-22,01-02-22,10:57:57,Tue Mar 01 2022 10:57:57 GMT+0100 (közép-európai téli idő),The main experiment item,yes,0,0,C:/Users/rrics/Documents/!!ResearchBMECOGSCI/gnet,0,0,0,prototype2.png,no,mono,no,18,no,black,no,no,768,1161,3.5.6,legacy,xpyriment,osweb,1.3.13,0,space,space,space,space,26436,25006,19178,26436,2,legacy,1040,1920,24,1080,24,-8,-8,1920,1646128727693,1024,2,48000,-16,experiment,p1sarrshacol3.png,1,odd,Win32,66,136980,133976,66,66,645573,647075,640571,138501,640571,66,803413,804915,800430,647110,800430,visual_patterns,0,0,0,yes,1366
undefined,undefined,undefined,undefined,white,no,Mozilla,Netscape,5.0 (Windows),xpyriment,legacy,legacy,0,uniform,0,0,0,0,24,24,24,0,0,74,74,74,74,74,0,74,0,29,29,29,29,29,0,29,01-02-22,01-02-22,10:57:57,Tue Mar 01 2022 10:57:57 GMT+0100 (közép-európai téli idő),The main experiment item,yes,0,0,C:/Users/rrics/Documents/!!ResearchBMECOGSCI/gnet,0,0,0,prototype2.png,no,mono,no,18,no,black,no,no,768,1161,3.5.6,legacy,xpyriment,osweb,1.3.13,0,space,space,space,space,26436,25006,19178,26436,2,legacy,1040,1920,24,1080,24,-8,-8,1920,1646128727693,1024,2,48000,-16,experiment,p2sarrsha1.png,1,odd,Win32,66,136980,133976,66,66,645573,647075,640571,138501,640571,66,807935,809437,804939,647110,804939,visual_patterns,0,0,0,yes,1366
undefined,undefined,undefined,undefined,white,no,Mozilla,Netscape,5.0 (Windows),xpyriment,legacy,legacy,0,uniform,0,0,0,0,24,24,24,0,0,74,74,74,74,74,0,74,0,30,30,30,30,30,0,30,01-02-22,01-02-22,10:57:57,Tue Mar 01 2022 10:57:57 GMT+0100 (közép-európai téli idő),The main experiment item,yes,0,0,C:/Users/rrics/Documents/!!ResearchBMECOGSCI/gnet,0,0,0,prototype2.png,no,mono,no,18,no,black,no,no,768,1161,3.5.6,legacy,xpyriment,osweb,1.3.13,0,space,space,space,space,26436,25006,19178,26436,2,legacy,1040,1920,24,1080,24,-8,-8,1920,1646128727693,1024,2,48000,-16,experiment,p3sarr2.png,1,odd,Win32,66,136980,133976,66,66,645573,647075,640571,138501,640571,66,812461,813971,809470,647110,809470,visual_patterns,0,0,0,yes,1366
undefined,undefined,undefined,undefined,white,no,Mozilla,Netscape,5.0 (Windows),xpyriment,legacy,legacy,0,uniform,0,0,0,0,24,24,24,0,0,74,74,74,74,74,0,74,0,31,31,31,31,31,0,31,01-02-22,01-02-22,10:57:57,Tue Mar 01 2022 10:57:57 GMT+0100 (közép-európai téli idő),The main experiment item,yes,0,0,C:/Users/rrics/Documents/!!ResearchBMECOGSCI/gnet,0,0,0,prototype2.png,no,mono,no,18,no,black,no,no,768,1161,3.5.6,legacy,xpyriment,osweb,1.3.13,0,space,space,space,space,26436,25006,19178,26436,2,legacy,1040,1920,24,1080,24,-8,-8,1920,1646128727693,1024,2,48000,-16,experiment,p3sarrshacol3.png,1,odd,Win32,66,136980,133976,66,66,645573,647075,640571,138501,640571,66,816995,818507,813992,647110,813992,visual_patterns,0,0,0,yes,1366
undefined,undefined,undefined,undefined,white,no,Mozilla,Netscape,5.0 (Windows),xpyriment,legacy,legacy,0,uniform,0,0,0,0,24,24,24,0,0,74,74,74,74,74,0,74,0,32,32,32,32,32,0,32,01-02-22,01-02-22,10:57:57,Tue Mar 01 2022 10:57:57 GMT+0100 (közép-európai téli idő),The main experiment item,yes,0,0,C:/Users/rrics/Documents/!!ResearchBMECOGSCI/gnet,0,0,0,prototype2.png,no,mono,no,18,no,black,no,no,768,1161,3.5.6,legacy,xpyriment,osweb,1.3.13,0,space,space,space,space,26436,25006,19178,26436,2,legacy,1040,1920,24,1080,24,-8,-8,1920,1646128727693,1024,2,48000,-16,experiment,p2sarrcol4.png,1,odd,Win32,66,136980,133976,66,66,645573,647075,640571,138501,640571,66,821524,823028,818538,647110,818538,visual_patterns,0,0,0,yes,1366
undefined,undefined,undefined,undefined,white,no,Mozilla,Netscape,5.0 (Windows),xpyriment,legacy,legacy,0,uniform,0,0,0,0,24,24,24,0,0,74,74,74,74,74,0,74,0,33,33,33,33,33,0,33,01-02-22,01-02-22,10:57:57,Tue Mar 01 2022 10:57:57 GMT+0100 (közép-európai téli idő),The main experiment item,yes,0,0,C:/Users/rrics/Documents/!!ResearchBMECOGSCI/gnet,0,0,0,prototype2.png,no,mono,no,18,no,black,no,no,768,1161,3.5.6,legacy,xpyriment,osweb,1.3.13,0,space,space,space,space,26436,25006,19178,26436,2,legacy,1040,1920,24,1080,24,-8,-8,1920,1646128727693,1024,2,48000,-16,experiment,p5sarrcol1.png,1,odd,Win32,66,136980,133976,66,66,645573,647075,640571,138501,640571,66,826050,827564,823049,647110,823049,visual_patterns,0,0,0,yes,1366
undefined,undefined,undefined,undefined,white,no,Mozilla,Netscape,5.0 (Windows),xpyriment,legacy,legacy,0,uniform,0,0,0,0,24,24,24,0,0,74,74,74,74,74,0,74,0,34,34,34,34,34,0,34,01-02-22,01-02-22,10:57:57,Tue Mar 01 2022 10:57:57 GMT+0100 (közép-európai téli idő),The main experiment item,yes,0,0,C:/Users/rrics/Documents/!!ResearchBMECOGSCI/gnet,0,0,0,prototype2.png,no,mono,no,18,no,black,no,no,768,1161,3.5.6,legacy,xpyriment,osweb,1.3.13,0,space,space,space,space,26436,25006,19178,26436,2,legacy,1040,1920,24,1080,24,-8,-8,1920,1646128727693,1024,2,48000,-16,experiment,p8sarr2.png,1,odd,Win32,66,136980,133976,66,66,645573,647075,640571,138501,640571,66,830578,832086,827585,647110,827585,visual_patterns,0,0,0,yes,1366
undefined,undefined,undefined,undefined,white,no,Mozilla,Netscape,5.0 (Windows),xpyriment,legacy,legacy,0,uniform,0,0,0,0,24,24,24,0,0,74,74,74,74,74,0,74,0,35,35,35,35,35,0,35,01-02-22,01-02-22,10:57:57,Tue Mar 01 2022 10:57:57 GMT+0100 (közép-európai téli idő),The main experiment item,yes,0,0,C:/Users/rrics/Documents/!!ResearchBMECOGSCI/gnet,0,0,0,prototype2.png,no,mono,no,18,no,black,no,no,768,1161,3.5.6,legacy,xpyriment,osweb,1.3.13,0,space,space,space,space,26436,25006,19178,26436,2,legacy,1040,1920,24,1080,24,-8,-8,1920,1646128727693,1024,2,48000,-16,experiment,p5sarr3.png,1,odd,Win32,66,136980,133976,66,66,645573,647075,640571,138501,640571,66,835117,836621,832131,647110,832131,visual_patterns,0,0,0,yes,1366
undefined,undefined,undefined,undefined,white,no,Mozilla,Netscape,5.0 (Windows),xpyriment,legacy,legacy,0,uniform,0,0,0,0,24,24,24,0,0,74,74,74,74,74,0,74,0,36,36,36,36,36,0,36,01-02-22,01-02-22,10:57:57,Tue Mar 01 2022 10:57:57 GMT+0100 (közép-európai téli idő),The main experiment item,yes,0,0,C:/Users/rrics/Documents/!!ResearchBMECOGSCI/gnet,0,0,0,prototype2.png,no,mono,no,18,no,black,no,no,768,1161,3.5.6,legacy,xpyriment,osweb,1.3.13,0,space,space,space,space,26436,25006,19178,26436,2,legacy,1040,1920,24,1080,24,-8,-8,1920,1646128727693,1024,2,48000,-16,experiment,p7sarr1.png,1,odd,Win32,66,136980,133976,66,66,645573,647075,640571,138501,640571,66,839639,841143,836650,647110,836650,visual_patterns,0,0,0,yes,1366
undefined,undefined,undefined,undefined,white,no,Mozilla,Netscape,5.0 (Windows),xpyriment,legacy,legacy,0,uniform,0,0,0,0,24,24,24,0,0,74,74,74,74,74,0,74,0,37,37,37,37,37,0,37,01-02-22,01-02-22,10:57:57,Tue Mar 01 2022 10:57:57 GMT+0100 (közép-európai téli idő),The main experiment item,yes,0,0,C:/Users/rrics/Documents/!!ResearchBMECOGSCI/gnet,0,0,0,prototype2.png,no,mono,no,18,no,black,no,no,768,1161,3.5.6,legacy,xpyriment,osweb,1.3.13,0,space,space,space,space,26436,25006,19178,26436,2,legacy,1040,1920,24,1080,24,-8,-8,1920,1646128727693,1024,2,48000,-16,experiment,p1sarrcol4.png,1,odd,Win32,66,136980,133976,66,66,645573,647075,640571,138501,640571,66,844158,845665,841179,647110,841179,visual_patterns,0,0,0,yes,1366
undefined,undefined,undefined,undefined,white,no,Mozilla,Netscape,5.0 (Windows),xpyriment,legacy,legacy,0,uniform,0,0,0,0,24,24,24,0,0,74,74,74,74,74,0,74,0,38,38,38,38,38,0,38,01-02-22,01-02-22,10:57:57,Tue Mar 01 2022 10:57:57 GMT+0100 (közép-európai téli idő),The main experiment item,yes,0,0,C:/Users/rrics/Documents/!!ResearchBMECOGSCI/gnet,0,0,0,prototype2.png,no,mono,no,18,no,black,no,no,768,1161,3.5.6,legacy,xpyriment,osweb,1.3.13,0,space,space,space,space,26436,25006,19178,26436,2,legacy,1040,1920,24,1080,24,-8,-8,1920,1646128727693,1024,2,48000,-16,experiment,p3sarrsha4.png,1,odd,Win32,66,136980,133976,66,66,645573,647075,640571,138501,640571,66,848679,850187,845693,647110,845693,visual_patterns,0,0,0,yes,1366
undefined,undefined,undefined,undefined,white,no,Mozilla,Netscape,5.0 (Windows),xpyriment,legacy,legacy,0,uniform,0,0,0,0,24,24,24,0,0,74,74,74,74,74,0,74,0,39,39,39,39,39,0,39,01-02-22,01-02-22,10:57:57,Tue Mar 01 2022 10:57:57 GMT+0100 (közép-európai téli idő),The main experiment item,yes,0,0,C:/Users/rrics/Documents/!!ResearchBMECOGSCI/gnet,0,0,0,prototype2.png,no,mono,no,18,no,black,no,no,768,1161,3.5.6,legacy,xpyriment,osweb,1.3.13,0,space,space,space,space,26436,25006,19178,26436,2,legacy,1040,1920,24,1080,24,-8,-8,1920,1646128727693,1024,2,48000,-16,experiment,p3sarr1.png,1,odd,Win32,66,136980,133976,66,66,645573,647075,640571,138501,640571,66,853210,854723,850225,647110,850225,visual_patterns,0,0,0,yes,1366
undefined,undefined,undefined,undefined,white,no,Mozilla,Netscape,5.0 (Windows),xpyriment,legacy,legacy,0,uniform,0,0,0,0,24,24,24,0,0,74,74,74,74,74,0,74,0,40,40,40,40,40,0,40,01-02-22,01-02-22,10:57:57,Tue Mar 01 2022 10:57:57 GMT+0100 (közép-európai téli idő),The main experiment item,yes,0,0,C:/Users/rrics/Documents/!!ResearchBMECOGSCI/gnet,0,0,0,prototype2.png,no,mono,no,18,no,black,no,no,768,1161,3.5.6,legacy,xpyriment,osweb,1.3.13,0,space,space,space,space,26436,25006,19178,26436,2,legacy,1040,1920,24,1080,24,-8,-8,1920,1646128727693,1024,2,48000,-16,experiment,p2sarrsha3.png,1,odd,Win32,66,136980,133976,66,66,645573,647075,640571,138501,640571,66,857741,859244,854749,647110,854749,visual_patterns,0,0,0,yes,1366
undefined,undefined,undefined,undefined,white,no,Mozilla,Netscape,5.0 (Windows),xpyriment,legacy,legacy,0,uniform,0,0,0,0,24,24,24,0,0,74,74,74,74,74,0,74,0,41,41,41,41,41,0,41,01-02-22,01-02-22,10:57:57,Tue Mar 01 2022 10:57:57 GMT+0100 (közép-európai téli idő),The main experiment item,yes,0,0,C:/Users/rrics/Documents/!!ResearchBMECOGSCI/gnet,0,0,0,prototype2.png,no,mono,no,18,no,black,no,no,768,1161,3.5.6,legacy,xpyriment,osweb,1.3.13,0,space,space,space,space,26436,25006,19178,26436,2,legacy,1040,1920,24,1080,24,-8,-8,1920,1646128727693,1024,2,48000,-16,experiment,p9sarr3.png,1,odd,Win32,66,136980,133976,66,66,645573,647075,640571,138501,640571,66,862260,863767,859265,647110,859265,visual_patterns,0,0,0,yes,1366
undefined,undefined,undefined,undefined,white,no,Mozilla,Netscape,5.0 (Windows),xpyriment,legacy,legacy,0,uniform,0,0,0,0,24,24,24,0,0,74,74,74,74,74,0,74,0,42,42,42,42,42,0,42,01-02-22,01-02-22,10:57:57,Tue Mar 01 2022 10:57:57 GMT+0100 (közép-európai téli idő),The main experiment item,yes,0,0,C:/Users/rrics/Documents/!!ResearchBMECOGSCI/gnet,0,0,0,prototype2.png,no,mono,no,18,no,black,no,no,768,1161,3.5.6,legacy,xpyriment,osweb,1.3.13,0,space,space,space,space,26436,25006,19178,26436,2,legacy,1040,1920,24,1080,24,-8,-8,1920,1646128727693,1024,2,48000,-16,experiment,p10sarr4.png,1,odd,Win32,66,136980,133976,66,66,645573,647075,640571,138501,640571,66,866781,868289,863788,647110,863788,visual_patterns,0,0,0,yes,1366
undefined,undefined,undefined,undefined,white,no,Mozilla,Netscape,5.0 (Windows),xpyriment,legacy,legacy,0,uniform,0,0,0,0,24,24,24,0,0,74,74,74,74,74,0,74,0,43,43,43,43,43,0,43,01-02-22,01-02-22,10:57:57,Tue Mar 01 2022 10:57:57 GMT+0100 (közép-európai téli idő),The main experiment item,yes,0,0,C:/Users/rrics/Documents/!!ResearchBMECOGSCI/gnet,0,0,0,prototype2.png,no,mono,no,18,no,black,no,no,768,1161,3.5.6,legacy,xpyriment,osweb,1.3.13,0,space,space,space,space,26436,25006,19178,26436,2,legacy,1040,1920,24,1080,24,-8,-8,1920,1646128727693,1024,2,48000,-16,experiment,p4sarrcol1.png,1,odd,Win32,66,136980,133976,66,66,645573,647075,640571,138501,640571,66,871310,872823,868324,647110,868324,visual_patterns,0,0,0,yes,1366
undefined,undefined,undefined,undefined,white,no,Mozilla,Netscape,5.0 (Windows),xpyriment,legacy,legacy,0,uniform,0,0,0,0,24,24,24,0,0,74,74,74,74,74,0,74,0,44,44,44,44,44,0,44,01-02-22,01-02-22,10:57:57,Tue Mar 01 2022 10:57:57 GMT+0100 (közép-európai téli idő),The main experiment item,yes,0,0,C:/Users/rrics/Documents/!!ResearchBMECOGSCI/gnet,0,0,0,prototype2.png,no,mono,no,18,no,black,no,no,768,1161,3.5.6,legacy,xpyriment,osweb,1.3.13,0,space,space,space,space,26436,25006,19178,26436,2,legacy,1040,1920,24,1080,24,-8,-8,1920,1646128727693,1024,2,48000,-16,experiment,p5sarrshacol4.png,1,odd,Win32,66,136980,133976,66,66,645573,647075,640571,138501,640571,66,875841,877345,872851,647110,872851,visual_patterns,0,0,0,yes,1366
undefined,undefined,undefined,undefined,white,no,Mozilla,Netscape,5.0 (Windows),xpyriment,legacy,legacy,0,uniform,0,0,0,0,24,24,24,0,0,74,74,74,74,74,0,74,0,45,45,45,45,45,0,45,01-02-22,01-02-22,10:57:57,Tue Mar 01 2022 10:57:57 GMT+0100 (közép-európai téli idő),The main experiment item,yes,0,0,C:/Users/rrics/Documents/!!ResearchBMECOGSCI/gnet,0,0,0,prototype2.png,no,mono,no,18,no,black,no,no,768,1161,3.5.6,legacy,xpyriment,osweb,1.3.13,0,space,space,space,space,26436,25006,19178,26436,2,legacy,1040,1920,24,1080,24,-8,-8,1920,1646128727693,1024,2,48000,-16,experiment,p3sarr3.png,1,odd,Win32,66,136980,133976,66,66,645573,647075,640571,138501,640571,66,880371,881881,877402,647110,877402,visual_patterns,0,0,0,yes,1366
undefined,undefined,undefined,undefined,white,no,Mozilla,Netscape,5.0 (Windows),xpyriment,legacy,legacy,0,uniform,0,0,0,0,24,24,24,0,0,74,74,74,74,74,0,74,0,46,46,46,46,46,0,46,01-02-22,01-02-22,10:57:57,Tue Mar 01 2022 10:57:57 GMT+0100 (közép-európai téli idő),The main experiment item,yes,0,0,C:/Users/rrics/Documents/!!ResearchBMECOGSCI/gnet,0,0,0,prototype2.png,no,mono,no,18,no,black,no,no,768,1161,3.5.6,legacy,xpyriment,osweb,1.3.13,0,space,space,space,space,26436,25006,19178,26436,2,legacy,1040,1920,24,1080,24,-8,-8,1920,1646128727693,1024,2,48000,-16,experiment,p2sarr3.png,1,odd,Win32,66,136980,133976,66,66,645573,647075,640571,138501,640571,66,884912,886416,881932,647110,881932,visual_patterns,0,0,0,yes,1366
undefined,undefined,undefined,undefined,white,no,Mozilla,Netscape,5.0 (Windows),xpyriment,legacy,legacy,0,uniform,0,0,0,0,24,24,24,0,0,74,74,74,74,74,0,74,0,47,47,47,47,47,0,47,01-02-22,01-02-22,10:57:57,Tue Mar 01 2022 10:57:57 GMT+0100 (közép-európai téli idő),The main experiment item,yes,0,0,C:/Users/rrics/Documents/!!ResearchBMECOGSCI/gnet,0,0,0,prototype2.png,no,mono,no,18,no,black,no,no,768,1161,3.5.6,legacy,xpyriment,osweb,1.3.13,0,space,space,space,space,26436,25006,19178,26436,2,legacy,1040,1920,24,1080,24,-8,-8,1920,1646128727693,1024,2,48000,-16,experiment,p4sarr2.png,1,odd,Win32,66,136980,133976,66,66,645573,647075,640571,138501,640571,66,889432,890938,886444,647110,886444,visual_patterns,0,0,0,yes,1366
undefined,undefined,undefined,undefined,white,no,Mozilla,Netscape,5.0 (Windows),xpyriment,legacy,legacy,0,uniform,0,0,0,0,24,24,24,0,0,74,74,74,74,74,0,74,0,48,48,48,48,48,0,48,01-02-22,01-02-22,10:57:57,Tue Mar 01 2022 10:57:57 GMT+0100 (közép-európai téli idő),The main experiment item,yes,0,0,C:/Users/rrics/Documents/!!ResearchBMECOGSCI/gnet,0,0,0,prototype2.png,no,mono,no,18,no,black,no,no,768,1161,3.5.6,legacy,xpyriment,osweb,1.3.13,0,space,space,space,space,26436,25006,19178,26436,2,legacy,1040,1920,24,1080,24,-8,-8,1920,1646128727693,1024,2,48000,-16,experiment,p2sarrshacol3.png,1,odd,Win32,66,136980,133976,66,66,645573,647075,640571,138501,640571,66,893962,895473,890983,647110,890983,visual_patterns,0,0,0,yes,1366
undefined,undefined,undefined,undefined,white,no,Mozilla,Netscape,5.0 (Windows),xpyriment,legacy,legacy,0,uniform,0,0,0,0,24,24,24,0,0,74,74,74,74,74,0,74,0,49,49,49,49,49,0,49,01-02-22,01-02-22,10:57:57,Tue Mar 01 2022 10:57:57 GMT+0100 (közép-európai téli idő),The main experiment item,yes,0,0,C:/Users/rrics/Documents/!!ResearchBMECOGSCI/gnet,0,0,0,prototype2.png,no,mono,no,18,no,black,no,no,768,1161,3.5.6,legacy,xpyriment,osweb,1.3.13,0,space,space,space,space,26436,25006,19178,26436,2,legacy,1040,1920,24,1080,24,-8,-8,1920,1646128727693,1024,2,48000,-16,experiment,p2sarrcol2.png,1,odd,Win32,66,136980,133976,66,66,645573,647075,640571,138501,640571,66,898496,900008,895504,647110,895504,visual_patterns,0,0,0,yes,1366
undefined,undefined,undefined,undefined,white,no,Mozilla,Netscape,5.0 (Windows),xpyriment,legacy,legacy,0,uniform,0,0,0,0,24,24,24,0,0,74,74,74,74,74,0,74,0,50,50,50,50,50,0,50,01-02-22,01-02-22,10:57:57,Tue Mar 01 2022 10:57:57 GMT+0100 (közép-európai téli idő),The main experiment item,yes,0,0,C:/Users/rrics/Documents/!!ResearchBMECOGSCI/gnet,0,0,0,prototype2.png,no,mono,no,18,no,black,no,no,768,1161,3.5.6,legacy,xpyriment,osweb,1.3.13,0,space,space,space,space,26436,25006,19178,26436,2,legacy,1040,1920,24,1080,24,-8,-8,1920,1646128727693,1024,2,48000,-16,experiment,p4sarrsha3.png,1,odd,Win32,66,136980,133976,66,66,645573,647075,640571,138501,640571,66,903038,904544,900050,647110,900050,visual_patterns,0,0,0,yes,1366
undefined,undefined,undefined,undefined,white,no,Mozilla,Netscape,5.0 (Windows),xpyriment,legacy,legacy,0,uniform,0,0,0,0,24,24,24,0,0,74,74,74,74,74,0,74,0,51,51,51,51,51,0,51,01-02-22,01-02-22,10:57:57,Tue Mar 01 2022 10:57:57 GMT+0100 (közép-európai téli idő),The main experiment item,yes,0,0,C:/Users/rrics/Documents/!!ResearchBMECOGSCI/gnet,0,0,0,prototype2.png,no,mono,no,18,no,black,no,no,768,1161,3.5.6,legacy,xpyriment,osweb,1.3.13,0,space,space,space,space,26436,25006,19178,26436,2,legacy,1040,1920,24,1080,24,-8,-8,1920,1646128727693,1024,2,48000,-16,experiment,p4sarrsha1.png,1,odd,Win32,66,136980,133976,66,66,645573,647075,640571,138501,640571,66,907575,909079,904583,647110,904583,visual_patterns,0,0,0,yes,1366
undefined,undefined,undefined,undefined,white,no,Mozilla,Netscape,5.0 (Windows),xpyriment,legacy,legacy,0,uniform,0,0,0,0,24,24,24,0,0,74,74,74,74,74,0,74,0,52,52,52,52,52,0,52,01-02-22,01-02-22,10:57:57,Tue Mar 01 2022 10:57:57 GMT+0100 (közép-európai téli idő),The main experiment item,yes,0,0,C:/Users/rrics/Documents/!!ResearchBMECOGSCI/gnet,0,0,0,prototype2.png,no,mono,no,18,no,black,no,no,768,1161,3.5.6,legacy,xpyriment,osweb,1.3.13,0,space,space,space,space,26436,25006,19178,26436,2,legacy,1040,1920,24,1080,24,-8,-8,1920,1646128727693,1024,2,48000,-16,experiment,p5sarrshacol3.png,1,odd,Win32,66,136980,133976,66,66,645573,647075,640571,138501,640571,66,912087,913601,909106,647110,909106,visual_patterns,0,0,0,yes,1366
undefined,undefined,undefined,undefined,white,no,Mozilla,Netscape,5.0 (Windows),xpyriment,legacy,legacy,0,uniform,0,0,0,0,24,24,24,0,0,74,74,74,74,74,0,74,0,53,53,53,53,53,0,53,01-02-22,01-02-22,10:57:57,Tue Mar 01 2022 10:57:57 GMT+0100 (közép-európai téli idő),The main experiment item,yes,0,0,C:/Users/rrics/Documents/!!ResearchBMECOGSCI/gnet,0,0,0,prototype2.png,no,mono,no,18,no,black,no,no,768,1161,3.5.6,legacy,xpyriment,osweb,1.3.13,0,space,space,space,space,26436,25006,19178,26436,2,legacy,1040,1920,24,1080,24,-8,-8,1920,1646128727693,1024,2,48000,-16,experiment,p5sarrshacol2.png,1,odd,Win32,66,136980,133976,66,66,645573,647075,640571,138501,640571,66,916634,918136,913644,647110,913644,visual_patterns,0,0,0,yes,1366
undefined,undefined,undefined,undefined,white,no,Mozilla,Netscape,5.0 (Windows),xpyriment,legacy,legacy,0,uniform,0,0,0,0,24,24,24,0,0,74,74,74,74,74,0,74,0,54,54,54,54,54,0,54,01-02-22,01-02-22,10:57:57,Tue Mar 01 2022 10:57:57 GMT+0100 (közép-európai téli idő),The main experiment item,yes,0,0,C:/Users/rrics/Documents/!!ResearchBMECOGSCI/gnet,0,0,0,prototype2.png,no,mono,no,18,no,black,no,no,768,1161,3.5.6,legacy,xpyriment,osweb,1.3.13,0,space,space,space,space,26436,25006,19178,26436,2,legacy,1040,1920,24,1080,24,-8,-8,1920,1646128727693,1024,2,48000,-16,experiment,p1sarrsha3.png,1,odd,Win32,66,136980,133976,66,66,645573,647075,640571,138501,640571,66,921149,922658,918155,647110,918155,visual_patterns,0,0,0,yes,1366
undefined,undefined,undefined,undefined,white,no,Mozilla,Netscape,5.0 (Windows),xpyriment,legacy,legacy,0,uniform,0,0,0,0,24,24,24,0,0,74,74,74,74,74,0,74,0,55,55,55,55,55,0,55,01-02-22,01-02-22,10:57:57,Tue Mar 01 2022 10:57:57 GMT+0100 (közép-európai téli idő),The main experiment item,yes,0,0,C:/Users/rrics/Documents/!!ResearchBMECOGSCI/gnet,0,0,0,prototype2.png,no,mono,no,18,no,black,no,no,768,1161,3.5.6,legacy,xpyriment,osweb,1.3.13,0,space,space,space,space,26436,25006,19178,26436,2,legacy,1040,1920,24,1080,24,-8,-8,1920,1646128727693,1024,2,48000,-16,experiment,p3sarrshacol2.png,1,odd,Win32,66,136980,133976,66,66,645573,647075,640571,138501,640571,66,925677,927179,922679,647110,922679,visual_patterns,0,0,0,yes,1366
undefined,undefined,undefined,undefined,white,no,Mozilla,Netscape,5.0 (Windows),xpyriment,legacy,legacy,0,uniform,0,0,0,0,24,24,24,0,0,74,74,74,74,74,0,74,0,56,56,56,56,56,0,56,01-02-22,01-02-22,10:57:57,Tue Mar 01 2022 10:57:57 GMT+0100 (közép-európai téli idő),The main experiment item,yes,0,0,C:/Users/rrics/Documents/!!ResearchBMECOGSCI/gnet,0,0,0,prototype2.png,no,mono,no,18,no,black,no,no,768,1161,3.5.6,legacy,xpyriment,osweb,1.3.13,0,space,space,space,space,26436,25006,19178,26436,2,legacy,1040,1920,24,1080,24,-8,-8,1920,1646128727693,1024,2,48000,-16,experiment,p10sarr2.png,1,odd,Win32,66,136980,133976,66,66,645573,647075,640571,138501,640571,66,930200,931701,927210,647110,927210,visual_patterns,0,0,0,yes,1366
undefined,undefined,undefined,undefined,white,no,Mozilla,Netscape,5.0 (Windows),xpyriment,legacy,legacy,0,uniform,0,0,0,0,24,24,24,0,0,74,74,74,74,74,0,74,0,57,57,57,57,57,0,57,01-02-22,01-02-22,10:57:57,Tue Mar 01 2022 10:57:57 GMT+0100 (közép-európai téli idő),The main experiment item,yes,0,0,C:/Users/rrics/Documents/!!ResearchBMECOGSCI/gnet,0,0,0,prototype2.png,no,mono,no,18,no,black,no,no,768,1161,3.5.6,legacy,xpyriment,osweb,1.3.13,0,space,space,space,space,26436,25006,19178,26436,2,legacy,1040,1920,24,1080,24,-8,-8,1920,1646128727693,1024,2,48000,-16,experiment,p5sarrcol3.png,1,odd,Win32,66,136980,133976,66,66,645573,647075,640571,138501,640571,66,934740,936250,931752,647110,931752,visual_patterns,0,0,0,yes,1366
undefined,undefined,undefined,undefined,white,no,Mozilla,Netscape,5.0 (Windows),xpyriment,legacy,legacy,0,uniform,0,0,0,0,24,24,24,0,0,74,74,74,74,74,0,74,0,58,58,58,58,58,0,58,01-02-22,01-02-22,10:57:57,Tue Mar 01 2022 10:57:57 GMT+0100 (közép-európai téli idő),The main experiment item,yes,0,0,C:/Users/rrics/Documents/!!ResearchBMECOGSCI/gnet,0,0,0,prototype2.png,no,mono,no,18,no,black,no,no,768,1161,3.5.6,legacy,xpyriment,osweb,1.3.13,0,space,space,space,space,26436,25006,19178,26436,2,legacy,1040,1920,24,1080,24,-8,-8,1920,1646128727693,1024,2,48000,-16,experiment,p5sarr4.png,1,odd,Win32,66,136980,133976,66,66,645573,647075,640571,138501,640571,66,939277,940786,936293,647110,936293,visual_patterns,0,0,0,yes,1366
undefined,undefined,undefined,undefined,white,no,Mozilla,Netscape,5.0 (Windows),xpyriment,legacy,legacy,0,uniform,0,0,0,0,24,24,24,0,0,74,74,74,74,74,0,74,0,59,59,59,59,59,0,59,01-02-22,01-02-22,10:57:57,Tue Mar 01 2022 10:57:57 GMT+0100 (közép-európai téli idő),The main experiment item,yes,0,0,C:/Users/rrics/Documents/!!ResearchBMECOGSCI/gnet,0,0,0,prototype2.png,no,mono,no,18,no,black,no,no,768,1161,3.5.6,legacy,xpyriment,osweb,1.3.13,0,space,space,space,space,26436,25006,19178,26436,2,legacy,1040,1920,24,1080,24,-8,-8,1920,1646128727693,1024,2,48000,-16,experiment,p3sarrsha1.png,1,odd,Win32,66,136980,133976,66,66,645573,647075,640571,138501,640571,66,943808,945320,940830,647110,940830,visual_patterns,0,0,0,yes,1366
undefined,undefined,undefined,undefined,white,no,Mozilla,Netscape,5.0 (Windows),xpyriment,legacy,legacy,0,uniform,0,0,0,0,24,24,24,0,0,74,74,74,74,74,0,74,0,60,60,60,60,60,0,60,01-02-22,01-02-22,10:57:57,Tue Mar 01 2022 10:57:57 GMT+0100 (közép-európai téli idő),The main experiment item,yes,0,0,C:/Users/rrics/Documents/!!ResearchBMECOGSCI/gnet,0,0,0,prototype2.png,no,mono,no,18,no,black,no,no,768,1161,3.5.6,legacy,xpyriment,osweb,1.3.13,0,space,space,space,space,26436,25006,19178,26436,2,legacy,1040,1920,24,1080,24,-8,-8,1920,1646128727693,1024,2,48000,-16,experiment,p5sarr1.png,1,odd,Win32,66,136980,133976,66,66,645573,647075,640571,138501,640571,66,948351,949856,945360,647110,945360,visual_patterns,0,0,0,yes,1366
undefined,undefined,undefined,undefined,white,no,Mozilla,Netscape,5.0 (Windows),xpyriment,legacy,legacy,0,uniform,0,0,0,0,24,24,24,0,0,74,74,74,74,74,0,74,0,61,61,61,61,61,0,61,01-02-22,01-02-22,10:57:57,Tue Mar 01 2022 10:57:57 GMT+0100 (közép-európai téli idő),The main experiment item,yes,0,0,C:/Users/rrics/Documents/!!ResearchBMECOGSCI/gnet,0,0,0,prototype2.png,no,mono,no,18,no,black,no,no,768,1161,3.5.6,legacy,xpyriment,osweb,1.3.13,0,space,space,space,space,26436,25006,19178,26436,2,legacy,1040,1920,24,1080,24,-8,-8,1920,1646128727693,1024,2,48000,-16,experiment,p1sarrcol2.png,1,odd,Win32,66,136980,133976,66,66,645573,647075,640571,138501,640571,66,952869,954378,949876,647110,949876,visual_patterns,0,0,0,yes,1366
undefined,undefined,undefined,undefined,white,no,Mozilla,Netscape,5.0 (Windows),xpyriment,legacy,legacy,0,uniform,0,0,0,0,24,24,24,0,0,74,74,74,74,74,0,74,0,62,62,62,62,62,0,62,01-02-22,01-02-22,10:57:57,Tue Mar 01 2022 10:57:57 GMT+0100 (közép-európai téli idő),The main experiment item,yes,0,0,C:/Users/rrics/Documents/!!ResearchBMECOGSCI/gnet,0,0,0,prototype2.png,no,mono,no,18,no,black,no,no,768,1161,3.5.6,legacy,xpyriment,osweb,1.3.13,0,space,space,space,space,26436,25006,19178,26436,2,legacy,1040,1920,24,1080,24,-8,-8,1920,1646128727693,1024,2,48000,-16,experiment,p6sarr4.png,1,odd,Win32,66,136980,133976,66,66,645573,647075,640571,138501,640571,66,957399,958913,954410,647110,954410,visual_patterns,0,0,0,yes,1366
undefined,undefined,undefined,undefined,white,no,Mozilla,Netscape,5.0 (Windows),xpyriment,legacy,legacy,0,uniform,0,0,0,0,24,24,24,0,0,74,74,74,74,74,0,74,0,63,63,63,63,63,0,63,01-02-22,01-02-22,10:57:57,Tue Mar 01 2022 10:57:57 GMT+0100 (közép-európai téli idő),The main experiment item,yes,0,0,C:/Users/rrics/Documents/!!ResearchBMECOGSCI/gnet,0,0,0,prototype2.png,no,mono,no,18,no,black,no,no,768,1161,3.5.6,legacy,xpyriment,osweb,1.3.13,0,space,space,space,space,26436,25006,19178,26436,2,legacy,1040,1920,24,1080,24,-8,-8,1920,1646128727693,1024,2,48000,-16,experiment,p6sarr3.png,1,odd,Win32,66,136980,133976,66,66,645573,647075,640571,138501,640571,66,961933,963435,958933,647110,958933,visual_patterns,0,0,0,yes,1366
undefined,undefined,undefined,undefined,white,no,Mozilla,Netscape,5.0 (Windows),xpyriment,legacy,legacy,0,uniform,0,0,0,0,24,24,24,0,0,74,74,74,74,74,0,74,0,64,64,64,64,64,0,64,01-02-22,01-02-22,10:57:57,Tue Mar 01 2022 10:57:57 GMT+0100 (közép-európai téli idő),The main experiment item,yes,0,0,C:/Users/rrics/Documents/!!ResearchBMECOGSCI/gnet,0,0,0,prototype2.png,no,mono,no,18,no,black,no,no,768,1161,3.5.6,legacy,xpyriment,osweb,1.3.13,0,space,space,space,space,26436,25006,19178,26436,2,legacy,1040,1920,24,1080,24,-8,-8,1920,1646128727693,1024,2,48000,-16,experiment,p4sarr3.png,1,odd,Win32,66,136980,133976,66,66,645573,647075,640571,138501,640571,66,966453,967956,963464,647110,963464,visual_patterns,0,0,0,yes,1366
