acc,accuracy,average_response_time,avg_rt,background,bidi,browser_codename,browser_name,browser_version,canvas_backend,clock_backend,color_backend,compensation,coordinates,count_end,count_experiment,count_osweb,count_prestudy,count_prestudy_isi,count_prestudy_sequence,count_prestudy_stimpres,count_start,count_study,count_study_coroutines,count_study_isi,count_study_logger,count_study_response,count_study_sequence,count_study_start,count_study_stimpres,count_test,count_test_coroutines,count_test_isi,count_test_logger,count_test_response,count_test_sequence,count_test_start,count_test_stimpres,date_startdate,date_startdateUTC,date_starttime,datetime,description,disable_garbage_collection,experiment_debug,experiment_parameters,experiment_path,experiment_pilot,experiment_taskname,experiment_taskversion,fampict,font_bold,font_family,font_italic,font_size,font_underline,foreground,form_clicks,fullscreen,height,jatosStudyResultId,jatosVersion,keyboard_backend,mouse_backend,opensesame_codename,opensesame_version,repeat_cycle,response,response_start,response_study_start,response_test_start,response_time,response_time_start,response_time_study_start,response_time_test_start,round_decimals,sampler_backend,screen_availableHeight,screen_availableWidth,screen_colorDepth,screen_height,screen_pixelDepth,screen_screenX,screen_screenY,screen_width,sessionid,sound_buf_size,sound_channels,sound_freq,sound_sample_size,start,stim,subject_nr,subject_parity,system_os,time_prestudy,time_prestudy_isi,time_prestudy_stimpres,time_start,time_study,time_study_isi,time_study_logger,time_study_response,time_study_start,time_study_stimpres,time_test,time_test_isi,time_test_logger,time_test_response,time_test_start,time_test_stimpres,title,total_correct,total_response_time,total_responses,uniform_coordinates,width
undefined,undefined,undefined,undefined,white,no,Mozilla,Netscape,5.0 (Windows),xpyriment,legacy,legacy,0,uniform,0,0,0,0,24,24,24,0,0,0,0,0,0,0,0,0,0,,,,,,0,,02-02-22,02-02-22,11:06:36,Wed Mar 02 2022 11:06:36 GMT+0100 (közép-európai téli idő),The main experiment item,yes,0,0,C:/Users/rrics/Documents/!!ResearchBMECOGSCI/gnet,0,0,0,prototype5.png,no,mono,no,18,no,black,no,no,768,1162,3.5.6,legacy,xpyriment,osweb,1.3.13,0,space,space,space,,21310,12359,21310,,2,legacy,826,1536,24,864,24,-7,-7,1536,1646215626680,1024,2,48000,-16,experiment,p6sarr1.png,0,even,Win32,49,125057,122046,49,49,152917,154433,147932,126590,147932,49,,,,,,visual_patterns,0,0,0,yes,1366
undefined,undefined,undefined,undefined,white,no,Mozilla,Netscape,5.0 (Windows),xpyriment,legacy,legacy,0,uniform,0,0,0,0,24,24,24,0,0,1,1,1,1,1,0,1,0,,,,,,0,,02-02-22,02-02-22,11:06:36,Wed Mar 02 2022 11:06:36 GMT+0100 (közép-európai téli idő),The main experiment item,yes,0,0,C:/Users/rrics/Documents/!!ResearchBMECOGSCI/gnet,0,0,0,prototype5.png,no,mono,no,18,no,black,no,no,768,1162,3.5.6,legacy,xpyriment,osweb,1.3.13,0,space,space,space,,21310,12359,21310,,2,legacy,826,1536,24,864,24,-7,-7,1536,1646215626680,1024,2,48000,-16,experiment,prototype3.png,0,even,Win32,49,125057,122046,49,49,159455,160964,154486,126590,154486,49,,,,,,visual_patterns,0,0,0,yes,1366
undefined,undefined,undefined,undefined,white,no,Mozilla,Netscape,5.0 (Windows),xpyriment,legacy,legacy,0,uniform,0,0,0,0,24,24,24,0,0,2,2,2,2,2,0,2,0,,,,,,0,,02-02-22,02-02-22,11:06:36,Wed Mar 02 2022 11:06:36 GMT+0100 (közép-európai téli idő),The main experiment item,yes,0,0,C:/Users/rrics/Documents/!!ResearchBMECOGSCI/gnet,0,0,0,prototype5.png,no,mono,no,18,no,black,no,no,768,1162,3.5.6,legacy,xpyriment,osweb,1.3.13,0,space,space,space,,21310,12359,21310,,2,legacy,826,1536,24,864,24,-7,-7,1536,1646215626680,1024,2,48000,-16,experiment,p3sarr1.png,0,even,Win32,49,125057,122046,49,49,165994,167496,161013,126590,161013,49,,,,,,visual_patterns,0,0,0,yes,1366
undefined,undefined,undefined,undefined,white,no,Mozilla,Netscape,5.0 (Windows),xpyriment,legacy,legacy,0,uniform,0,0,0,0,24,24,24,0,0,3,3,3,3,3,0,3,0,,,,,,0,,02-02-22,02-02-22,11:06:36,Wed Mar 02 2022 11:06:36 GMT+0100 (közép-európai téli idő),The main experiment item,yes,0,0,C:/Users/rrics/Documents/!!ResearchBMECOGSCI/gnet,0,0,0,prototype5.png,no,mono,no,18,no,black,no,no,768,1162,3.5.6,legacy,xpyriment,osweb,1.3.13,0,space,space,space,,21310,12359,21310,,2,legacy,826,1536,24,864,24,-7,-7,1536,1646215626680,1024,2,48000,-16,experiment,p9sarr2.png,0,even,Win32,49,125057,122046,49,49,172523,174028,167547,126590,167547,49,,,,,,visual_patterns,0,0,0,yes,1366
undefined,undefined,undefined,undefined,white,no,Mozilla,Netscape,5.0 (Windows),xpyriment,legacy,legacy,0,uniform,0,0,0,0,24,24,24,0,0,4,4,4,4,4,0,4,0,,,,,,0,,02-02-22,02-02-22,11:06:36,Wed Mar 02 2022 11:06:36 GMT+0100 (közép-európai téli idő),The main experiment item,yes,0,0,C:/Users/rrics/Documents/!!ResearchBMECOGSCI/gnet,0,0,0,prototype5.png,no,mono,no,18,no,black,no,no,768,1162,3.5.6,legacy,xpyriment,osweb,1.3.13,0,space,space,space,,21310,12359,21310,,2,legacy,826,1536,24,864,24,-7,-7,1536,1646215626680,1024,2,48000,-16,experiment,p4sarr2.png,0,even,Win32,49,125057,122046,49,49,179059,180560,174082,126590,174082,49,,,,,,visual_patterns,0,0,0,yes,1366
undefined,undefined,undefined,undefined,white,no,Mozilla,Netscape,5.0 (Windows),xpyriment,legacy,legacy,0,uniform,0,0,0,0,24,24,24,0,0,5,5,5,5,5,0,5,0,,,,,,0,,02-02-22,02-02-22,11:06:36,Wed Mar 02 2022 11:06:36 GMT+0100 (közép-európai téli idő),The main experiment item,yes,0,0,C:/Users/rrics/Documents/!!ResearchBMECOGSCI/gnet,0,0,0,prototype5.png,no,mono,no,18,no,black,no,no,768,1162,3.5.6,legacy,xpyriment,osweb,1.3.13,0,space,space,space,,21310,12359,21310,,2,legacy,826,1536,24,864,24,-7,-7,1536,1646215626680,1024,2,48000,-16,experiment,p4sarrshacol2.png,0,even,Win32,49,125057,122046,49,49,185586,187092,180615,126590,180615,49,,,,,,visual_patterns,0,0,0,yes,1366
undefined,undefined,undefined,undefined,white,no,Mozilla,Netscape,5.0 (Windows),xpyriment,legacy,legacy,0,uniform,0,0,0,0,24,24,24,0,0,6,6,6,6,6,0,6,0,,,,,,0,,02-02-22,02-02-22,11:06:36,Wed Mar 02 2022 11:06:36 GMT+0100 (közép-európai téli idő),The main experiment item,yes,0,0,C:/Users/rrics/Documents/!!ResearchBMECOGSCI/gnet,0,0,0,prototype5.png,no,mono,no,18,no,black,no,no,768,1162,3.5.6,legacy,xpyriment,osweb,1.3.13,0,space,space,space,,21310,12359,21310,,2,legacy,826,1536,24,864,24,-7,-7,1536,1646215626680,1024,2,48000,-16,experiment,p5sarrsha2.png,0,even,Win32,49,125057,122046,49,49,192126,193641,187145,126590,187145,49,,,,,,visual_patterns,0,0,0,yes,1366
undefined,undefined,undefined,undefined,white,no,Mozilla,Netscape,5.0 (Windows),xpyriment,legacy,legacy,0,uniform,0,0,0,0,24,24,24,0,0,7,7,7,7,7,0,7,0,,,,,,0,,02-02-22,02-02-22,11:06:36,Wed Mar 02 2022 11:06:36 GMT+0100 (közép-európai téli idő),The main experiment item,yes,0,0,C:/Users/rrics/Documents/!!ResearchBMECOGSCI/gnet,0,0,0,prototype5.png,no,mono,no,18,no,black,no,no,768,1162,3.5.6,legacy,xpyriment,osweb,1.3.13,0,space,space,space,,21310,12359,21310,,2,legacy,826,1536,24,864,24,-7,-7,1536,1646215626680,1024,2,48000,-16,experiment,p2sarr1.png,0,even,Win32,49,125057,122046,49,49,198675,200190,193703,126590,193702,49,,,,,,visual_patterns,0,0,0,yes,1366
undefined,undefined,undefined,undefined,white,no,Mozilla,Netscape,5.0 (Windows),xpyriment,legacy,legacy,0,uniform,0,0,0,0,24,24,24,0,0,8,8,8,8,8,0,8,0,,,,,,0,,02-02-22,02-02-22,11:06:36,Wed Mar 02 2022 11:06:36 GMT+0100 (közép-európai téli idő),The main experiment item,yes,0,0,C:/Users/rrics/Documents/!!ResearchBMECOGSCI/gnet,0,0,0,prototype5.png,no,mono,no,18,no,black,no,no,768,1162,3.5.6,legacy,xpyriment,osweb,1.3.13,0,space,space,space,,21310,12359,21310,,2,legacy,826,1536,24,864,24,-7,-7,1536,1646215626680,1024,2,48000,-16,experiment,prototype4.png,0,even,Win32,49,125057,122046,49,49,205224,206738,200243,126590,200243,49,,,,,,visual_patterns,0,0,0,yes,1366
undefined,undefined,undefined,undefined,white,no,Mozilla,Netscape,5.0 (Windows),xpyriment,legacy,legacy,0,uniform,0,0,0,0,24,24,24,0,0,9,9,9,9,9,0,9,0,,,,,,0,,02-02-22,02-02-22,11:06:36,Wed Mar 02 2022 11:06:36 GMT+0100 (közép-európai téli idő),The main experiment item,yes,0,0,C:/Users/rrics/Documents/!!ResearchBMECOGSCI/gnet,0,0,0,prototype5.png,no,mono,no,18,no,black,no,no,768,1162,3.5.6,legacy,xpyriment,osweb,1.3.13,0,space,space,space,,21310,12359,21310,,2,legacy,826,1536,24,864,24,-7,-7,1536,1646215626680,1024,2,48000,-16,experiment,p5sarrsha1.png,0,even,Win32,49,125057,122046,49,49,211760,213271,206781,126590,206781,49,,,,,,visual_patterns,0,0,0,yes,1366
undefined,undefined,undefined,undefined,white,no,Mozilla,Netscape,5.0 (Windows),xpyriment,legacy,legacy,0,uniform,0,0,0,0,24,24,24,0,0,10,10,10,10,10,0,10,0,,,,,,0,,02-02-22,02-02-22,11:06:36,Wed Mar 02 2022 11:06:36 GMT+0100 (közép-európai téli idő),The main experiment item,yes,0,0,C:/Users/rrics/Documents/!!ResearchBMECOGSCI/gnet,0,0,0,prototype5.png,no,mono,no,18,no,black,no,no,768,1162,3.5.6,legacy,xpyriment,osweb,1.3.13,0,space,space,space,,21310,12359,21310,,2,legacy,826,1536,24,864,24,-7,-7,1536,1646215626680,1024,2,48000,-16,experiment,p5sarrcol1.png,0,even,Win32,49,125057,122046,49,49,218297,219802,213325,126590,213325,49,,,,,,visual_patterns,0,0,0,yes,1366
undefined,undefined,undefined,undefined,white,no,Mozilla,Netscape,5.0 (Windows),xpyriment,legacy,legacy,0,uniform,0,0,0,0,24,24,24,0,0,11,11,11,11,11,0,11,0,,,,,,0,,02-02-22,02-02-22,11:06:36,Wed Mar 02 2022 11:06:36 GMT+0100 (közép-európai téli idő),The main experiment item,yes,0,0,C:/Users/rrics/Documents/!!ResearchBMECOGSCI/gnet,0,0,0,prototype5.png,no,mono,no,18,no,black,no,no,768,1162,3.5.6,legacy,xpyriment,osweb,1.3.13,0,space,space,space,,21310,12359,21310,,2,legacy,826,1536,24,864,24,-7,-7,1536,1646215626680,1024,2,48000,-16,experiment,p8sarr2.png,0,even,Win32,49,125057,122046,49,49,224836,226350,219864,126590,219864,49,,,,,,visual_patterns,0,0,0,yes,1366
undefined,undefined,undefined,undefined,white,no,Mozilla,Netscape,5.0 (Windows),xpyriment,legacy,legacy,0,uniform,0,0,0,0,24,24,24,0,0,12,12,12,12,12,0,12,0,,,,,,0,,02-02-22,02-02-22,11:06:36,Wed Mar 02 2022 11:06:36 GMT+0100 (közép-európai téli idő),The main experiment item,yes,0,0,C:/Users/rrics/Documents/!!ResearchBMECOGSCI/gnet,0,0,0,prototype5.png,no,mono,no,18,no,black,no,no,768,1162,3.5.6,legacy,xpyriment,osweb,1.3.13,0,space,space,space,,21310,12359,21310,,2,legacy,826,1536,24,864,24,-7,-7,1536,1646215626680,1024,2,48000,-16,experiment,p5sarrshacol2.png,0,even,Win32,49,125057,122046,49,49,231379,232883,226402,126590,226402,49,,,,,,visual_patterns,0,0,0,yes,1366
undefined,undefined,undefined,undefined,white,no,Mozilla,Netscape,5.0 (Windows),xpyriment,legacy,legacy,0,uniform,0,0,0,0,24,24,24,0,0,13,13,13,13,13,0,13,0,,,,,,0,,02-02-22,02-02-22,11:06:36,Wed Mar 02 2022 11:06:36 GMT+0100 (közép-európai téli idő),The main experiment item,yes,0,0,C:/Users/rrics/Documents/!!ResearchBMECOGSCI/gnet,0,0,0,prototype5.png,no,mono,no,18,no,black,no,no,768,1162,3.5.6,legacy,xpyriment,osweb,1.3.13,0,space,space,space,,21310,12359,21310,,2,legacy,826,1536,24,864,24,-7,-7,1536,1646215626680,1024,2,48000,-16,experiment,p8sarr1.png,0,even,Win32,49,125057,122046,49,49,237906,239415,232922,126590,232922,49,,,,,,visual_patterns,0,0,0,yes,1366
undefined,undefined,undefined,undefined,white,no,Mozilla,Netscape,5.0 (Windows),xpyriment,legacy,legacy,0,uniform,0,0,0,0,24,24,24,0,0,14,14,14,14,14,0,14,0,,,,,,0,,02-02-22,02-02-22,11:06:36,Wed Mar 02 2022 11:06:36 GMT+0100 (közép-európai téli idő),The main experiment item,yes,0,0,C:/Users/rrics/Documents/!!ResearchBMECOGSCI/gnet,0,0,0,prototype5.png,no,mono,no,18,no,black,no,no,768,1162,3.5.6,legacy,xpyriment,osweb,1.3.13,0,space,space,space,,21310,12359,21310,,2,legacy,826,1536,24,864,24,-7,-7,1536,1646215626680,1024,2,48000,-16,experiment,p3sarrcol1.png,0,even,Win32,49,125057,122046,49,49,244445,245946,239460,126590,239460,49,,,,,,visual_patterns,0,0,0,yes,1366
undefined,undefined,undefined,undefined,white,no,Mozilla,Netscape,5.0 (Windows),xpyriment,legacy,legacy,0,uniform,0,0,0,0,24,24,24,0,0,15,15,15,15,15,0,15,0,,,,,,0,,02-02-22,02-02-22,11:06:36,Wed Mar 02 2022 11:06:36 GMT+0100 (közép-európai téli idő),The main experiment item,yes,0,0,C:/Users/rrics/Documents/!!ResearchBMECOGSCI/gnet,0,0,0,prototype5.png,no,mono,no,18,no,black,no,no,768,1162,3.5.6,legacy,xpyriment,osweb,1.3.13,0,space,space,space,,21310,12359,21310,,2,legacy,826,1536,24,864,24,-7,-7,1536,1646215626680,1024,2,48000,-16,experiment,prototype1.png,0,even,Win32,49,125057,122046,49,49,250989,252495,246001,126590,246001,49,,,,,,visual_patterns,0,0,0,yes,1366
undefined,undefined,undefined,undefined,white,no,Mozilla,Netscape,5.0 (Windows),xpyriment,legacy,legacy,0,uniform,0,0,0,0,24,24,24,0,0,16,16,16,16,16,0,16,0,,,,,,0,,02-02-22,02-02-22,11:06:36,Wed Mar 02 2022 11:06:36 GMT+0100 (közép-európai téli idő),The main experiment item,yes,0,0,C:/Users/rrics/Documents/!!ResearchBMECOGSCI/gnet,0,0,0,prototype5.png,no,mono,no,18,no,black,no,no,768,1162,3.5.6,legacy,xpyriment,osweb,1.3.13,0,space,space,space,,21310,12359,21310,,2,legacy,826,1536,24,864,24,-7,-7,1536,1646215626680,1024,2,48000,-16,experiment,p2sarr2.png,0,even,Win32,49,125057,122046,49,49,257521,259027,252540,126590,252539,49,,,,,,visual_patterns,0,0,0,yes,1366
undefined,undefined,undefined,undefined,white,no,Mozilla,Netscape,5.0 (Windows),xpyriment,legacy,legacy,0,uniform,0,0,0,0,24,24,24,0,0,17,17,17,17,17,0,17,0,,,,,,0,,02-02-22,02-02-22,11:06:36,Wed Mar 02 2022 11:06:36 GMT+0100 (közép-európai téli idő),The main experiment item,yes,0,0,C:/Users/rrics/Documents/!!ResearchBMECOGSCI/gnet,0,0,0,prototype5.png,no,mono,no,18,no,black,no,no,768,1162,3.5.6,legacy,xpyriment,osweb,1.3.13,0,space,space,space,,21310,12359,21310,,2,legacy,826,1536,24,864,24,-7,-7,1536,1646215626680,1024,2,48000,-16,experiment,p3sarrsha2.png,0,even,Win32,49,125057,122046,49,49,264058,265559,259078,126590,259078,49,,,,,,visual_patterns,0,0,0,yes,1366
undefined,undefined,undefined,undefined,white,no,Mozilla,Netscape,5.0 (Windows),xpyriment,legacy,legacy,0,uniform,0,0,0,0,24,24,24,0,0,18,18,18,18,18,0,18,0,,,,,,0,,02-02-22,02-02-22,11:06:36,Wed Mar 02 2022 11:06:36 GMT+0100 (közép-európai téli idő),The main experiment item,yes,0,0,C:/Users/rrics/Documents/!!ResearchBMECOGSCI/gnet,0,0,0,prototype5.png,no,mono,no,18,no,black,no,no,768,1162,3.5.6,legacy,xpyriment,osweb,1.3.13,0,space,space,space,,21310,12359,21310,,2,legacy,826,1536,24,864,24,-7,-7,1536,1646215626680,1024,2,48000,-16,experiment,prototype4.png,0,even,Win32,49,125057,122046,49,49,270576,272091,265607,126590,265607,49,,,,,,visual_patterns,0,0,0,yes,1366
undefined,undefined,undefined,undefined,white,no,Mozilla,Netscape,5.0 (Windows),xpyriment,legacy,legacy,0,uniform,0,0,0,0,24,24,24,0,0,19,19,19,19,19,0,19,0,,,,,,0,,02-02-22,02-02-22,11:06:36,Wed Mar 02 2022 11:06:36 GMT+0100 (közép-európai téli idő),The main experiment item,yes,0,0,C:/Users/rrics/Documents/!!ResearchBMECOGSCI/gnet,0,0,0,prototype5.png,no,mono,no,18,no,black,no,no,768,1162,3.5.6,legacy,xpyriment,osweb,1.3.13,0,space,space,space,,21310,12359,21310,,2,legacy,826,1536,24,864,24,-7,-7,1536,1646215626680,1024,2,48000,-16,experiment,p3sarrsha1.png,0,even,Win32,49,125057,122046,49,49,277116,278623,272136,126590,272136,49,,,,,,visual_patterns,0,0,0,yes,1366
undefined,undefined,undefined,undefined,white,no,Mozilla,Netscape,5.0 (Windows),xpyriment,legacy,legacy,0,uniform,0,0,0,0,24,24,24,0,0,20,20,20,20,20,0,20,0,,,,,,0,,02-02-22,02-02-22,11:06:36,Wed Mar 02 2022 11:06:36 GMT+0100 (közép-európai téli idő),The main experiment item,yes,0,0,C:/Users/rrics/Documents/!!ResearchBMECOGSCI/gnet,0,0,0,prototype5.png,no,mono,no,18,no,black,no,no,768,1162,3.5.6,legacy,xpyriment,osweb,1.3.13,0,space,space,space,,21310,12359,21310,,2,legacy,826,1536,24,864,24,-7,-7,1536,1646215626680,1024,2,48000,-16,experiment,prototype2.png,0,even,Win32,49,125057,122046,49,49,283653,285155,278666,126590,278666,49,,,,,,visual_patterns,0,0,0,yes,1366
undefined,undefined,undefined,undefined,white,no,Mozilla,Netscape,5.0 (Windows),xpyriment,legacy,legacy,0,uniform,0,0,0,0,24,24,24,0,0,21,21,21,21,21,0,21,0,,,,,,0,,02-02-22,02-02-22,11:06:36,Wed Mar 02 2022 11:06:36 GMT+0100 (közép-európai téli idő),The main experiment item,yes,0,0,C:/Users/rrics/Documents/!!ResearchBMECOGSCI/gnet,0,0,0,prototype5.png,no,mono,no,18,no,black,no,no,768,1162,3.5.6,legacy,xpyriment,osweb,1.3.13,0,space,space,space,,21310,12359,21310,,2,legacy,826,1536,24,864,24,-7,-7,1536,1646215626680,1024,2,48000,-16,experiment,p4sarrcol2.png,0,even,Win32,49,125057,122046,49,49,290179,291687,285204,126590,285204,49,,,,,,visual_patterns,0,0,0,yes,1366
undefined,undefined,undefined,undefined,white,no,Mozilla,Netscape,5.0 (Windows),xpyriment,legacy,legacy,0,uniform,0,0,0,0,24,24,24,0,0,22,22,22,22,22,0,22,0,,,,,,0,,02-02-22,02-02-22,11:06:36,Wed Mar 02 2022 11:06:36 GMT+0100 (közép-európai téli idő),The main experiment item,yes,0,0,C:/Users/rrics/Documents/!!ResearchBMECOGSCI/gnet,0,0,0,prototype5.png,no,mono,no,18,no,black,no,no,768,1162,3.5.6,legacy,xpyriment,osweb,1.3.13,0,space,space,space,,21310,12359,21310,,2,legacy,826,1536,24,864,24,-7,-7,1536,1646215626680,1024,2,48000,-16,experiment,p5sarrshacol1.png,0,even,Win32,49,125057,122046,49,49,296708,298219,291736,126590,291736,49,,,,,,visual_patterns,0,0,0,yes,1366
undefined,undefined,undefined,undefined,white,no,Mozilla,Netscape,5.0 (Windows),xpyriment,legacy,legacy,0,uniform,0,0,0,0,24,24,24,0,0,23,23,23,23,23,0,23,0,,,,,,0,,02-02-22,02-02-22,11:06:36,Wed Mar 02 2022 11:06:36 GMT+0100 (közép-európai téli idő),The main experiment item,yes,0,0,C:/Users/rrics/Documents/!!ResearchBMECOGSCI/gnet,0,0,0,prototype5.png,no,mono,no,18,no,black,no,no,768,1162,3.5.6,legacy,xpyriment,osweb,1.3.13,0,space,space,space,,21310,12359,21310,,2,legacy,826,1536,24,864,24,-7,-7,1536,1646215626680,1024,2,48000,-16,experiment,prototype2.png,0,even,Win32,49,125057,122046,49,49,303237,304751,298260,126590,298259,49,,,,,,visual_patterns,0,0,0,yes,1366
undefined,undefined,undefined,undefined,white,no,Mozilla,Netscape,5.0 (Windows),xpyriment,legacy,legacy,0,uniform,0,0,0,0,24,24,24,0,0,24,24,24,24,24,0,24,0,,,,,,0,,02-02-22,02-02-22,11:06:36,Wed Mar 02 2022 11:06:36 GMT+0100 (közép-európai téli idő),The main experiment item,yes,0,0,C:/Users/rrics/Documents/!!ResearchBMECOGSCI/gnet,0,0,0,prototype5.png,no,mono,no,18,no,black,no,no,768,1162,3.5.6,legacy,xpyriment,osweb,1.3.13,0,space,space,space,,21310,12359,21310,,2,legacy,826,1536,24,864,24,-7,-7,1536,1646215626680,1024,2,48000,-16,experiment,p4sarrsha2.png,0,even,Win32,49,125057,122046,49,49,309774,311283,304793,126590,304793,49,,,,,,visual_patterns,0,0,0,yes,1366
undefined,undefined,undefined,undefined,white,no,Mozilla,Netscape,5.0 (Windows),xpyriment,legacy,legacy,0,uniform,0,0,0,0,24,24,24,0,0,25,25,25,25,25,0,25,0,,,,,,0,,02-02-22,02-02-22,11:06:36,Wed Mar 02 2022 11:06:36 GMT+0100 (közép-európai téli idő),The main experiment item,yes,0,0,C:/Users/rrics/Documents/!!ResearchBMECOGSCI/gnet,0,0,0,prototype5.png,no,mono,no,18,no,black,no,no,768,1162,3.5.6,legacy,xpyriment,osweb,1.3.13,0,space,space,space,,21310,12359,21310,,2,legacy,826,1536,24,864,24,-7,-7,1536,1646215626680,1024,2,48000,-16,experiment,p9sarr1.png,0,even,Win32,49,125057,122046,49,49,316304,317814,311330,126590,311330,49,,,,,,visual_patterns,0,0,0,yes,1366
undefined,undefined,undefined,undefined,white,no,Mozilla,Netscape,5.0 (Windows),xpyriment,legacy,legacy,0,uniform,0,0,0,0,24,24,24,0,0,26,26,26,26,26,0,26,0,,,,,,0,,02-02-22,02-02-22,11:06:36,Wed Mar 02 2022 11:06:36 GMT+0100 (közép-európai téli idő),The main experiment item,yes,0,0,C:/Users/rrics/Documents/!!ResearchBMECOGSCI/gnet,0,0,0,prototype5.png,no,mono,no,18,no,black,no,no,768,1162,3.5.6,legacy,xpyriment,osweb,1.3.13,0,space,space,space,,21310,12359,21310,,2,legacy,826,1536,24,864,24,-7,-7,1536,1646215626680,1024,2,48000,-16,experiment,prototype1.png,0,even,Win32,49,125057,122046,49,49,322828,324329,317862,126590,317862,49,,,,,,visual_patterns,0,0,0,yes,1366
undefined,undefined,undefined,undefined,white,no,Mozilla,Netscape,5.0 (Windows),xpyriment,legacy,legacy,0,uniform,0,0,0,0,24,24,24,0,0,27,27,27,27,27,0,27,0,,,,,,0,,02-02-22,02-02-22,11:06:36,Wed Mar 02 2022 11:06:36 GMT+0100 (közép-európai téli idő),The main experiment item,yes,0,0,C:/Users/rrics/Documents/!!ResearchBMECOGSCI/gnet,0,0,0,prototype5.png,no,mono,no,18,no,black,no,no,768,1162,3.5.6,legacy,xpyriment,osweb,1.3.13,0,space,space,space,,21310,12359,21310,,2,legacy,826,1536,24,864,24,-7,-7,1536,1646215626680,1024,2,48000,-16,experiment,p4sarrcol1.png,0,even,Win32,49,125057,122046,49,49,329355,330862,324380,126590,324380,49,,,,,,visual_patterns,0,0,0,yes,1366
undefined,undefined,undefined,undefined,white,no,Mozilla,Netscape,5.0 (Windows),xpyriment,legacy,legacy,0,uniform,0,0,0,0,24,24,24,0,0,28,28,28,28,28,0,28,0,,,,,,0,,02-02-22,02-02-22,11:06:36,Wed Mar 02 2022 11:06:36 GMT+0100 (közép-európai téli idő),The main experiment item,yes,0,0,C:/Users/rrics/Documents/!!ResearchBMECOGSCI/gnet,0,0,0,prototype5.png,no,mono,no,18,no,black,no,no,768,1162,3.5.6,legacy,xpyriment,osweb,1.3.13,0,space,space,space,,21310,12359,21310,,2,legacy,826,1536,24,864,24,-7,-7,1536,1646215626680,1024,2,48000,-16,experiment,prototype4.png,0,even,Win32,49,125057,122046,49,49,335878,337394,330911,126590,330911,49,,,,,,visual_patterns,0,0,0,yes,1366
undefined,undefined,undefined,undefined,white,no,Mozilla,Netscape,5.0 (Windows),xpyriment,legacy,legacy,0,uniform,0,0,0,0,24,24,24,0,0,29,29,29,29,29,0,29,0,,,,,,0,,02-02-22,02-02-22,11:06:36,Wed Mar 02 2022 11:06:36 GMT+0100 (közép-európai téli idő),The main experiment item,yes,0,0,C:/Users/rrics/Documents/!!ResearchBMECOGSCI/gnet,0,0,0,prototype5.png,no,mono,no,18,no,black,no,no,768,1162,3.5.6,legacy,xpyriment,osweb,1.3.13,0,space,space,space,,21310,12359,21310,,2,legacy,826,1536,24,864,24,-7,-7,1536,1646215626680,1024,2,48000,-16,experiment,prototype5.png,0,even,Win32,49,125057,122046,49,49,342418,343926,337435,126590,337435,49,,,,,,visual_patterns,0,0,0,yes,1366
undefined,undefined,undefined,undefined,white,no,Mozilla,Netscape,5.0 (Windows),xpyriment,legacy,legacy,0,uniform,0,0,0,0,24,24,24,0,0,30,30,30,30,30,0,30,0,,,,,,0,,02-02-22,02-02-22,11:06:36,Wed Mar 02 2022 11:06:36 GMT+0100 (közép-európai téli idő),The main experiment item,yes,0,0,C:/Users/rrics/Documents/!!ResearchBMECOGSCI/gnet,0,0,0,prototype5.png,no,mono,no,18,no,black,no,no,768,1162,3.5.6,legacy,xpyriment,osweb,1.3.13,0,space,space,space,,21310,12359,21310,,2,legacy,826,1536,24,864,24,-7,-7,1536,1646215626680,1024,2,48000,-16,experiment,p5sarrcol2.png,0,even,Win32,49,125057,122046,49,49,348947,350457,343972,126590,343972,49,,,,,,visual_patterns,0,0,0,yes,1366
undefined,undefined,undefined,undefined,white,no,Mozilla,Netscape,5.0 (Windows),xpyriment,legacy,legacy,0,uniform,0,0,0,0,24,24,24,0,0,31,31,31,31,31,0,31,0,,,,,,0,,02-02-22,02-02-22,11:06:36,Wed Mar 02 2022 11:06:36 GMT+0100 (közép-európai téli idő),The main experiment item,yes,0,0,C:/Users/rrics/Documents/!!ResearchBMECOGSCI/gnet,0,0,0,prototype5.png,no,mono,no,18,no,black,no,no,768,1162,3.5.6,legacy,xpyriment,osweb,1.3.13,0,space,space,space,,21310,12359,21310,,2,legacy,826,1536,24,864,24,-7,-7,1536,1646215626680,1024,2,48000,-16,experiment,p2sarrsha2.png,0,even,Win32,49,125057,122046,49,49,355481,356989,350506,126590,350506,49,,,,,,visual_patterns,0,0,0,yes,1366
undefined,undefined,undefined,undefined,white,no,Mozilla,Netscape,5.0 (Windows),xpyriment,legacy,legacy,0,uniform,0,0,0,0,24,24,24,0,0,32,32,32,32,32,0,32,0,,,,,,0,,02-02-22,02-02-22,11:06:36,Wed Mar 02 2022 11:06:36 GMT+0100 (közép-európai téli idő),The main experiment item,yes,0,0,C:/Users/rrics/Documents/!!ResearchBMECOGSCI/gnet,0,0,0,prototype5.png,no,mono,no,18,no,black,no,no,768,1162,3.5.6,legacy,xpyriment,osweb,1.3.13,0,space,space,space,,21310,12359,21310,,2,legacy,826,1536,24,864,24,-7,-7,1536,1646215626680,1024,2,48000,-16,experiment,p5sarr1.png,0,even,Win32,49,125057,122046,49,49,362016,363521,357033,126590,357032,49,,,,,,visual_patterns,0,0,0,yes,1366
undefined,undefined,undefined,undefined,white,no,Mozilla,Netscape,5.0 (Windows),xpyriment,legacy,legacy,0,uniform,0,0,0,0,24,24,24,0,0,33,33,33,33,33,0,33,0,,,,,,0,,02-02-22,02-02-22,11:06:36,Wed Mar 02 2022 11:06:36 GMT+0100 (közép-európai téli idő),The main experiment item,yes,0,0,C:/Users/rrics/Documents/!!ResearchBMECOGSCI/gnet,0,0,0,prototype5.png,no,mono,no,18,no,black,no,no,768,1162,3.5.6,legacy,xpyriment,osweb,1.3.13,0,space,space,space,,21310,12359,21310,,2,legacy,826,1536,24,864,24,-7,-7,1536,1646215626680,1024,2,48000,-16,experiment,p3sarrshacol1.png,0,even,Win32,49,125057,122046,49,49,368552,370053,363568,126590,363568,49,,,,,,visual_patterns,0,0,0,yes,1366
undefined,undefined,undefined,undefined,white,no,Mozilla,Netscape,5.0 (Windows),xpyriment,legacy,legacy,0,uniform,0,0,0,0,24,24,24,0,0,34,34,34,34,34,0,34,0,,,,,,0,,02-02-22,02-02-22,11:06:36,Wed Mar 02 2022 11:06:36 GMT+0100 (közép-európai téli idő),The main experiment item,yes,0,0,C:/Users/rrics/Documents/!!ResearchBMECOGSCI/gnet,0,0,0,prototype5.png,no,mono,no,18,no,black,no,no,768,1162,3.5.6,legacy,xpyriment,osweb,1.3.13,0,space,space,space,,21310,12359,21310,,2,legacy,826,1536,24,864,24,-7,-7,1536,1646215626680,1024,2,48000,-16,experiment,prototype1.png,0,even,Win32,49,125057,122046,49,49,375086,376602,370102,126590,370102,49,,,,,,visual_patterns,0,0,0,yes,1366
undefined,undefined,undefined,undefined,white,no,Mozilla,Netscape,5.0 (Windows),xpyriment,legacy,legacy,0,uniform,0,0,0,0,24,24,24,0,0,35,35,35,35,35,0,35,0,,,,,,0,,02-02-22,02-02-22,11:06:36,Wed Mar 02 2022 11:06:36 GMT+0100 (közép-európai téli idő),The main experiment item,yes,0,0,C:/Users/rrics/Documents/!!ResearchBMECOGSCI/gnet,0,0,0,prototype5.png,no,mono,no,18,no,black,no,no,768,1162,3.5.6,legacy,xpyriment,osweb,1.3.13,0,space,space,space,,21310,12359,21310,,2,legacy,826,1536,24,864,24,-7,-7,1536,1646215626680,1024,2,48000,-16,experiment,p4sarrshacol1.png,0,even,Win32,49,125057,122046,49,49,381633,383150,376651,126590,376651,49,,,,,,visual_patterns,0,0,0,yes,1366
undefined,undefined,undefined,undefined,white,no,Mozilla,Netscape,5.0 (Windows),xpyriment,legacy,legacy,0,uniform,0,0,0,0,24,24,24,0,0,36,36,36,36,36,0,36,0,,,,,,0,,02-02-22,02-02-22,11:06:36,Wed Mar 02 2022 11:06:36 GMT+0100 (közép-európai téli idő),The main experiment item,yes,0,0,C:/Users/rrics/Documents/!!ResearchBMECOGSCI/gnet,0,0,0,prototype5.png,no,mono,no,18,no,black,no,no,768,1162,3.5.6,legacy,xpyriment,osweb,1.3.13,0,space,space,space,,21310,12359,21310,,2,legacy,826,1536,24,864,24,-7,-7,1536,1646215626680,1024,2,48000,-16,experiment,prototype3.png,0,even,Win32,49,125057,122046,49,49,388180,389682,383211,126590,383211,49,,,,,,visual_patterns,0,0,0,yes,1366
undefined,undefined,undefined,undefined,white,no,Mozilla,Netscape,5.0 (Windows),xpyriment,legacy,legacy,0,uniform,0,0,0,0,24,24,24,0,0,37,37,37,37,37,0,37,0,,,,,,0,,02-02-22,02-02-22,11:06:36,Wed Mar 02 2022 11:06:36 GMT+0100 (közép-európai téli idő),The main experiment item,yes,0,0,C:/Users/rrics/Documents/!!ResearchBMECOGSCI/gnet,0,0,0,prototype5.png,no,mono,no,18,no,black,no,no,768,1162,3.5.6,legacy,xpyriment,osweb,1.3.13,0,space,space,space,,21310,12359,21310,,2,legacy,826,1536,24,864,24,-7,-7,1536,1646215626680,1024,2,48000,-16,experiment,prototype3.png,0,even,Win32,49,125057,122046,49,49,394702,396215,389720,126590,389720,49,,,,,,visual_patterns,0,0,0,yes,1366
undefined,undefined,undefined,undefined,white,no,Mozilla,Netscape,5.0 (Windows),xpyriment,legacy,legacy,0,uniform,0,0,0,0,24,24,24,0,0,38,38,38,38,38,0,38,0,,,,,,0,,02-02-22,02-02-22,11:06:36,Wed Mar 02 2022 11:06:36 GMT+0100 (közép-európai téli idő),The main experiment item,yes,0,0,C:/Users/rrics/Documents/!!ResearchBMECOGSCI/gnet,0,0,0,prototype5.png,no,mono,no,18,no,black,no,no,768,1162,3.5.6,legacy,xpyriment,osweb,1.3.13,0,space,space,space,,21310,12359,21310,,2,legacy,826,1536,24,864,24,-7,-7,1536,1646215626680,1024,2,48000,-16,experiment,p7sarr1.png,0,even,Win32,49,125057,122046,49,49,401247,402763,396274,126590,396274,49,,,,,,visual_patterns,0,0,0,yes,1366
undefined,undefined,undefined,undefined,white,no,Mozilla,Netscape,5.0 (Windows),xpyriment,legacy,legacy,0,uniform,0,0,0,0,24,24,24,0,0,39,39,39,39,39,0,39,0,,,,,,0,,02-02-22,02-02-22,11:06:36,Wed Mar 02 2022 11:06:36 GMT+0100 (közép-európai téli idő),The main experiment item,yes,0,0,C:/Users/rrics/Documents/!!ResearchBMECOGSCI/gnet,0,0,0,prototype5.png,no,mono,no,18,no,black,no,no,768,1162,3.5.6,legacy,xpyriment,osweb,1.3.13,0,space,space,space,,21310,12359,21310,,2,legacy,826,1536,24,864,24,-7,-7,1536,1646215626680,1024,2,48000,-16,experiment,p1sarrsha1.png,0,even,Win32,49,125057,122046,49,49,407794,409312,402815,126590,402815,49,,,,,,visual_patterns,0,0,0,yes,1366
undefined,undefined,undefined,undefined,white,no,Mozilla,Netscape,5.0 (Windows),xpyriment,legacy,legacy,0,uniform,0,0,0,0,24,24,24,0,0,40,40,40,40,40,0,40,0,,,,,,0,,02-02-22,02-02-22,11:06:36,Wed Mar 02 2022 11:06:36 GMT+0100 (közép-európai téli idő),The main experiment item,yes,0,0,C:/Users/rrics/Documents/!!ResearchBMECOGSCI/gnet,0,0,0,prototype5.png,no,mono,no,18,no,black,no,no,768,1162,3.5.6,legacy,xpyriment,osweb,1.3.13,0,space,space,space,,21310,12359,21310,,2,legacy,826,1536,24,864,24,-7,-7,1536,1646215626680,1024,2,48000,-16,experiment,prototype5.png,0,even,Win32,49,125057,122046,49,49,414330,415843,409365,126590,409365,49,,,,,,visual_patterns,0,0,0,yes,1366
undefined,undefined,undefined,undefined,white,no,Mozilla,Netscape,5.0 (Windows),xpyriment,legacy,legacy,0,uniform,0,0,0,0,24,24,24,0,0,41,41,41,41,41,0,41,0,,,,,,0,,02-02-22,02-02-22,11:06:36,Wed Mar 02 2022 11:06:36 GMT+0100 (közép-európai téli idő),The main experiment item,yes,0,0,C:/Users/rrics/Documents/!!ResearchBMECOGSCI/gnet,0,0,0,prototype5.png,no,mono,no,18,no,black,no,no,768,1162,3.5.6,legacy,xpyriment,osweb,1.3.13,0,space,space,space,,21310,12359,21310,,2,legacy,826,1536,24,864,24,-7,-7,1536,1646215626680,1024,2,48000,-16,experiment,p3sarrshacol2.png,0,even,Win32,49,125057,122046,49,49,420869,422375,415889,126590,415889,49,,,,,,visual_patterns,0,0,0,yes,1366
undefined,undefined,undefined,undefined,white,no,Mozilla,Netscape,5.0 (Windows),xpyriment,legacy,legacy,0,uniform,0,0,0,0,24,24,24,0,0,42,42,42,42,42,0,42,0,,,,,,0,,02-02-22,02-02-22,11:06:36,Wed Mar 02 2022 11:06:36 GMT+0100 (közép-európai téli idő),The main experiment item,yes,0,0,C:/Users/rrics/Documents/!!ResearchBMECOGSCI/gnet,0,0,0,prototype5.png,no,mono,no,18,no,black,no,no,768,1162,3.5.6,legacy,xpyriment,osweb,1.3.13,0,space,space,space,,21310,12359,21310,,2,legacy,826,1536,24,864,24,-7,-7,1536,1646215626680,1024,2,48000,-16,experiment,p3sarrcol2.png,0,even,Win32,49,125057,122046,49,49,427402,428907,422422,126590,422422,49,,,,,,visual_patterns,0,0,0,yes,1366
undefined,undefined,undefined,undefined,white,no,Mozilla,Netscape,5.0 (Windows),xpyriment,legacy,legacy,0,uniform,0,0,0,0,24,24,24,0,0,43,43,43,43,43,0,43,0,,,,,,0,,02-02-22,02-02-22,11:06:36,Wed Mar 02 2022 11:06:36 GMT+0100 (közép-európai téli idő),The main experiment item,yes,0,0,C:/Users/rrics/Documents/!!ResearchBMECOGSCI/gnet,0,0,0,prototype5.png,no,mono,no,18,no,black,no,no,768,1162,3.5.6,legacy,xpyriment,osweb,1.3.13,0,space,space,space,,21310,12359,21310,,2,legacy,826,1536,24,864,24,-7,-7,1536,1646215626680,1024,2,48000,-16,experiment,p3sarr2.png,0,even,Win32,49,125057,122046,49,49,433946,435457,428963,126590,428962,49,,,,,,visual_patterns,0,0,0,yes,1366
undefined,undefined,undefined,undefined,white,no,Mozilla,Netscape,5.0 (Windows),xpyriment,legacy,legacy,0,uniform,0,0,0,0,24,24,24,0,0,44,44,44,44,44,0,44,0,,,,,,0,,02-02-22,02-02-22,11:06:36,Wed Mar 02 2022 11:06:36 GMT+0100 (közép-európai téli idő),The main experiment item,yes,0,0,C:/Users/rrics/Documents/!!ResearchBMECOGSCI/gnet,0,0,0,prototype5.png,no,mono,no,18,no,black,no,no,768,1162,3.5.6,legacy,xpyriment,osweb,1.3.13,0,space,space,space,,21310,12359,21310,,2,legacy,826,1536,24,864,24,-7,-7,1536,1646215626680,1024,2,48000,-16,experiment,p2sarrsha1.png,0,even,Win32,49,125057,122046,49,49,440497,442005,435508,126590,435508,49,,,,,,visual_patterns,0,0,0,yes,1366
undefined,undefined,undefined,undefined,white,no,Mozilla,Netscape,5.0 (Windows),xpyriment,legacy,legacy,0,uniform,0,0,0,0,24,24,24,0,0,45,45,45,45,45,0,45,0,,,,,,0,,02-02-22,02-02-22,11:06:36,Wed Mar 02 2022 11:06:36 GMT+0100 (közép-európai téli idő),The main experiment item,yes,0,0,C:/Users/rrics/Documents/!!ResearchBMECOGSCI/gnet,0,0,0,prototype5.png,no,mono,no,18,no,black,no,no,768,1162,3.5.6,legacy,xpyriment,osweb,1.3.13,0,space,space,space,,21310,12359,21310,,2,legacy,826,1536,24,864,24,-7,-7,1536,1646215626680,1024,2,48000,-16,experiment,p4sarrsha1.png,0,even,Win32,49,125057,122046,49,49,447038,448553,442066,126590,442066,49,,,,,,visual_patterns,0,0,0,yes,1366
undefined,undefined,undefined,undefined,white,no,Mozilla,Netscape,5.0 (Windows),xpyriment,legacy,legacy,0,uniform,0,0,0,0,24,24,24,0,0,46,46,46,46,46,0,46,0,,,,,,0,,02-02-22,02-02-22,11:06:36,Wed Mar 02 2022 11:06:36 GMT+0100 (közép-európai téli idő),The main experiment item,yes,0,0,C:/Users/rrics/Documents/!!ResearchBMECOGSCI/gnet,0,0,0,prototype5.png,no,mono,no,18,no,black,no,no,768,1162,3.5.6,legacy,xpyriment,osweb,1.3.13,0,space,space,space,,21310,12359,21310,,2,legacy,826,1536,24,864,24,-7,-7,1536,1646215626680,1024,2,48000,-16,experiment,p1sarrcol1.png,0,even,Win32,49,125057,122046,49,49,453578,455085,448612,126590,448612,49,,,,,,visual_patterns,0,0,0,yes,1366
undefined,undefined,undefined,undefined,white,no,Mozilla,Netscape,5.0 (Windows),xpyriment,legacy,legacy,0,uniform,0,0,0,0,24,24,24,0,0,47,47,47,47,47,0,47,0,,,,,,0,,02-02-22,02-02-22,11:06:36,Wed Mar 02 2022 11:06:36 GMT+0100 (közép-európai téli idő),The main experiment item,yes,0,0,C:/Users/rrics/Documents/!!ResearchBMECOGSCI/gnet,0,0,0,prototype5.png,no,mono,no,18,no,black,no,no,768,1162,3.5.6,legacy,xpyriment,osweb,1.3.13,0,space,space,space,,21310,12359,21310,,2,legacy,826,1536,24,864,24,-7,-7,1536,1646215626680,1024,2,48000,-16,experiment,p1sarrsha2.png,0,even,Win32,49,125057,122046,49,49,460119,461634,455131,126590,455131,49,,,,,,visual_patterns,0,0,0,yes,1366
undefined,undefined,undefined,undefined,white,no,Mozilla,Netscape,5.0 (Windows),xpyriment,legacy,legacy,0,uniform,0,0,0,0,24,24,24,0,0,48,48,48,48,48,0,48,0,,,,,,0,,02-02-22,02-02-22,11:06:36,Wed Mar 02 2022 11:06:36 GMT+0100 (közép-európai téli idő),The main experiment item,yes,0,0,C:/Users/rrics/Documents/!!ResearchBMECOGSCI/gnet,0,0,0,prototype5.png,no,mono,no,18,no,black,no,no,768,1162,3.5.6,legacy,xpyriment,osweb,1.3.13,0,space,space,space,,21310,12359,21310,,2,legacy,826,1536,24,864,24,-7,-7,1536,1646215626680,1024,2,48000,-16,experiment,p7sarr2.png,0,even,Win32,49,125057,122046,49,49,466664,468165,461682,126590,461682,49,,,,,,visual_patterns,0,0,0,yes,1366
undefined,undefined,undefined,undefined,white,no,Mozilla,Netscape,5.0 (Windows),xpyriment,legacy,legacy,0,uniform,0,0,0,0,24,24,24,0,0,49,49,49,49,49,0,49,0,,,,,,0,,02-02-22,02-02-22,11:06:36,Wed Mar 02 2022 11:06:36 GMT+0100 (közép-európai téli idő),The main experiment item,yes,0,0,C:/Users/rrics/Documents/!!ResearchBMECOGSCI/gnet,0,0,0,prototype5.png,no,mono,no,18,no,black,no,no,768,1162,3.5.6,legacy,xpyriment,osweb,1.3.13,0,space,space,space,,21310,12359,21310,,2,legacy,826,1536,24,864,24,-7,-7,1536,1646215626680,1024,2,48000,-16,experiment,p4sarr1.png,0,even,Win32,49,125057,122046,49,49,473190,474698,468210,126590,468210,49,,,,,,visual_patterns,0,0,0,yes,1366
undefined,undefined,undefined,undefined,white,no,Mozilla,Netscape,5.0 (Windows),xpyriment,legacy,legacy,0,uniform,0,0,0,0,24,24,24,0,0,50,50,50,50,50,0,50,0,,,,,,0,,02-02-22,02-02-22,11:06:36,Wed Mar 02 2022 11:06:36 GMT+0100 (közép-európai téli idő),The main experiment item,yes,0,0,C:/Users/rrics/Documents/!!ResearchBMECOGSCI/gnet,0,0,0,prototype5.png,no,mono,no,18,no,black,no,no,768,1162,3.5.6,legacy,xpyriment,osweb,1.3.13,0,space,space,space,,21310,12359,21310,,2,legacy,826,1536,24,864,24,-7,-7,1536,1646215626680,1024,2,48000,-16,experiment,p10sarr1.png,0,even,Win32,49,125057,122046,49,49,479727,481230,474748,126590,474748,49,,,,,,visual_patterns,0,0,0,yes,1366
undefined,undefined,undefined,undefined,white,no,Mozilla,Netscape,5.0 (Windows),xpyriment,legacy,legacy,0,uniform,0,0,0,0,24,24,24,0,0,51,51,51,51,51,0,51,0,,,,,,0,,02-02-22,02-02-22,11:06:36,Wed Mar 02 2022 11:06:36 GMT+0100 (közép-európai téli idő),The main experiment item,yes,0,0,C:/Users/rrics/Documents/!!ResearchBMECOGSCI/gnet,0,0,0,prototype5.png,no,mono,no,18,no,black,no,no,768,1162,3.5.6,legacy,xpyriment,osweb,1.3.13,0,space,space,space,,21310,12359,21310,,2,legacy,826,1536,24,864,24,-7,-7,1536,1646215626680,1024,2,48000,-16,experiment,prototype3.png,0,even,Win32,49,125057,122046,49,49,486252,487761,481279,126590,481279,49,,,,,,visual_patterns,0,0,0,yes,1366
undefined,undefined,undefined,undefined,white,no,Mozilla,Netscape,5.0 (Windows),xpyriment,legacy,legacy,0,uniform,0,0,0,0,24,24,24,0,0,52,52,52,52,52,0,52,0,,,,,,0,,02-02-22,02-02-22,11:06:36,Wed Mar 02 2022 11:06:36 GMT+0100 (közép-európai téli idő),The main experiment item,yes,0,0,C:/Users/rrics/Documents/!!ResearchBMECOGSCI/gnet,0,0,0,prototype5.png,no,mono,no,18,no,black,no,no,768,1162,3.5.6,legacy,xpyriment,osweb,1.3.13,0,space,space,space,,21310,12359,21310,,2,legacy,826,1536,24,864,24,-7,-7,1536,1646215626680,1024,2,48000,-16,experiment,p1sarr1.png,0,even,Win32,49,125057,122046,49,49,492781,494293,487803,126590,487803,49,,,,,,visual_patterns,0,0,0,yes,1366
undefined,undefined,undefined,undefined,white,no,Mozilla,Netscape,5.0 (Windows),xpyriment,legacy,legacy,0,uniform,0,0,0,0,24,24,24,0,0,53,53,53,53,53,0,53,0,,,,,,0,,02-02-22,02-02-22,11:06:36,Wed Mar 02 2022 11:06:36 GMT+0100 (közép-európai téli idő),The main experiment item,yes,0,0,C:/Users/rrics/Documents/!!ResearchBMECOGSCI/gnet,0,0,0,prototype5.png,no,mono,no,18,no,black,no,no,768,1162,3.5.6,legacy,xpyriment,osweb,1.3.13,0,space,space,space,,21310,12359,21310,,2,legacy,826,1536,24,864,24,-7,-7,1536,1646215626680,1024,2,48000,-16,experiment,p1sarrcol2.png,0,even,Win32,49,125057,122046,49,49,499316,500826,494337,126590,494337,49,,,,,,visual_patterns,0,0,0,yes,1366
undefined,undefined,undefined,undefined,white,no,Mozilla,Netscape,5.0 (Windows),xpyriment,legacy,legacy,0,uniform,0,0,0,0,24,24,24,0,0,54,54,54,54,54,0,54,0,,,,,,0,,02-02-22,02-02-22,11:06:36,Wed Mar 02 2022 11:06:36 GMT+0100 (közép-európai téli idő),The main experiment item,yes,0,0,C:/Users/rrics/Documents/!!ResearchBMECOGSCI/gnet,0,0,0,prototype5.png,no,mono,no,18,no,black,no,no,768,1162,3.5.6,legacy,xpyriment,osweb,1.3.13,0,space,space,space,,21310,12359,21310,,2,legacy,826,1536,24,864,24,-7,-7,1536,1646215626680,1024,2,48000,-16,experiment,p2sarrcol2.png,0,even,Win32,49,125057,122046,49,49,505849,507357,500881,126590,500881,49,,,,,,visual_patterns,0,0,0,yes,1366
undefined,undefined,undefined,undefined,white,no,Mozilla,Netscape,5.0 (Windows),xpyriment,legacy,legacy,0,uniform,0,0,0,0,24,24,24,0,0,55,55,55,55,55,0,55,0,,,,,,0,,02-02-22,02-02-22,11:06:36,Wed Mar 02 2022 11:06:36 GMT+0100 (közép-európai téli idő),The main experiment item,yes,0,0,C:/Users/rrics/Documents/!!ResearchBMECOGSCI/gnet,0,0,0,prototype5.png,no,mono,no,18,no,black,no,no,768,1162,3.5.6,legacy,xpyriment,osweb,1.3.13,0,space,space,space,,21310,12359,21310,,2,legacy,826,1536,24,864,24,-7,-7,1536,1646215626680,1024,2,48000,-16,experiment,prototype4.png,0,even,Win32,49,125057,122046,49,49,512386,513889,507411,126590,507411,49,,,,,,visual_patterns,0,0,0,yes,1366
undefined,undefined,undefined,undefined,white,no,Mozilla,Netscape,5.0 (Windows),xpyriment,legacy,legacy,0,uniform,0,0,0,0,24,24,24,0,0,56,56,56,56,56,0,56,0,,,,,,0,,02-02-22,02-02-22,11:06:36,Wed Mar 02 2022 11:06:36 GMT+0100 (közép-európai téli idő),The main experiment item,yes,0,0,C:/Users/rrics/Documents/!!ResearchBMECOGSCI/gnet,0,0,0,prototype5.png,no,mono,no,18,no,black,no,no,768,1162,3.5.6,legacy,xpyriment,osweb,1.3.13,0,space,space,space,,21310,12359,21310,,2,legacy,826,1536,24,864,24,-7,-7,1536,1646215626680,1024,2,48000,-16,experiment,p2sarrshacol1.png,0,even,Win32,49,125057,122046,49,49,518918,520421,513937,126590,513937,49,,,,,,visual_patterns,0,0,0,yes,1366
undefined,undefined,undefined,undefined,white,no,Mozilla,Netscape,5.0 (Windows),xpyriment,legacy,legacy,0,uniform,0,0,0,0,24,24,24,0,0,57,57,57,57,57,0,57,0,,,,,,0,,02-02-22,02-02-22,11:06:36,Wed Mar 02 2022 11:06:36 GMT+0100 (közép-európai téli idő),The main experiment item,yes,0,0,C:/Users/rrics/Documents/!!ResearchBMECOGSCI/gnet,0,0,0,prototype5.png,no,mono,no,18,no,black,no,no,768,1162,3.5.6,legacy,xpyriment,osweb,1.3.13,0,space,space,space,,21310,12359,21310,,2,legacy,826,1536,24,864,24,-7,-7,1536,1646215626680,1024,2,48000,-16,experiment,prototype5.png,0,even,Win32,49,125057,122046,49,49,525453,526970,520472,126590,520472,49,,,,,,visual_patterns,0,0,0,yes,1366
undefined,undefined,undefined,undefined,white,no,Mozilla,Netscape,5.0 (Windows),xpyriment,legacy,legacy,0,uniform,0,0,0,0,24,24,24,0,0,58,58,58,58,58,0,58,0,,,,,,0,,02-02-22,02-02-22,11:06:36,Wed Mar 02 2022 11:06:36 GMT+0100 (közép-európai téli idő),The main experiment item,yes,0,0,C:/Users/rrics/Documents/!!ResearchBMECOGSCI/gnet,0,0,0,prototype5.png,no,mono,no,18,no,black,no,no,768,1162,3.5.6,legacy,xpyriment,osweb,1.3.13,0,space,space,space,,21310,12359,21310,,2,legacy,826,1536,24,864,24,-7,-7,1536,1646215626680,1024,2,48000,-16,experiment,prototype2.png,0,even,Win32,49,125057,122046,49,49,531995,533502,527015,126590,527015,49,,,,,,visual_patterns,0,0,0,yes,1366
undefined,undefined,undefined,undefined,white,no,Mozilla,Netscape,5.0 (Windows),xpyriment,legacy,legacy,0,uniform,0,0,0,0,24,24,24,0,0,59,59,59,59,59,0,59,0,,,,,,0,,02-02-22,02-02-22,11:06:36,Wed Mar 02 2022 11:06:36 GMT+0100 (közép-európai téli idő),The main experiment item,yes,0,0,C:/Users/rrics/Documents/!!ResearchBMECOGSCI/gnet,0,0,0,prototype5.png,no,mono,no,18,no,black,no,no,768,1162,3.5.6,legacy,xpyriment,osweb,1.3.13,0,space,space,space,,21310,12359,21310,,2,legacy,826,1536,24,864,24,-7,-7,1536,1646215626680,1024,2,48000,-16,experiment,prototype5.png,0,even,Win32,49,125057,122046,49,49,538518,540033,533549,126590,533549,49,,,,,,visual_patterns,0,0,0,yes,1366
undefined,undefined,undefined,undefined,white,no,Mozilla,Netscape,5.0 (Windows),xpyriment,legacy,legacy,0,uniform,0,0,0,0,24,24,24,0,0,60,60,60,60,60,0,60,0,,,,,,0,,02-02-22,02-02-22,11:06:36,Wed Mar 02 2022 11:06:36 GMT+0100 (közép-európai téli idő),The main experiment item,yes,0,0,C:/Users/rrics/Documents/!!ResearchBMECOGSCI/gnet,0,0,0,prototype5.png,no,mono,no,18,no,black,no,no,768,1162,3.5.6,legacy,xpyriment,osweb,1.3.13,0,space,space,space,,21310,12359,21310,,2,legacy,826,1536,24,864,24,-7,-7,1536,1646215626680,1024,2,48000,-16,experiment,p1sarrshacol2.png,0,even,Win32,49,125057,122046,49,49,545072,546582,540102,126590,540102,49,,,,,,visual_patterns,0,0,0,yes,1366
undefined,undefined,undefined,undefined,white,no,Mozilla,Netscape,5.0 (Windows),xpyriment,legacy,legacy,0,uniform,0,0,0,0,24,24,24,0,0,61,61,61,61,61,0,61,0,,,,,,0,,02-02-22,02-02-22,11:06:36,Wed Mar 02 2022 11:06:36 GMT+0100 (közép-európai téli idő),The main experiment item,yes,0,0,C:/Users/rrics/Documents/!!ResearchBMECOGSCI/gnet,0,0,0,prototype5.png,no,mono,no,18,no,black,no,no,768,1162,3.5.6,legacy,xpyriment,osweb,1.3.13,0,space,space,space,,21310,12359,21310,,2,legacy,826,1536,24,864,24,-7,-7,1536,1646215626680,1024,2,48000,-16,experiment,p2sarrcol1.png,0,even,Win32,49,125057,122046,49,49,551616,553130,546635,126590,546635,49,,,,,,visual_patterns,0,0,0,yes,1366
undefined,undefined,undefined,undefined,white,no,Mozilla,Netscape,5.0 (Windows),xpyriment,legacy,legacy,0,uniform,0,0,0,0,24,24,24,0,0,62,62,62,62,62,0,62,0,,,,,,0,,02-02-22,02-02-22,11:06:36,Wed Mar 02 2022 11:06:36 GMT+0100 (közép-európai téli idő),The main experiment item,yes,0,0,C:/Users/rrics/Documents/!!ResearchBMECOGSCI/gnet,0,0,0,prototype5.png,no,mono,no,18,no,black,no,no,768,1162,3.5.6,legacy,xpyriment,osweb,1.3.13,0,space,space,space,,21310,12359,21310,,2,legacy,826,1536,24,864,24,-7,-7,1536,1646215626680,1024,2,48000,-16,experiment,p5sarr2.png,0,even,Win32,49,125057,122046,49,49,558175,559679,553189,126590,553189,49,,,,,,visual_patterns,0,0,0,yes,1366
undefined,undefined,undefined,undefined,white,no,Mozilla,Netscape,5.0 (Windows),xpyriment,legacy,legacy,0,uniform,0,0,0,0,24,24,24,0,0,63,63,63,63,63,0,63,0,,,,,,0,,02-02-22,02-02-22,11:06:36,Wed Mar 02 2022 11:06:36 GMT+0100 (közép-európai téli idő),The main experiment item,yes,0,0,C:/Users/rrics/Documents/!!ResearchBMECOGSCI/gnet,0,0,0,prototype5.png,no,mono,no,18,no,black,no,no,768,1162,3.5.6,legacy,xpyriment,osweb,1.3.13,0,space,space,space,,21310,12359,21310,,2,legacy,826,1536,24,864,24,-7,-7,1536,1646215626680,1024,2,48000,-16,experiment,p10sarr2.png,0,even,Win32,49,125057,122046,49,49,564725,566228,559756,126590,559756,49,,,,,,visual_patterns,0,0,0,yes,1366
undefined,undefined,undefined,undefined,white,no,Mozilla,Netscape,5.0 (Windows),xpyriment,legacy,legacy,0,uniform,0,0,0,0,24,24,24,0,0,64,64,64,64,64,0,64,0,,,,,,0,,02-02-22,02-02-22,11:06:36,Wed Mar 02 2022 11:06:36 GMT+0100 (közép-európai téli idő),The main experiment item,yes,0,0,C:/Users/rrics/Documents/!!ResearchBMECOGSCI/gnet,0,0,0,prototype5.png,no,mono,no,18,no,black,no,no,768,1162,3.5.6,legacy,xpyriment,osweb,1.3.13,0,space,space,space,,21310,12359,21310,,2,legacy,826,1536,24,864,24,-7,-7,1536,1646215626680,1024,2,48000,-16,experiment,prototype1.png,0,even,Win32,49,125057,122046,49,49,571265,572777,566279,126590,566279,49,,,,,,visual_patterns,0,0,0,yes,1366
undefined,undefined,undefined,undefined,white,no,Mozilla,Netscape,5.0 (Windows),xpyriment,legacy,legacy,0,uniform,0,0,0,0,24,24,24,0,0,65,65,65,65,65,0,65,0,,,,,,0,,02-02-22,02-02-22,11:06:36,Wed Mar 02 2022 11:06:36 GMT+0100 (közép-európai téli idő),The main experiment item,yes,0,0,C:/Users/rrics/Documents/!!ResearchBMECOGSCI/gnet,0,0,0,prototype5.png,no,mono,no,18,no,black,no,no,768,1162,3.5.6,legacy,xpyriment,osweb,1.3.13,0,space,space,space,,21310,12359,21310,,2,legacy,826,1536,24,864,24,-7,-7,1536,1646215626680,1024,2,48000,-16,experiment,prototype4.png,0,even,Win32,49,125057,122046,49,49,577801,579309,572823,126590,572823,49,,,,,,visual_patterns,0,0,0,yes,1366
undefined,undefined,undefined,undefined,white,no,Mozilla,Netscape,5.0 (Windows),xpyriment,legacy,legacy,0,uniform,0,0,0,0,24,24,24,0,0,66,66,66,66,66,0,66,0,,,,,,0,,02-02-22,02-02-22,11:06:36,Wed Mar 02 2022 11:06:36 GMT+0100 (közép-európai téli idő),The main experiment item,yes,0,0,C:/Users/rrics/Documents/!!ResearchBMECOGSCI/gnet,0,0,0,prototype5.png,no,mono,no,18,no,black,no,no,768,1162,3.5.6,legacy,xpyriment,osweb,1.3.13,0,space,space,space,,21310,12359,21310,,2,legacy,826,1536,24,864,24,-7,-7,1536,1646215626680,1024,2,48000,-16,experiment,p2sarrshacol2.png,0,even,Win32,49,125057,122046,49,49,584345,585857,579359,126590,579359,49,,,,,,visual_patterns,0,0,0,yes,1366
undefined,undefined,undefined,undefined,white,no,Mozilla,Netscape,5.0 (Windows),xpyriment,legacy,legacy,0,uniform,0,0,0,0,24,24,24,0,0,67,67,67,67,67,0,67,0,,,,,,0,,02-02-22,02-02-22,11:06:36,Wed Mar 02 2022 11:06:36 GMT+0100 (közép-európai téli idő),The main experiment item,yes,0,0,C:/Users/rrics/Documents/!!ResearchBMECOGSCI/gnet,0,0,0,prototype5.png,no,mono,no,18,no,black,no,no,768,1162,3.5.6,legacy,xpyriment,osweb,1.3.13,0,space,space,space,,21310,12359,21310,,2,legacy,826,1536,24,864,24,-7,-7,1536,1646215626680,1024,2,48000,-16,experiment,p1sarr2.png,0,even,Win32,49,125057,122046,49,49,590886,592389,585907,126590,585907,49,,,,,,visual_patterns,0,0,0,yes,1366
undefined,undefined,undefined,undefined,white,no,Mozilla,Netscape,5.0 (Windows),xpyriment,legacy,legacy,0,uniform,0,0,0,0,24,24,24,0,0,68,68,68,68,68,0,68,0,,,,,,0,,02-02-22,02-02-22,11:06:36,Wed Mar 02 2022 11:06:36 GMT+0100 (közép-európai téli idő),The main experiment item,yes,0,0,C:/Users/rrics/Documents/!!ResearchBMECOGSCI/gnet,0,0,0,prototype5.png,no,mono,no,18,no,black,no,no,768,1162,3.5.6,legacy,xpyriment,osweb,1.3.13,0,space,space,space,,21310,12359,21310,,2,legacy,826,1536,24,864,24,-7,-7,1536,1646215626680,1024,2,48000,-16,experiment,p6sarr2.png,0,even,Win32,49,125057,122046,49,49,597422,598937,592434,126590,592434,49,,,,,,visual_patterns,0,0,0,yes,1366
undefined,undefined,undefined,undefined,white,no,Mozilla,Netscape,5.0 (Windows),xpyriment,legacy,legacy,0,uniform,0,0,0,0,24,24,24,0,0,69,69,69,69,69,0,69,0,,,,,,0,,02-02-22,02-02-22,11:06:36,Wed Mar 02 2022 11:06:36 GMT+0100 (közép-európai téli idő),The main experiment item,yes,0,0,C:/Users/rrics/Documents/!!ResearchBMECOGSCI/gnet,0,0,0,prototype5.png,no,mono,no,18,no,black,no,no,768,1162,3.5.6,legacy,xpyriment,osweb,1.3.13,0,space,space,space,,21310,12359,21310,,2,legacy,826,1536,24,864,24,-7,-7,1536,1646215626680,1024,2,48000,-16,experiment,prototype2.png,0,even,Win32,49,125057,122046,49,49,603976,605486,598990,126590,598990,49,,,,,,visual_patterns,0,0,0,yes,1366
undefined,undefined,undefined,undefined,white,no,Mozilla,Netscape,5.0 (Windows),xpyriment,legacy,legacy,0,uniform,0,0,0,0,24,24,24,0,0,70,70,70,70,70,0,70,0,,,,,,0,,02-02-22,02-02-22,11:06:36,Wed Mar 02 2022 11:06:36 GMT+0100 (közép-európai téli idő),The main experiment item,yes,0,0,C:/Users/rrics/Documents/!!ResearchBMECOGSCI/gnet,0,0,0,prototype5.png,no,mono,no,18,no,black,no,no,768,1162,3.5.6,legacy,xpyriment,osweb,1.3.13,0,space,space,space,,21310,12359,21310,,2,legacy,826,1536,24,864,24,-7,-7,1536,1646215626680,1024,2,48000,-16,experiment,p1sarrshacol1.png,0,even,Win32,49,125057,122046,49,49,610519,612035,605536,126590,605536,49,,,,,,visual_patterns,0,0,0,yes,1366
undefined,undefined,undefined,undefined,white,no,Mozilla,Netscape,5.0 (Windows),xpyriment,legacy,legacy,0,uniform,0,0,0,0,24,24,24,0,0,71,71,71,71,71,0,71,0,,,,,,0,,02-02-22,02-02-22,11:06:36,Wed Mar 02 2022 11:06:36 GMT+0100 (közép-európai téli idő),The main experiment item,yes,0,0,C:/Users/rrics/Documents/!!ResearchBMECOGSCI/gnet,0,0,0,prototype5.png,no,mono,no,18,no,black,no,no,768,1162,3.5.6,legacy,xpyriment,osweb,1.3.13,0,space,space,space,,21310,12359,21310,,2,legacy,826,1536,24,864,24,-7,-7,1536,1646215626680,1024,2,48000,-16,experiment,prototype1.png,0,even,Win32,49,125057,122046,49,49,617070,618584,612088,126590,612088,49,,,,,,visual_patterns,0,0,0,yes,1366
undefined,undefined,undefined,undefined,white,no,Mozilla,Netscape,5.0 (Windows),xpyriment,legacy,legacy,0,uniform,0,0,0,0,24,24,24,0,0,72,72,72,72,72,0,72,0,,,,,,0,,02-02-22,02-02-22,11:06:36,Wed Mar 02 2022 11:06:36 GMT+0100 (közép-európai téli idő),The main experiment item,yes,0,0,C:/Users/rrics/Documents/!!ResearchBMECOGSCI/gnet,0,0,0,prototype5.png,no,mono,no,18,no,black,no,no,768,1162,3.5.6,legacy,xpyriment,osweb,1.3.13,0,space,space,space,,21310,12359,21310,,2,legacy,826,1536,24,864,24,-7,-7,1536,1646215626680,1024,2,48000,-16,experiment,prototype5.png,0,even,Win32,49,125057,122046,49,49,623621,625132,618633,126590,618633,49,,,,,,visual_patterns,0,0,0,yes,1366
undefined,undefined,undefined,undefined,white,no,Mozilla,Netscape,5.0 (Windows),xpyriment,legacy,legacy,0,uniform,0,0,0,0,24,24,24,0,0,73,73,73,73,73,0,73,0,,,,,,0,,02-02-22,02-02-22,11:06:36,Wed Mar 02 2022 11:06:36 GMT+0100 (közép-európai téli idő),The main experiment item,yes,0,0,C:/Users/rrics/Documents/!!ResearchBMECOGSCI/gnet,0,0,0,prototype5.png,no,mono,no,18,no,black,no,no,768,1162,3.5.6,legacy,xpyriment,osweb,1.3.13,0,space,space,space,,21310,12359,21310,,2,legacy,826,1536,24,864,24,-7,-7,1536,1646215626680,1024,2,48000,-16,experiment,prototype3.png,0,even,Win32,49,125057,122046,49,49,630158,631664,625177,126590,625176,49,,,,,,visual_patterns,0,0,0,yes,1366
undefined,undefined,undefined,undefined,white,no,Mozilla,Netscape,5.0 (Windows),xpyriment,legacy,legacy,0,uniform,0,0,0,0,24,24,24,0,0,74,74,74,74,74,0,74,0,,,,,,0,,02-02-22,02-02-22,11:06:36,Wed Mar 02 2022 11:06:36 GMT+0100 (közép-európai téli idő),The main experiment item,yes,0,0,C:/Users/rrics/Documents/!!ResearchBMECOGSCI/gnet,0,0,0,prototype5.png,no,mono,no,18,no,black,no,no,768,1162,3.5.6,legacy,xpyriment,osweb,1.3.13,0,space,space,space,,21310,12359,21310,,2,legacy,826,1536,24,864,24,-7,-7,1536,1646215626680,1024,2,48000,-16,experiment,prototype2.png,0,even,Win32,49,125057,122046,49,49,636690,638196,631711,126590,631711,49,,,,,,visual_patterns,0,0,0,yes,1366
undefined,undefined,undefined,undefined,white,no,Mozilla,Netscape,5.0 (Windows),xpyriment,legacy,legacy,0,uniform,0,0,0,0,24,24,24,0,0,74,74,74,74,74,0,74,0,0,0,0,0,0,0,0,02-02-22,02-02-22,11:06:36,Wed Mar 02 2022 11:06:36 GMT+0100 (közép-európai téli idő),The main experiment item,yes,0,0,C:/Users/rrics/Documents/!!ResearchBMECOGSCI/gnet,0,0,0,prototype5.png,no,mono,no,18,no,black,no,no,768,1162,3.5.6,legacy,xpyriment,osweb,1.3.13,0,space,space,space,space,25839,12359,21310,25839,2,legacy,826,1536,24,864,24,-7,-7,1536,1646215626680,1024,2,48000,-16,experiment,p5sarrsha3.png,0,even,Win32,49,125057,122046,49,49,636690,638196,631711,126590,631711,49,667126,668640,664144,638219,664144,visual_patterns,0,0,0,yes,1366
undefined,undefined,undefined,undefined,white,no,Mozilla,Netscape,5.0 (Windows),xpyriment,legacy,legacy,0,uniform,0,0,0,0,24,24,24,0,0,74,74,74,74,74,0,74,0,1,1,1,1,1,0,1,02-02-22,02-02-22,11:06:36,Wed Mar 02 2022 11:06:36 GMT+0100 (közép-európai téli idő),The main experiment item,yes,0,0,C:/Users/rrics/Documents/!!ResearchBMECOGSCI/gnet,0,0,0,prototype5.png,no,mono,no,18,no,black,no,no,768,1162,3.5.6,legacy,xpyriment,osweb,1.3.13,0,space,space,space,space,25839,12359,21310,25839,2,legacy,826,1536,24,864,24,-7,-7,1536,1646215626680,1024,2,48000,-16,experiment,p2sarrshacol1.png,0,even,Win32,49,125057,122046,49,49,636690,638196,631711,126590,631711,49,671686,673188,668705,638219,668705,visual_patterns,0,0,0,yes,1366
undefined,undefined,undefined,undefined,white,no,Mozilla,Netscape,5.0 (Windows),xpyriment,legacy,legacy,0,uniform,0,0,0,0,24,24,24,0,0,74,74,74,74,74,0,74,0,2,2,2,2,2,0,2,02-02-22,02-02-22,11:06:36,Wed Mar 02 2022 11:06:36 GMT+0100 (közép-európai téli idő),The main experiment item,yes,0,0,C:/Users/rrics/Documents/!!ResearchBMECOGSCI/gnet,0,0,0,prototype5.png,no,mono,no,18,no,black,no,no,768,1162,3.5.6,legacy,xpyriment,osweb,1.3.13,0,space,space,space,space,25839,12359,21310,25839,2,legacy,826,1536,24,864,24,-7,-7,1536,1646215626680,1024,2,48000,-16,experiment,p4sarr4.png,0,even,Win32,49,125057,122046,49,49,636690,638196,631711,126590,631711,49,676226,677737,673243,638219,673243,visual_patterns,0,0,0,yes,1366
undefined,undefined,undefined,undefined,white,no,Mozilla,Netscape,5.0 (Windows),xpyriment,legacy,legacy,0,uniform,0,0,0,0,24,24,24,0,0,74,74,74,74,74,0,74,0,3,3,3,3,3,0,3,02-02-22,02-02-22,11:06:36,Wed Mar 02 2022 11:06:36 GMT+0100 (közép-európai téli idő),The main experiment item,yes,0,0,C:/Users/rrics/Documents/!!ResearchBMECOGSCI/gnet,0,0,0,prototype5.png,no,mono,no,18,no,black,no,no,768,1162,3.5.6,legacy,xpyriment,osweb,1.3.13,0,space,space,space,space,25839,12359,21310,25839,2,legacy,826,1536,24,864,24,-7,-7,1536,1646215626680,1024,2,48000,-16,experiment,p5sarrsha2.png,0,even,Win32,49,125057,122046,49,49,636690,638196,631711,126590,631711,49,680770,682286,677786,638219,677786,visual_patterns,0,0,0,yes,1366
undefined,undefined,undefined,undefined,white,no,Mozilla,Netscape,5.0 (Windows),xpyriment,legacy,legacy,0,uniform,0,0,0,0,24,24,24,0,0,74,74,74,74,74,0,74,0,4,4,4,4,4,0,4,02-02-22,02-02-22,11:06:36,Wed Mar 02 2022 11:06:36 GMT+0100 (közép-európai téli idő),The main experiment item,yes,0,0,C:/Users/rrics/Documents/!!ResearchBMECOGSCI/gnet,0,0,0,prototype5.png,no,mono,no,18,no,black,no,no,768,1162,3.5.6,legacy,xpyriment,osweb,1.3.13,0,space,space,space,space,25839,12359,21310,25839,2,legacy,826,1536,24,864,24,-7,-7,1536,1646215626680,1024,2,48000,-16,experiment,p7sarr2.png,0,even,Win32,49,125057,122046,49,49,636690,638196,631711,126590,631711,49,685327,686835,682345,638219,682345,visual_patterns,0,0,0,yes,1366
undefined,undefined,undefined,undefined,white,no,Mozilla,Netscape,5.0 (Windows),xpyriment,legacy,legacy,0,uniform,0,0,0,0,24,24,24,0,0,74,74,74,74,74,0,74,0,5,5,5,5,5,0,5,02-02-22,02-02-22,11:06:36,Wed Mar 02 2022 11:06:36 GMT+0100 (közép-európai téli idő),The main experiment item,yes,0,0,C:/Users/rrics/Documents/!!ResearchBMECOGSCI/gnet,0,0,0,prototype5.png,no,mono,no,18,no,black,no,no,768,1162,3.5.6,legacy,xpyriment,osweb,1.3.13,0,space,space,space,space,25839,12359,21310,25839,2,legacy,826,1536,24,864,24,-7,-7,1536,1646215626680,1024,2,48000,-16,experiment,p1sarrsha4.png,0,even,Win32,49,125057,122046,49,49,636690,638196,631711,126590,631711,49,689867,691368,686890,638219,686890,visual_patterns,0,0,0,yes,1366
undefined,undefined,undefined,undefined,white,no,Mozilla,Netscape,5.0 (Windows),xpyriment,legacy,legacy,0,uniform,0,0,0,0,24,24,24,0,0,74,74,74,74,74,0,74,0,6,6,6,6,6,0,6,02-02-22,02-02-22,11:06:36,Wed Mar 02 2022 11:06:36 GMT+0100 (közép-európai téli idő),The main experiment item,yes,0,0,C:/Users/rrics/Documents/!!ResearchBMECOGSCI/gnet,0,0,0,prototype5.png,no,mono,no,18,no,black,no,no,768,1162,3.5.6,legacy,xpyriment,osweb,1.3.13,0,space,space,space,space,25839,12359,21310,25839,2,legacy,826,1536,24,864,24,-7,-7,1536,1646215626680,1024,2,48000,-16,experiment,p3sarrcol2.png,0,even,Win32,49,125057,122046,49,49,636690,638196,631711,126590,631711,49,694398,695900,691419,638219,691419,visual_patterns,0,0,0,yes,1366
undefined,undefined,undefined,undefined,white,no,Mozilla,Netscape,5.0 (Windows),xpyriment,legacy,legacy,0,uniform,0,0,0,0,24,24,24,0,0,74,74,74,74,74,0,74,0,7,7,7,7,7,0,7,02-02-22,02-02-22,11:06:36,Wed Mar 02 2022 11:06:36 GMT+0100 (közép-európai téli idő),The main experiment item,yes,0,0,C:/Users/rrics/Documents/!!ResearchBMECOGSCI/gnet,0,0,0,prototype5.png,no,mono,no,18,no,black,no,no,768,1162,3.5.6,legacy,xpyriment,osweb,1.3.13,0,space,space,space,space,25839,12359,21310,25839,2,legacy,826,1536,24,864,24,-7,-7,1536,1646215626680,1024,2,48000,-16,experiment,p3sarrcol3.png,0,even,Win32,49,125057,122046,49,49,636690,638196,631711,126590,631711,49,698930,700433,695956,638219,695956,visual_patterns,0,0,0,yes,1366
undefined,undefined,undefined,undefined,white,no,Mozilla,Netscape,5.0 (Windows),xpyriment,legacy,legacy,0,uniform,0,0,0,0,24,24,24,0,0,74,74,74,74,74,0,74,0,8,8,8,8,8,0,8,02-02-22,02-02-22,11:06:36,Wed Mar 02 2022 11:06:36 GMT+0100 (közép-európai téli idő),The main experiment item,yes,0,0,C:/Users/rrics/Documents/!!ResearchBMECOGSCI/gnet,0,0,0,prototype5.png,no,mono,no,18,no,black,no,no,768,1162,3.5.6,legacy,xpyriment,osweb,1.3.13,0,space,space,space,space,25839,12359,21310,25839,2,legacy,826,1536,24,864,24,-7,-7,1536,1646215626680,1024,2,48000,-16,experiment,p1sarrsha1.png,0,even,Win32,49,125057,122046,49,49,636690,638196,631711,126590,631711,49,703458,704964,700471,638219,700471,visual_patterns,0,0,0,yes,1366
undefined,undefined,undefined,undefined,white,no,Mozilla,Netscape,5.0 (Windows),xpyriment,legacy,legacy,0,uniform,0,0,0,0,24,24,24,0,0,74,74,74,74,74,0,74,0,9,9,9,9,9,0,9,02-02-22,02-02-22,11:06:36,Wed Mar 02 2022 11:06:36 GMT+0100 (közép-európai téli idő),The main experiment item,yes,0,0,C:/Users/rrics/Documents/!!ResearchBMECOGSCI/gnet,0,0,0,prototype5.png,no,mono,no,18,no,black,no,no,768,1162,3.5.6,legacy,xpyriment,osweb,1.3.13,0,space,space,space,space,25839,12359,21310,25839,2,legacy,826,1536,24,864,24,-7,-7,1536,1646215626680,1024,2,48000,-16,experiment,p4sarr1.png,0,even,Win32,49,125057,122046,49,49,636690,638196,631711,126590,631711,49,708005,709514,705025,638219,705025,visual_patterns,0,0,0,yes,1366
undefined,undefined,undefined,undefined,white,no,Mozilla,Netscape,5.0 (Windows),xpyriment,legacy,legacy,0,uniform,0,0,0,0,24,24,24,0,0,74,74,74,74,74,0,74,0,10,10,10,10,10,0,10,02-02-22,02-02-22,11:06:36,Wed Mar 02 2022 11:06:36 GMT+0100 (közép-európai téli idő),The main experiment item,yes,0,0,C:/Users/rrics/Documents/!!ResearchBMECOGSCI/gnet,0,0,0,prototype5.png,no,mono,no,18,no,black,no,no,768,1162,3.5.6,legacy,xpyriment,osweb,1.3.13,0,space,space,space,space,25839,12359,21310,25839,2,legacy,826,1536,24,864,24,-7,-7,1536,1646215626680,1024,2,48000,-16,experiment,p9sarr2.png,0,even,Win32,49,125057,122046,49,49,636690,638196,631711,126590,631711,49,712547,714063,709566,638219,709566,visual_patterns,0,0,0,yes,1366
undefined,undefined,undefined,undefined,white,no,Mozilla,Netscape,5.0 (Windows),xpyriment,legacy,legacy,0,uniform,0,0,0,0,24,24,24,0,0,74,74,74,74,74,0,74,0,11,11,11,11,11,0,11,02-02-22,02-02-22,11:06:36,Wed Mar 02 2022 11:06:36 GMT+0100 (közép-európai téli idő),The main experiment item,yes,0,0,C:/Users/rrics/Documents/!!ResearchBMECOGSCI/gnet,0,0,0,prototype5.png,no,mono,no,18,no,black,no,no,768,1162,3.5.6,legacy,xpyriment,osweb,1.3.13,0,space,space,space,space,25839,12359,21310,25839,2,legacy,826,1536,24,864,24,-7,-7,1536,1646215626680,1024,2,48000,-16,experiment,p1sarr2.png,0,even,Win32,49,125057,122046,49,49,636690,638196,631711,126590,631711,49,717103,718612,714124,638219,714123,visual_patterns,0,0,0,yes,1366
undefined,undefined,undefined,undefined,white,no,Mozilla,Netscape,5.0 (Windows),xpyriment,legacy,legacy,0,uniform,0,0,0,0,24,24,24,0,0,74,74,74,74,74,0,74,0,12,12,12,12,12,0,12,02-02-22,02-02-22,11:06:36,Wed Mar 02 2022 11:06:36 GMT+0100 (közép-európai téli idő),The main experiment item,yes,0,0,C:/Users/rrics/Documents/!!ResearchBMECOGSCI/gnet,0,0,0,prototype5.png,no,mono,no,18,no,black,no,no,768,1162,3.5.6,legacy,xpyriment,osweb,1.3.13,0,space,space,space,space,25839,12359,21310,25839,2,legacy,826,1536,24,864,24,-7,-7,1536,1646215626680,1024,2,48000,-16,experiment,p3sarrcol4.png,0,even,Win32,49,125057,122046,49,49,636690,638196,631711,126590,631711,49,721638,723144,718659,638219,718659,visual_patterns,0,0,0,yes,1366
undefined,undefined,undefined,undefined,white,no,Mozilla,Netscape,5.0 (Windows),xpyriment,legacy,legacy,0,uniform,0,0,0,0,24,24,24,0,0,74,74,74,74,74,0,74,0,13,13,13,13,13,0,13,02-02-22,02-02-22,11:06:36,Wed Mar 02 2022 11:06:36 GMT+0100 (közép-európai téli idő),The main experiment item,yes,0,0,C:/Users/rrics/Documents/!!ResearchBMECOGSCI/gnet,0,0,0,prototype5.png,no,mono,no,18,no,black,no,no,768,1162,3.5.6,legacy,xpyriment,osweb,1.3.13,0,space,space,space,space,25839,12359,21310,25839,2,legacy,826,1536,24,864,24,-7,-7,1536,1646215626680,1024,2,48000,-16,experiment,p2sarrshacol2.png,0,even,Win32,49,125057,122046,49,49,636690,638196,631711,126590,631711,49,726182,727694,723210,638219,723209,visual_patterns,0,0,0,yes,1366
undefined,undefined,undefined,undefined,white,no,Mozilla,Netscape,5.0 (Windows),xpyriment,legacy,legacy,0,uniform,0,0,0,0,24,24,24,0,0,74,74,74,74,74,0,74,0,14,14,14,14,14,0,14,02-02-22,02-02-22,11:06:36,Wed Mar 02 2022 11:06:36 GMT+0100 (közép-európai téli idő),The main experiment item,yes,0,0,C:/Users/rrics/Documents/!!ResearchBMECOGSCI/gnet,0,0,0,prototype5.png,no,mono,no,18,no,black,no,no,768,1162,3.5.6,legacy,xpyriment,osweb,1.3.13,0,space,space,space,space,25839,12359,21310,25839,2,legacy,826,1536,24,864,24,-7,-7,1536,1646215626680,1024,2,48000,-16,experiment,p6sarr1.png,0,even,Win32,49,125057,122046,49,49,636690,638196,631711,126590,631711,49,730741,732243,727758,638219,727758,visual_patterns,0,0,0,yes,1366
undefined,undefined,undefined,undefined,white,no,Mozilla,Netscape,5.0 (Windows),xpyriment,legacy,legacy,0,uniform,0,0,0,0,24,24,24,0,0,74,74,74,74,74,0,74,0,15,15,15,15,15,0,15,02-02-22,02-02-22,11:06:36,Wed Mar 02 2022 11:06:36 GMT+0100 (közép-európai téli idő),The main experiment item,yes,0,0,C:/Users/rrics/Documents/!!ResearchBMECOGSCI/gnet,0,0,0,prototype5.png,no,mono,no,18,no,black,no,no,768,1162,3.5.6,legacy,xpyriment,osweb,1.3.13,0,space,space,space,space,25839,12359,21310,25839,2,legacy,826,1536,24,864,24,-7,-7,1536,1646215626680,1024,2,48000,-16,experiment,p4sarrshacol3.png,0,even,Win32,49,125057,122046,49,49,636690,638196,631711,126590,631711,49,735286,736792,732304,638219,732303,visual_patterns,0,0,0,yes,1366
undefined,undefined,undefined,undefined,white,no,Mozilla,Netscape,5.0 (Windows),xpyriment,legacy,legacy,0,uniform,0,0,0,0,24,24,24,0,0,74,74,74,74,74,0,74,0,16,16,16,16,16,0,16,02-02-22,02-02-22,11:06:36,Wed Mar 02 2022 11:06:36 GMT+0100 (közép-európai téli idő),The main experiment item,yes,0,0,C:/Users/rrics/Documents/!!ResearchBMECOGSCI/gnet,0,0,0,prototype5.png,no,mono,no,18,no,black,no,no,768,1162,3.5.6,legacy,xpyriment,osweb,1.3.13,0,space,space,space,space,25839,12359,21310,25839,2,legacy,826,1536,24,864,24,-7,-7,1536,1646215626680,1024,2,48000,-16,experiment,p4sarrshacol4.png,0,even,Win32,49,125057,122046,49,49,636690,638196,631711,126590,631711,49,739832,741340,736855,638219,736854,visual_patterns,0,0,0,yes,1366
undefined,undefined,undefined,undefined,white,no,Mozilla,Netscape,5.0 (Windows),xpyriment,legacy,legacy,0,uniform,0,0,0,0,24,24,24,0,0,74,74,74,74,74,0,74,0,17,17,17,17,17,0,17,02-02-22,02-02-22,11:06:36,Wed Mar 02 2022 11:06:36 GMT+0100 (közép-európai téli idő),The main experiment item,yes,0,0,C:/Users/rrics/Documents/!!ResearchBMECOGSCI/gnet,0,0,0,prototype5.png,no,mono,no,18,no,black,no,no,768,1162,3.5.6,legacy,xpyriment,osweb,1.3.13,0,space,space,space,space,25839,12359,21310,25839,2,legacy,826,1536,24,864,24,-7,-7,1536,1646215626680,1024,2,48000,-16,experiment,p2sarrcol1.png,0,even,Win32,49,125057,122046,49,49,636690,638196,631711,126590,631711,49,744376,745890,741398,638219,741398,visual_patterns,0,0,0,yes,1366
undefined,undefined,undefined,undefined,white,no,Mozilla,Netscape,5.0 (Windows),xpyriment,legacy,legacy,0,uniform,0,0,0,0,24,24,24,0,0,74,74,74,74,74,0,74,0,18,18,18,18,18,0,18,02-02-22,02-02-22,11:06:36,Wed Mar 02 2022 11:06:36 GMT+0100 (közép-európai téli idő),The main experiment item,yes,0,0,C:/Users/rrics/Documents/!!ResearchBMECOGSCI/gnet,0,0,0,prototype5.png,no,mono,no,18,no,black,no,no,768,1162,3.5.6,legacy,xpyriment,osweb,1.3.13,0,space,space,space,space,25839,12359,21310,25839,2,legacy,826,1536,24,864,24,-7,-7,1536,1646215626680,1024,2,48000,-16,experiment,p1sarr4.png,0,even,Win32,49,125057,122046,49,49,636690,638196,631711,126590,631711,49,748921,750422,745946,638219,745946,visual_patterns,0,0,0,yes,1366
undefined,undefined,undefined,undefined,white,no,Mozilla,Netscape,5.0 (Windows),xpyriment,legacy,legacy,0,uniform,0,0,0,0,24,24,24,0,0,74,74,74,74,74,0,74,0,19,19,19,19,19,0,19,02-02-22,02-02-22,11:06:36,Wed Mar 02 2022 11:06:36 GMT+0100 (közép-európai téli idő),The main experiment item,yes,0,0,C:/Users/rrics/Documents/!!ResearchBMECOGSCI/gnet,0,0,0,prototype5.png,no,mono,no,18,no,black,no,no,768,1162,3.5.6,legacy,xpyriment,osweb,1.3.13,0,space,space,space,space,25839,12359,21310,25839,2,legacy,826,1536,24,864,24,-7,-7,1536,1646215626680,1024,2,48000,-16,experiment,p10sarr1.png,0,even,Win32,49,125057,122046,49,49,636690,638196,631711,126590,631711,49,753460,754970,750479,638219,750479,visual_patterns,0,0,0,yes,1366
undefined,undefined,undefined,undefined,white,no,Mozilla,Netscape,5.0 (Windows),xpyriment,legacy,legacy,0,uniform,0,0,0,0,24,24,24,0,0,74,74,74,74,74,0,74,0,20,20,20,20,20,0,20,02-02-22,02-02-22,11:06:36,Wed Mar 02 2022 11:06:36 GMT+0100 (közép-európai téli idő),The main experiment item,yes,0,0,C:/Users/rrics/Documents/!!ResearchBMECOGSCI/gnet,0,0,0,prototype5.png,no,mono,no,18,no,black,no,no,768,1162,3.5.6,legacy,xpyriment,osweb,1.3.13,0,space,space,space,space,25839,12359,21310,25839,2,legacy,826,1536,24,864,24,-7,-7,1536,1646215626680,1024,2,48000,-16,experiment,p8sarr3.png,0,even,Win32,49,125057,122046,49,49,636690,638196,631711,126590,631711,49,757991,759503,754999,638219,754999,visual_patterns,0,0,0,yes,1366
undefined,undefined,undefined,undefined,white,no,Mozilla,Netscape,5.0 (Windows),xpyriment,legacy,legacy,0,uniform,0,0,0,0,24,24,24,0,0,74,74,74,74,74,0,74,0,21,21,21,21,21,0,21,02-02-22,02-02-22,11:06:36,Wed Mar 02 2022 11:06:36 GMT+0100 (közép-európai téli idő),The main experiment item,yes,0,0,C:/Users/rrics/Documents/!!ResearchBMECOGSCI/gnet,0,0,0,prototype5.png,no,mono,no,18,no,black,no,no,768,1162,3.5.6,legacy,xpyriment,osweb,1.3.13,0,space,space,space,space,25839,12359,21310,25839,2,legacy,826,1536,24,864,24,-7,-7,1536,1646215626680,1024,2,48000,-16,experiment,p9sarr4.png,0,even,Win32,49,125057,122046,49,49,636690,638196,631711,126590,631711,49,762532,764036,759552,638219,759552,visual_patterns,0,0,0,yes,1366
undefined,undefined,undefined,undefined,white,no,Mozilla,Netscape,5.0 (Windows),xpyriment,legacy,legacy,0,uniform,0,0,0,0,24,24,24,0,0,74,74,74,74,74,0,74,0,22,22,22,22,22,0,22,02-02-22,02-02-22,11:06:36,Wed Mar 02 2022 11:06:36 GMT+0100 (közép-európai téli idő),The main experiment item,yes,0,0,C:/Users/rrics/Documents/!!ResearchBMECOGSCI/gnet,0,0,0,prototype5.png,no,mono,no,18,no,black,no,no,768,1162,3.5.6,legacy,xpyriment,osweb,1.3.13,0,space,space,space,space,25839,12359,21310,25839,2,legacy,826,1536,24,864,24,-7,-7,1536,1646215626680,1024,2,48000,-16,experiment,p5sarrcol2.png,0,even,Win32,49,125057,122046,49,49,636690,638196,631711,126590,631711,49,767072,768584,764100,638219,764100,visual_patterns,0,0,0,yes,1366
undefined,undefined,undefined,undefined,white,no,Mozilla,Netscape,5.0 (Windows),xpyriment,legacy,legacy,0,uniform,0,0,0,0,24,24,24,0,0,74,74,74,74,74,0,74,0,23,23,23,23,23,0,23,02-02-22,02-02-22,11:06:36,Wed Mar 02 2022 11:06:36 GMT+0100 (közép-európai téli idő),The main experiment item,yes,0,0,C:/Users/rrics/Documents/!!ResearchBMECOGSCI/gnet,0,0,0,prototype5.png,no,mono,no,18,no,black,no,no,768,1162,3.5.6,legacy,xpyriment,osweb,1.3.13,0,space,space,space,space,25839,12359,21310,25839,2,legacy,826,1536,24,864,24,-7,-7,1536,1646215626680,1024,2,48000,-16,experiment,p7sarr4.png,0,even,Win32,49,125057,122046,49,49,636690,638196,631711,126590,631711,49,771614,773118,768646,638219,768646,visual_patterns,0,0,0,yes,1366
undefined,undefined,undefined,undefined,white,no,Mozilla,Netscape,5.0 (Windows),xpyriment,legacy,legacy,0,uniform,0,0,0,0,24,24,24,0,0,74,74,74,74,74,0,74,0,24,24,24,24,24,0,24,02-02-22,02-02-22,11:06:36,Wed Mar 02 2022 11:06:36 GMT+0100 (közép-európai téli idő),The main experiment item,yes,0,0,C:/Users/rrics/Documents/!!ResearchBMECOGSCI/gnet,0,0,0,prototype5.png,no,mono,no,18,no,black,no,no,768,1162,3.5.6,legacy,xpyriment,osweb,1.3.13,0,space,space,space,space,25839,12359,21310,25839,2,legacy,826,1536,24,864,24,-7,-7,1536,1646215626680,1024,2,48000,-16,experiment,p3sarrsha3.png,0,even,Win32,49,125057,122046,49,49,636690,638196,631711,126590,631711,49,776144,777649,773162,638219,773162,visual_patterns,0,0,0,yes,1366
undefined,undefined,undefined,undefined,white,no,Mozilla,Netscape,5.0 (Windows),xpyriment,legacy,legacy,0,uniform,0,0,0,0,24,24,24,0,0,74,74,74,74,74,0,74,0,25,25,25,25,25,0,25,02-02-22,02-02-22,11:06:36,Wed Mar 02 2022 11:06:36 GMT+0100 (közép-európai téli idő),The main experiment item,yes,0,0,C:/Users/rrics/Documents/!!ResearchBMECOGSCI/gnet,0,0,0,prototype5.png,no,mono,no,18,no,black,no,no,768,1162,3.5.6,legacy,xpyriment,osweb,1.3.13,0,space,space,space,space,25839,12359,21310,25839,2,legacy,826,1536,24,864,24,-7,-7,1536,1646215626680,1024,2,48000,-16,experiment,p8sarr4.png,0,even,Win32,49,125057,122046,49,49,636690,638196,631711,126590,631711,49,780683,782199,777701,638219,777701,visual_patterns,0,0,0,yes,1366
undefined,undefined,undefined,undefined,white,no,Mozilla,Netscape,5.0 (Windows),xpyriment,legacy,legacy,0,uniform,0,0,0,0,24,24,24,0,0,74,74,74,74,74,0,74,0,26,26,26,26,26,0,26,02-02-22,02-02-22,11:06:36,Wed Mar 02 2022 11:06:36 GMT+0100 (közép-európai téli idő),The main experiment item,yes,0,0,C:/Users/rrics/Documents/!!ResearchBMECOGSCI/gnet,0,0,0,prototype5.png,no,mono,no,18,no,black,no,no,768,1162,3.5.6,legacy,xpyriment,osweb,1.3.13,0,space,space,space,space,25839,12359,21310,25839,2,legacy,826,1536,24,864,24,-7,-7,1536,1646215626680,1024,2,48000,-16,experiment,p2sarrshacol4.png,0,even,Win32,49,125057,122046,49,49,636690,638196,631711,126590,631711,49,785235,786748,782251,638219,782251,visual_patterns,0,0,0,yes,1366
undefined,undefined,undefined,undefined,white,no,Mozilla,Netscape,5.0 (Windows),xpyriment,legacy,legacy,0,uniform,0,0,0,0,24,24,24,0,0,74,74,74,74,74,0,74,0,27,27,27,27,27,0,27,02-02-22,02-02-22,11:06:36,Wed Mar 02 2022 11:06:36 GMT+0100 (közép-európai téli idő),The main experiment item,yes,0,0,C:/Users/rrics/Documents/!!ResearchBMECOGSCI/gnet,0,0,0,prototype5.png,no,mono,no,18,no,black,no,no,768,1162,3.5.6,legacy,xpyriment,osweb,1.3.13,0,space,space,space,space,25839,12359,21310,25839,2,legacy,826,1536,24,864,24,-7,-7,1536,1646215626680,1024,2,48000,-16,experiment,p4sarrshacol1.png,0,even,Win32,49,125057,122046,49,49,636690,638196,631711,126590,631711,49,789794,791297,786815,638219,786815,visual_patterns,0,0,0,yes,1366
undefined,undefined,undefined,undefined,white,no,Mozilla,Netscape,5.0 (Windows),xpyriment,legacy,legacy,0,uniform,0,0,0,0,24,24,24,0,0,74,74,74,74,74,0,74,0,28,28,28,28,28,0,28,02-02-22,02-02-22,11:06:36,Wed Mar 02 2022 11:06:36 GMT+0100 (közép-európai téli idő),The main experiment item,yes,0,0,C:/Users/rrics/Documents/!!ResearchBMECOGSCI/gnet,0,0,0,prototype5.png,no,mono,no,18,no,black,no,no,768,1162,3.5.6,legacy,xpyriment,osweb,1.3.13,0,space,space,space,space,25839,12359,21310,25839,2,legacy,826,1536,24,864,24,-7,-7,1536,1646215626680,1024,2,48000,-16,experiment,p1sarrshacol3.png,0,even,Win32,49,125057,122046,49,49,636690,638196,631711,126590,631711,49,794330,795846,791350,638219,791350,visual_patterns,0,0,0,yes,1366
undefined,undefined,undefined,undefined,white,no,Mozilla,Netscape,5.0 (Windows),xpyriment,legacy,legacy,0,uniform,0,0,0,0,24,24,24,0,0,74,74,74,74,74,0,74,0,29,29,29,29,29,0,29,02-02-22,02-02-22,11:06:36,Wed Mar 02 2022 11:06:36 GMT+0100 (közép-európai téli idő),The main experiment item,yes,0,0,C:/Users/rrics/Documents/!!ResearchBMECOGSCI/gnet,0,0,0,prototype5.png,no,mono,no,18,no,black,no,no,768,1162,3.5.6,legacy,xpyriment,osweb,1.3.13,0,space,space,space,space,25839,12359,21310,25839,2,legacy,826,1536,24,864,24,-7,-7,1536,1646215626680,1024,2,48000,-16,experiment,p2sarrsha1.png,0,even,Win32,49,125057,122046,49,49,636690,638196,631711,126590,631711,49,798881,800394,795897,638219,795897,visual_patterns,0,0,0,yes,1366
undefined,undefined,undefined,undefined,white,no,Mozilla,Netscape,5.0 (Windows),xpyriment,legacy,legacy,0,uniform,0,0,0,0,24,24,24,0,0,74,74,74,74,74,0,74,0,30,30,30,30,30,0,30,02-02-22,02-02-22,11:06:36,Wed Mar 02 2022 11:06:36 GMT+0100 (közép-európai téli idő),The main experiment item,yes,0,0,C:/Users/rrics/Documents/!!ResearchBMECOGSCI/gnet,0,0,0,prototype5.png,no,mono,no,18,no,black,no,no,768,1162,3.5.6,legacy,xpyriment,osweb,1.3.13,0,space,space,space,space,25839,12359,21310,25839,2,legacy,826,1536,24,864,24,-7,-7,1536,1646215626680,1024,2,48000,-16,experiment,p3sarr2.png,0,even,Win32,49,125057,122046,49,49,636690,638196,631711,126590,631711,49,803427,804944,800454,638219,800454,visual_patterns,0,0,0,yes,1366
undefined,undefined,undefined,undefined,white,no,Mozilla,Netscape,5.0 (Windows),xpyriment,legacy,legacy,0,uniform,0,0,0,0,24,24,24,0,0,74,74,74,74,74,0,74,0,31,31,31,31,31,0,31,02-02-22,02-02-22,11:06:36,Wed Mar 02 2022 11:06:36 GMT+0100 (közép-európai téli idő),The main experiment item,yes,0,0,C:/Users/rrics/Documents/!!ResearchBMECOGSCI/gnet,0,0,0,prototype5.png,no,mono,no,18,no,black,no,no,768,1162,3.5.6,legacy,xpyriment,osweb,1.3.13,0,space,space,space,space,25839,12359,21310,25839,2,legacy,826,1536,24,864,24,-7,-7,1536,1646215626680,1024,2,48000,-16,experiment,p3sarrshacol3.png,0,even,Win32,49,125057,122046,49,49,636690,638196,631711,126590,631711,49,807977,809493,804994,638219,804994,visual_patterns,0,0,0,yes,1366
undefined,undefined,undefined,undefined,white,no,Mozilla,Netscape,5.0 (Windows),xpyriment,legacy,legacy,0,uniform,0,0,0,0,24,24,24,0,0,74,74,74,74,74,0,74,0,32,32,32,32,32,0,32,02-02-22,02-02-22,11:06:36,Wed Mar 02 2022 11:06:36 GMT+0100 (közép-európai téli idő),The main experiment item,yes,0,0,C:/Users/rrics/Documents/!!ResearchBMECOGSCI/gnet,0,0,0,prototype5.png,no,mono,no,18,no,black,no,no,768,1162,3.5.6,legacy,xpyriment,osweb,1.3.13,0,space,space,space,space,25839,12359,21310,25839,2,legacy,826,1536,24,864,24,-7,-7,1536,1646215626680,1024,2,48000,-16,experiment,p2sarrcol4.png,0,even,Win32,49,125057,122046,49,49,636690,638196,631711,126590,631711,49,812534,814042,809565,638219,809565,visual_patterns,0,0,0,yes,1366
undefined,undefined,undefined,undefined,white,no,Mozilla,Netscape,5.0 (Windows),xpyriment,legacy,legacy,0,uniform,0,0,0,0,24,24,24,0,0,74,74,74,74,74,0,74,0,33,33,33,33,33,0,33,02-02-22,02-02-22,11:06:36,Wed Mar 02 2022 11:06:36 GMT+0100 (közép-európai téli idő),The main experiment item,yes,0,0,C:/Users/rrics/Documents/!!ResearchBMECOGSCI/gnet,0,0,0,prototype5.png,no,mono,no,18,no,black,no,no,768,1162,3.5.6,legacy,xpyriment,osweb,1.3.13,0,space,space,space,space,25839,12359,21310,25839,2,legacy,826,1536,24,864,24,-7,-7,1536,1646215626680,1024,2,48000,-16,experiment,p5sarrcol1.png,0,even,Win32,49,125057,122046,49,49,636690,638196,631711,126590,631711,49,817075,818591,814104,638219,814104,visual_patterns,0,0,0,yes,1366
undefined,undefined,undefined,undefined,white,no,Mozilla,Netscape,5.0 (Windows),xpyriment,legacy,legacy,0,uniform,0,0,0,0,24,24,24,0,0,74,74,74,74,74,0,74,0,34,34,34,34,34,0,34,02-02-22,02-02-22,11:06:36,Wed Mar 02 2022 11:06:36 GMT+0100 (közép-európai téli idő),The main experiment item,yes,0,0,C:/Users/rrics/Documents/!!ResearchBMECOGSCI/gnet,0,0,0,prototype5.png,no,mono,no,18,no,black,no,no,768,1162,3.5.6,legacy,xpyriment,osweb,1.3.13,0,space,space,space,space,25839,12359,21310,25839,2,legacy,826,1536,24,864,24,-7,-7,1536,1646215626680,1024,2,48000,-16,experiment,p8sarr2.png,0,even,Win32,49,125057,122046,49,49,636690,638196,631711,126590,631711,49,821621,823123,818639,638219,818639,visual_patterns,0,0,0,yes,1366
undefined,undefined,undefined,undefined,white,no,Mozilla,Netscape,5.0 (Windows),xpyriment,legacy,legacy,0,uniform,0,0,0,0,24,24,24,0,0,74,74,74,74,74,0,74,0,35,35,35,35,35,0,35,02-02-22,02-02-22,11:06:36,Wed Mar 02 2022 11:06:36 GMT+0100 (közép-európai téli idő),The main experiment item,yes,0,0,C:/Users/rrics/Documents/!!ResearchBMECOGSCI/gnet,0,0,0,prototype5.png,no,mono,no,18,no,black,no,no,768,1162,3.5.6,legacy,xpyriment,osweb,1.3.13,0,space,space,space,space,25839,12359,21310,25839,2,legacy,826,1536,24,864,24,-7,-7,1536,1646215626680,1024,2,48000,-16,experiment,p5sarr3.png,0,even,Win32,49,125057,122046,49,49,636690,638196,631711,126590,631711,49,826155,827672,823167,638219,823167,visual_patterns,0,0,0,yes,1366
undefined,undefined,undefined,undefined,white,no,Mozilla,Netscape,5.0 (Windows),xpyriment,legacy,legacy,0,uniform,0,0,0,0,24,24,24,0,0,74,74,74,74,74,0,74,0,36,36,36,36,36,0,36,02-02-22,02-02-22,11:06:36,Wed Mar 02 2022 11:06:36 GMT+0100 (közép-európai téli idő),The main experiment item,yes,0,0,C:/Users/rrics/Documents/!!ResearchBMECOGSCI/gnet,0,0,0,prototype5.png,no,mono,no,18,no,black,no,no,768,1162,3.5.6,legacy,xpyriment,osweb,1.3.13,0,space,space,space,space,25839,12359,21310,25839,2,legacy,826,1536,24,864,24,-7,-7,1536,1646215626680,1024,2,48000,-16,experiment,p7sarr1.png,0,even,Win32,49,125057,122046,49,49,636690,638196,631711,126590,631711,49,830702,832205,827734,638219,827734,visual_patterns,0,0,0,yes,1366
undefined,undefined,undefined,undefined,white,no,Mozilla,Netscape,5.0 (Windows),xpyriment,legacy,legacy,0,uniform,0,0,0,0,24,24,24,0,0,74,74,74,74,74,0,74,0,37,37,37,37,37,0,37,02-02-22,02-02-22,11:06:36,Wed Mar 02 2022 11:06:36 GMT+0100 (közép-európai téli idő),The main experiment item,yes,0,0,C:/Users/rrics/Documents/!!ResearchBMECOGSCI/gnet,0,0,0,prototype5.png,no,mono,no,18,no,black,no,no,768,1162,3.5.6,legacy,xpyriment,osweb,1.3.13,0,space,space,space,space,25839,12359,21310,25839,2,legacy,826,1536,24,864,24,-7,-7,1536,1646215626680,1024,2,48000,-16,experiment,p1sarrcol4.png,0,even,Win32,49,125057,122046,49,49,636690,638196,631711,126590,631711,49,835233,836737,832257,638219,832257,visual_patterns,0,0,0,yes,1366
undefined,undefined,undefined,undefined,white,no,Mozilla,Netscape,5.0 (Windows),xpyriment,legacy,legacy,0,uniform,0,0,0,0,24,24,24,0,0,74,74,74,74,74,0,74,0,38,38,38,38,38,0,38,02-02-22,02-02-22,11:06:36,Wed Mar 02 2022 11:06:36 GMT+0100 (közép-európai téli idő),The main experiment item,yes,0,0,C:/Users/rrics/Documents/!!ResearchBMECOGSCI/gnet,0,0,0,prototype5.png,no,mono,no,18,no,black,no,no,768,1162,3.5.6,legacy,xpyriment,osweb,1.3.13,0,space,space,space,space,25839,12359,21310,25839,2,legacy,826,1536,24,864,24,-7,-7,1536,1646215626680,1024,2,48000,-16,experiment,p3sarrsha4.png,0,even,Win32,49,125057,122046,49,49,636690,638196,631711,126590,631711,49,839771,841286,836788,638219,836788,visual_patterns,0,0,0,yes,1366
undefined,undefined,undefined,undefined,white,no,Mozilla,Netscape,5.0 (Windows),xpyriment,legacy,legacy,0,uniform,0,0,0,0,24,24,24,0,0,74,74,74,74,74,0,74,0,39,39,39,39,39,0,39,02-02-22,02-02-22,11:06:36,Wed Mar 02 2022 11:06:36 GMT+0100 (közép-európai téli idő),The main experiment item,yes,0,0,C:/Users/rrics/Documents/!!ResearchBMECOGSCI/gnet,0,0,0,prototype5.png,no,mono,no,18,no,black,no,no,768,1162,3.5.6,legacy,xpyriment,osweb,1.3.13,0,space,space,space,space,25839,12359,21310,25839,2,legacy,826,1536,24,864,24,-7,-7,1536,1646215626680,1024,2,48000,-16,experiment,p3sarr1.png,0,even,Win32,49,125057,122046,49,49,636690,638196,631711,126590,631711,49,844315,845818,841350,638219,841349,visual_patterns,0,0,0,yes,1366
undefined,undefined,undefined,undefined,white,no,Mozilla,Netscape,5.0 (Windows),xpyriment,legacy,legacy,0,uniform,0,0,0,0,24,24,24,0,0,74,74,74,74,74,0,74,0,40,40,40,40,40,0,40,02-02-22,02-02-22,11:06:36,Wed Mar 02 2022 11:06:36 GMT+0100 (közép-európai téli idő),The main experiment item,yes,0,0,C:/Users/rrics/Documents/!!ResearchBMECOGSCI/gnet,0,0,0,prototype5.png,no,mono,no,18,no,black,no,no,768,1162,3.5.6,legacy,xpyriment,osweb,1.3.13,0,space,space,space,space,25839,12359,21310,25839,2,legacy,826,1536,24,864,24,-7,-7,1536,1646215626680,1024,2,48000,-16,experiment,p2sarrsha3.png,0,even,Win32,49,125057,122046,49,49,636690,638196,631711,126590,631711,49,848849,850351,845871,638219,845871,visual_patterns,0,0,0,yes,1366
undefined,undefined,undefined,undefined,white,no,Mozilla,Netscape,5.0 (Windows),xpyriment,legacy,legacy,0,uniform,0,0,0,0,24,24,24,0,0,74,74,74,74,74,0,74,0,41,41,41,41,41,0,41,02-02-22,02-02-22,11:06:36,Wed Mar 02 2022 11:06:36 GMT+0100 (közép-európai téli idő),The main experiment item,yes,0,0,C:/Users/rrics/Documents/!!ResearchBMECOGSCI/gnet,0,0,0,prototype5.png,no,mono,no,18,no,black,no,no,768,1162,3.5.6,legacy,xpyriment,osweb,1.3.13,0,space,space,space,space,25839,12359,21310,25839,2,legacy,826,1536,24,864,24,-7,-7,1536,1646215626680,1024,2,48000,-16,experiment,p9sarr3.png,0,even,Win32,49,125057,122046,49,49,636690,638196,631711,126590,631711,49,853381,854883,850413,638219,850413,visual_patterns,0,0,0,yes,1366
undefined,undefined,undefined,undefined,white,no,Mozilla,Netscape,5.0 (Windows),xpyriment,legacy,legacy,0,uniform,0,0,0,0,24,24,24,0,0,74,74,74,74,74,0,74,0,42,42,42,42,42,0,42,02-02-22,02-02-22,11:06:36,Wed Mar 02 2022 11:06:36 GMT+0100 (közép-európai téli idő),The main experiment item,yes,0,0,C:/Users/rrics/Documents/!!ResearchBMECOGSCI/gnet,0,0,0,prototype5.png,no,mono,no,18,no,black,no,no,768,1162,3.5.6,legacy,xpyriment,osweb,1.3.13,0,space,space,space,space,25839,12359,21310,25839,2,legacy,826,1536,24,864,24,-7,-7,1536,1646215626680,1024,2,48000,-16,experiment,p10sarr4.png,0,even,Win32,49,125057,122046,49,49,636690,638196,631711,126590,631711,49,857915,859432,854935,638219,854935,visual_patterns,0,0,0,yes,1366
undefined,undefined,undefined,undefined,white,no,Mozilla,Netscape,5.0 (Windows),xpyriment,legacy,legacy,0,uniform,0,0,0,0,24,24,24,0,0,74,74,74,74,74,0,74,0,43,43,43,43,43,0,43,02-02-22,02-02-22,11:06:36,Wed Mar 02 2022 11:06:36 GMT+0100 (közép-európai téli idő),The main experiment item,yes,0,0,C:/Users/rrics/Documents/!!ResearchBMECOGSCI/gnet,0,0,0,prototype5.png,no,mono,no,18,no,black,no,no,768,1162,3.5.6,legacy,xpyriment,osweb,1.3.13,0,space,space,space,space,25839,12359,21310,25839,2,legacy,826,1536,24,864,24,-7,-7,1536,1646215626680,1024,2,48000,-16,experiment,p4sarrcol1.png,0,even,Win32,49,125057,122046,49,49,636690,638196,631711,126590,631711,49,862464,863981,859479,638219,859479,visual_patterns,0,0,0,yes,1366
undefined,undefined,undefined,undefined,white,no,Mozilla,Netscape,5.0 (Windows),xpyriment,legacy,legacy,0,uniform,0,0,0,0,24,24,24,0,0,74,74,74,74,74,0,74,0,44,44,44,44,44,0,44,02-02-22,02-02-22,11:06:36,Wed Mar 02 2022 11:06:36 GMT+0100 (közép-európai téli idő),The main experiment item,yes,0,0,C:/Users/rrics/Documents/!!ResearchBMECOGSCI/gnet,0,0,0,prototype5.png,no,mono,no,18,no,black,no,no,768,1162,3.5.6,legacy,xpyriment,osweb,1.3.13,0,space,space,space,space,25839,12359,21310,25839,2,legacy,826,1536,24,864,24,-7,-7,1536,1646215626680,1024,2,48000,-16,experiment,p5sarrshacol4.png,0,even,Win32,49,125057,122046,49,49,636690,638196,631711,126590,631711,49,867010,868513,864031,638219,864031,visual_patterns,0,0,0,yes,1366
undefined,undefined,undefined,undefined,white,no,Mozilla,Netscape,5.0 (Windows),xpyriment,legacy,legacy,0,uniform,0,0,0,0,24,24,24,0,0,74,74,74,74,74,0,74,0,45,45,45,45,45,0,45,02-02-22,02-02-22,11:06:36,Wed Mar 02 2022 11:06:36 GMT+0100 (közép-európai téli idő),The main experiment item,yes,0,0,C:/Users/rrics/Documents/!!ResearchBMECOGSCI/gnet,0,0,0,prototype5.png,no,mono,no,18,no,black,no,no,768,1162,3.5.6,legacy,xpyriment,osweb,1.3.13,0,space,space,space,space,25839,12359,21310,25839,2,legacy,826,1536,24,864,24,-7,-7,1536,1646215626680,1024,2,48000,-16,experiment,p3sarr3.png,0,even,Win32,49,125057,122046,49,49,636690,638196,631711,126590,631711,49,871557,873063,868573,638219,868573,visual_patterns,0,0,0,yes,1366
undefined,undefined,undefined,undefined,white,no,Mozilla,Netscape,5.0 (Windows),xpyriment,legacy,legacy,0,uniform,0,0,0,0,24,24,24,0,0,74,74,74,74,74,0,74,0,46,46,46,46,46,0,46,02-02-22,02-02-22,11:06:36,Wed Mar 02 2022 11:06:36 GMT+0100 (közép-európai téli idő),The main experiment item,yes,0,0,C:/Users/rrics/Documents/!!ResearchBMECOGSCI/gnet,0,0,0,prototype5.png,no,mono,no,18,no,black,no,no,768,1162,3.5.6,legacy,xpyriment,osweb,1.3.13,0,space,space,space,space,25839,12359,21310,25839,2,legacy,826,1536,24,864,24,-7,-7,1536,1646215626680,1024,2,48000,-16,experiment,p2sarr3.png,0,even,Win32,49,125057,122046,49,49,636690,638196,631711,126590,631711,49,876104,877612,873125,638219,873125,visual_patterns,0,0,0,yes,1366
undefined,undefined,undefined,undefined,white,no,Mozilla,Netscape,5.0 (Windows),xpyriment,legacy,legacy,0,uniform,0,0,0,0,24,24,24,0,0,74,74,74,74,74,0,74,0,47,47,47,47,47,0,47,02-02-22,02-02-22,11:06:36,Wed Mar 02 2022 11:06:36 GMT+0100 (közép-európai téli idő),The main experiment item,yes,0,0,C:/Users/rrics/Documents/!!ResearchBMECOGSCI/gnet,0,0,0,prototype5.png,no,mono,no,18,no,black,no,no,768,1162,3.5.6,legacy,xpyriment,osweb,1.3.13,0,space,space,space,space,25839,12359,21310,25839,2,legacy,826,1536,24,864,24,-7,-7,1536,1646215626680,1024,2,48000,-16,experiment,p4sarr2.png,0,even,Win32,49,125057,122046,49,49,636690,638196,631711,126590,631711,49,880646,882161,877666,638219,877666,visual_patterns,0,0,0,yes,1366
undefined,undefined,undefined,undefined,white,no,Mozilla,Netscape,5.0 (Windows),xpyriment,legacy,legacy,0,uniform,0,0,0,0,24,24,24,0,0,74,74,74,74,74,0,74,0,48,48,48,48,48,0,48,02-02-22,02-02-22,11:06:36,Wed Mar 02 2022 11:06:36 GMT+0100 (közép-európai téli idő),The main experiment item,yes,0,0,C:/Users/rrics/Documents/!!ResearchBMECOGSCI/gnet,0,0,0,prototype5.png,no,mono,no,18,no,black,no,no,768,1162,3.5.6,legacy,xpyriment,osweb,1.3.13,0,space,space,space,space,25839,12359,21310,25839,2,legacy,826,1536,24,864,24,-7,-7,1536,1646215626680,1024,2,48000,-16,experiment,p2sarrshacol3.png,0,even,Win32,49,125057,122046,49,49,636690,638196,631711,126590,631711,49,885203,886710,882218,638219,882218,visual_patterns,0,0,0,yes,1366
undefined,undefined,undefined,undefined,white,no,Mozilla,Netscape,5.0 (Windows),xpyriment,legacy,legacy,0,uniform,0,0,0,0,24,24,24,0,0,74,74,74,74,74,0,74,0,49,49,49,49,49,0,49,02-02-22,02-02-22,11:06:36,Wed Mar 02 2022 11:06:36 GMT+0100 (közép-európai téli idő),The main experiment item,yes,0,0,C:/Users/rrics/Documents/!!ResearchBMECOGSCI/gnet,0,0,0,prototype5.png,no,mono,no,18,no,black,no,no,768,1162,3.5.6,legacy,xpyriment,osweb,1.3.13,0,space,space,space,space,25839,12359,21310,25839,2,legacy,826,1536,24,864,24,-7,-7,1536,1646215626680,1024,2,48000,-16,experiment,p2sarrcol2.png,0,even,Win32,49,125057,122046,49,49,636690,638196,631711,126590,631711,49,889740,891242,886773,638219,886773,visual_patterns,0,0,0,yes,1366
undefined,undefined,undefined,undefined,white,no,Mozilla,Netscape,5.0 (Windows),xpyriment,legacy,legacy,0,uniform,0,0,0,0,24,24,24,0,0,74,74,74,74,74,0,74,0,50,50,50,50,50,0,50,02-02-22,02-02-22,11:06:36,Wed Mar 02 2022 11:06:36 GMT+0100 (közép-európai téli idő),The main experiment item,yes,0,0,C:/Users/rrics/Documents/!!ResearchBMECOGSCI/gnet,0,0,0,prototype5.png,no,mono,no,18,no,black,no,no,768,1162,3.5.6,legacy,xpyriment,osweb,1.3.13,0,space,space,space,space,25839,12359,21310,25839,2,legacy,826,1536,24,864,24,-7,-7,1536,1646215626680,1024,2,48000,-16,experiment,p4sarrsha3.png,0,even,Win32,49,125057,122046,49,49,636690,638196,631711,126590,631711,49,894276,895790,891301,638219,891301,visual_patterns,0,0,0,yes,1366
undefined,undefined,undefined,undefined,white,no,Mozilla,Netscape,5.0 (Windows),xpyriment,legacy,legacy,0,uniform,0,0,0,0,24,24,24,0,0,74,74,74,74,74,0,74,0,51,51,51,51,51,0,51,02-02-22,02-02-22,11:06:36,Wed Mar 02 2022 11:06:36 GMT+0100 (közép-európai téli idő),The main experiment item,yes,0,0,C:/Users/rrics/Documents/!!ResearchBMECOGSCI/gnet,0,0,0,prototype5.png,no,mono,no,18,no,black,no,no,768,1162,3.5.6,legacy,xpyriment,osweb,1.3.13,0,space,space,space,space,25839,12359,21310,25839,2,legacy,826,1536,24,864,24,-7,-7,1536,1646215626680,1024,2,48000,-16,experiment,p4sarrsha1.png,0,even,Win32,49,125057,122046,49,49,636690,638196,631711,126590,631711,49,898826,900340,895854,638219,895854,visual_patterns,0,0,0,yes,1366
undefined,undefined,undefined,undefined,white,no,Mozilla,Netscape,5.0 (Windows),xpyriment,legacy,legacy,0,uniform,0,0,0,0,24,24,24,0,0,74,74,74,74,74,0,74,0,52,52,52,52,52,0,52,02-02-22,02-02-22,11:06:36,Wed Mar 02 2022 11:06:36 GMT+0100 (közép-európai téli idő),The main experiment item,yes,0,0,C:/Users/rrics/Documents/!!ResearchBMECOGSCI/gnet,0,0,0,prototype5.png,no,mono,no,18,no,black,no,no,768,1162,3.5.6,legacy,xpyriment,osweb,1.3.13,0,space,space,space,space,25839,12359,21310,25839,2,legacy,826,1536,24,864,24,-7,-7,1536,1646215626680,1024,2,48000,-16,experiment,p5sarrshacol3.png,0,even,Win32,49,125057,122046,49,49,636690,638196,631711,126590,631711,49,903373,904889,900393,638219,900393,visual_patterns,0,0,0,yes,1366
undefined,undefined,undefined,undefined,white,no,Mozilla,Netscape,5.0 (Windows),xpyriment,legacy,legacy,0,uniform,0,0,0,0,24,24,24,0,0,74,74,74,74,74,0,74,0,53,53,53,53,53,0,53,02-02-22,02-02-22,11:06:36,Wed Mar 02 2022 11:06:36 GMT+0100 (közép-európai téli idő),The main experiment item,yes,0,0,C:/Users/rrics/Documents/!!ResearchBMECOGSCI/gnet,0,0,0,prototype5.png,no,mono,no,18,no,black,no,no,768,1162,3.5.6,legacy,xpyriment,osweb,1.3.13,0,space,space,space,space,25839,12359,21310,25839,2,legacy,826,1536,24,864,24,-7,-7,1536,1646215626680,1024,2,48000,-16,experiment,p5sarrshacol2.png,0,even,Win32,49,125057,122046,49,49,636690,638196,631711,126590,631711,49,907919,909421,904945,638219,904945,visual_patterns,0,0,0,yes,1366
undefined,undefined,undefined,undefined,white,no,Mozilla,Netscape,5.0 (Windows),xpyriment,legacy,legacy,0,uniform,0,0,0,0,24,24,24,0,0,74,74,74,74,74,0,74,0,54,54,54,54,54,0,54,02-02-22,02-02-22,11:06:36,Wed Mar 02 2022 11:06:36 GMT+0100 (közép-európai téli idő),The main experiment item,yes,0,0,C:/Users/rrics/Documents/!!ResearchBMECOGSCI/gnet,0,0,0,prototype5.png,no,mono,no,18,no,black,no,no,768,1162,3.5.6,legacy,xpyriment,osweb,1.3.13,0,space,space,space,space,25839,12359,21310,25839,2,legacy,826,1536,24,864,24,-7,-7,1536,1646215626680,1024,2,48000,-16,experiment,p1sarrsha3.png,0,even,Win32,49,125057,122046,49,49,636690,638196,631711,126590,631711,49,912448,913954,909474,638219,909474,visual_patterns,0,0,0,yes,1366
undefined,undefined,undefined,undefined,white,no,Mozilla,Netscape,5.0 (Windows),xpyriment,legacy,legacy,0,uniform,0,0,0,0,24,24,24,0,0,74,74,74,74,74,0,74,0,55,55,55,55,55,0,55,02-02-22,02-02-22,11:06:36,Wed Mar 02 2022 11:06:36 GMT+0100 (közép-európai téli idő),The main experiment item,yes,0,0,C:/Users/rrics/Documents/!!ResearchBMECOGSCI/gnet,0,0,0,prototype5.png,no,mono,no,18,no,black,no,no,768,1162,3.5.6,legacy,xpyriment,osweb,1.3.13,0,space,space,space,space,25839,12359,21310,25839,2,legacy,826,1536,24,864,24,-7,-7,1536,1646215626680,1024,2,48000,-16,experiment,p3sarrshacol2.png,0,even,Win32,49,125057,122046,49,49,636690,638196,631711,126590,631711,49,916980,918486,914004,638219,914004,visual_patterns,0,0,0,yes,1366
undefined,undefined,undefined,undefined,white,no,Mozilla,Netscape,5.0 (Windows),xpyriment,legacy,legacy,0,uniform,0,0,0,0,24,24,24,0,0,74,74,74,74,74,0,74,0,56,56,56,56,56,0,56,02-02-22,02-02-22,11:06:36,Wed Mar 02 2022 11:06:36 GMT+0100 (közép-európai téli idő),The main experiment item,yes,0,0,C:/Users/rrics/Documents/!!ResearchBMECOGSCI/gnet,0,0,0,prototype5.png,no,mono,no,18,no,black,no,no,768,1162,3.5.6,legacy,xpyriment,osweb,1.3.13,0,space,space,space,space,25839,12359,21310,25839,2,legacy,826,1536,24,864,24,-7,-7,1536,1646215626680,1024,2,48000,-16,experiment,p10sarr2.png,0,even,Win32,49,125057,122046,49,49,636690,638196,631711,126590,631711,49,921515,923019,918540,638219,918540,visual_patterns,0,0,0,yes,1366
undefined,undefined,undefined,undefined,white,no,Mozilla,Netscape,5.0 (Windows),xpyriment,legacy,legacy,0,uniform,0,0,0,0,24,24,24,0,0,74,74,74,74,74,0,74,0,57,57,57,57,57,0,57,02-02-22,02-02-22,11:06:36,Wed Mar 02 2022 11:06:36 GMT+0100 (közép-európai téli idő),The main experiment item,yes,0,0,C:/Users/rrics/Documents/!!ResearchBMECOGSCI/gnet,0,0,0,prototype5.png,no,mono,no,18,no,black,no,no,768,1162,3.5.6,legacy,xpyriment,osweb,1.3.13,0,space,space,space,space,25839,12359,21310,25839,2,legacy,826,1536,24,864,24,-7,-7,1536,1646215626680,1024,2,48000,-16,experiment,p5sarrcol3.png,0,even,Win32,49,125057,122046,49,49,636690,638196,631711,126590,631711,49,926056,927567,923069,638219,923069,visual_patterns,0,0,0,yes,1366
undefined,undefined,undefined,undefined,white,no,Mozilla,Netscape,5.0 (Windows),xpyriment,legacy,legacy,0,uniform,0,0,0,0,24,24,24,0,0,74,74,74,74,74,0,74,0,58,58,58,58,58,0,58,02-02-22,02-02-22,11:06:36,Wed Mar 02 2022 11:06:36 GMT+0100 (közép-európai téli idő),The main experiment item,yes,0,0,C:/Users/rrics/Documents/!!ResearchBMECOGSCI/gnet,0,0,0,prototype5.png,no,mono,no,18,no,black,no,no,768,1162,3.5.6,legacy,xpyriment,osweb,1.3.13,0,space,space,space,space,25839,12359,21310,25839,2,legacy,826,1536,24,864,24,-7,-7,1536,1646215626680,1024,2,48000,-16,experiment,p5sarr4.png,0,even,Win32,49,125057,122046,49,49,636690,638196,631711,126590,631711,49,930621,932134,927642,638219,927642,visual_patterns,0,0,0,yes,1366
undefined,undefined,undefined,undefined,white,no,Mozilla,Netscape,5.0 (Windows),xpyriment,legacy,legacy,0,uniform,0,0,0,0,24,24,24,0,0,74,74,74,74,74,0,74,0,59,59,59,59,59,0,59,02-02-22,02-02-22,11:06:36,Wed Mar 02 2022 11:06:36 GMT+0100 (közép-európai téli idő),The main experiment item,yes,0,0,C:/Users/rrics/Documents/!!ResearchBMECOGSCI/gnet,0,0,0,prototype5.png,no,mono,no,18,no,black,no,no,768,1162,3.5.6,legacy,xpyriment,osweb,1.3.13,0,space,space,space,space,25839,12359,21310,25839,2,legacy,826,1536,24,864,24,-7,-7,1536,1646215626680,1024,2,48000,-16,experiment,p3sarrsha1.png,0,even,Win32,49,125057,122046,49,49,636690,638196,631711,126590,631711,49,935176,936682,932189,638219,932189,visual_patterns,0,0,0,yes,1366
undefined,undefined,undefined,undefined,white,no,Mozilla,Netscape,5.0 (Windows),xpyriment,legacy,legacy,0,uniform,0,0,0,0,24,24,24,0,0,74,74,74,74,74,0,74,0,60,60,60,60,60,0,60,02-02-22,02-02-22,11:06:36,Wed Mar 02 2022 11:06:36 GMT+0100 (közép-európai téli idő),The main experiment item,yes,0,0,C:/Users/rrics/Documents/!!ResearchBMECOGSCI/gnet,0,0,0,prototype5.png,no,mono,no,18,no,black,no,no,768,1162,3.5.6,legacy,xpyriment,osweb,1.3.13,0,space,space,space,space,25839,12359,21310,25839,2,legacy,826,1536,24,864,24,-7,-7,1536,1646215626680,1024,2,48000,-16,experiment,p5sarr1.png,0,even,Win32,49,125057,122046,49,49,636690,638196,631711,126590,631711,49,939721,941231,936744,638219,936744,visual_patterns,0,0,0,yes,1366
undefined,undefined,undefined,undefined,white,no,Mozilla,Netscape,5.0 (Windows),xpyriment,legacy,legacy,0,uniform,0,0,0,0,24,24,24,0,0,74,74,74,74,74,0,74,0,61,61,61,61,61,0,61,02-02-22,02-02-22,11:06:36,Wed Mar 02 2022 11:06:36 GMT+0100 (közép-európai téli idő),The main experiment item,yes,0,0,C:/Users/rrics/Documents/!!ResearchBMECOGSCI/gnet,0,0,0,prototype5.png,no,mono,no,18,no,black,no,no,768,1162,3.5.6,legacy,xpyriment,osweb,1.3.13,0,space,space,space,space,25839,12359,21310,25839,2,legacy,826,1536,24,864,24,-7,-7,1536,1646215626680,1024,2,48000,-16,experiment,p1sarrcol2.png,0,even,Win32,49,125057,122046,49,49,636690,638196,631711,126590,631711,49,944264,945780,941277,638219,941277,visual_patterns,0,0,0,yes,1366
undefined,undefined,undefined,undefined,white,no,Mozilla,Netscape,5.0 (Windows),xpyriment,legacy,legacy,0,uniform,0,0,0,0,24,24,24,0,0,74,74,74,74,74,0,74,0,62,62,62,62,62,0,62,02-02-22,02-02-22,11:06:36,Wed Mar 02 2022 11:06:36 GMT+0100 (közép-európai téli idő),The main experiment item,yes,0,0,C:/Users/rrics/Documents/!!ResearchBMECOGSCI/gnet,0,0,0,prototype5.png,no,mono,no,18,no,black,no,no,768,1162,3.5.6,legacy,xpyriment,osweb,1.3.13,0,space,space,space,space,25839,12359,21310,25839,2,legacy,826,1536,24,864,24,-7,-7,1536,1646215626680,1024,2,48000,-16,experiment,p6sarr4.png,0,even,Win32,49,125057,122046,49,49,636690,638196,631711,126590,631711,49,948812,950313,945836,638219,945836,visual_patterns,0,0,0,yes,1366
undefined,undefined,undefined,undefined,white,no,Mozilla,Netscape,5.0 (Windows),xpyriment,legacy,legacy,0,uniform,0,0,0,0,24,24,24,0,0,74,74,74,74,74,0,74,0,63,63,63,63,63,0,63,02-02-22,02-02-22,11:06:36,Wed Mar 02 2022 11:06:36 GMT+0100 (közép-európai téli idő),The main experiment item,yes,0,0,C:/Users/rrics/Documents/!!ResearchBMECOGSCI/gnet,0,0,0,prototype5.png,no,mono,no,18,no,black,no,no,768,1162,3.5.6,legacy,xpyriment,osweb,1.3.13,0,space,space,space,space,25839,12359,21310,25839,2,legacy,826,1536,24,864,24,-7,-7,1536,1646215626680,1024,2,48000,-16,experiment,p6sarr3.png,0,even,Win32,49,125057,122046,49,49,636690,638196,631711,126590,631711,49,953348,954862,950371,638219,950371,visual_patterns,0,0,0,yes,1366
undefined,undefined,undefined,undefined,white,no,Mozilla,Netscape,5.0 (Windows),xpyriment,legacy,legacy,0,uniform,0,0,0,0,24,24,24,0,0,74,74,74,74,74,0,74,0,64,64,64,64,64,0,64,02-02-22,02-02-22,11:06:36,Wed Mar 02 2022 11:06:36 GMT+0100 (közép-európai téli idő),The main experiment item,yes,0,0,C:/Users/rrics/Documents/!!ResearchBMECOGSCI/gnet,0,0,0,prototype5.png,no,mono,no,18,no,black,no,no,768,1162,3.5.6,legacy,xpyriment,osweb,1.3.13,0,space,space,space,space,25839,12359,21310,25839,2,legacy,826,1536,24,864,24,-7,-7,1536,1646215626680,1024,2,48000,-16,experiment,p4sarr3.png,0,even,Win32,49,125057,122046,49,49,636690,638196,631711,126590,631711,49,957902,959410,954926,638219,954926,visual_patterns,0,0,0,yes,1366
