acc,accuracy,average_response_time,avg_rt,background,bidi,browser_codename,browser_name,browser_version,canvas_backend,clock_backend,color_backend,compensation,coordinates,count_end,count_experiment,count_osweb,count_prestudy,count_prestudy_isi,count_prestudy_sequence,count_prestudy_stimpres,count_start,count_study,count_study_coroutines,count_study_isi,count_study_logger,count_study_response,count_study_sequence,count_study_start,count_study_stimpres,count_test,count_test_coroutines,count_test_isi,count_test_logger,count_test_response,count_test_sequence,count_test_start,count_test_stimpres,date_startdate,date_startdateUTC,date_starttime,datetime,description,disable_garbage_collection,experiment_debug,experiment_parameters,experiment_path,experiment_pilot,experiment_taskname,experiment_taskversion,fampict,font_bold,font_family,font_italic,font_size,font_underline,foreground,form_clicks,fullscreen,height,jatosStudyResultId,jatosVersion,keyboard_backend,mouse_backend,opensesame_codename,opensesame_version,repeat_cycle,response,response_start,response_study_start,response_test_start,response_time,response_time_start,response_time_study_start,response_time_test_start,round_decimals,sampler_backend,screen_availableHeight,screen_availableWidth,screen_colorDepth,screen_height,screen_pixelDepth,screen_screenX,screen_screenY,screen_width,sessionid,sound_buf_size,sound_channels,sound_freq,sound_sample_size,start,stim,subject_nr,subject_parity,system_os,time_prestudy,time_prestudy_isi,time_prestudy_stimpres,time_start,time_study,time_study_isi,time_study_logger,time_study_response,time_study_start,time_study_stimpres,time_test,time_test_isi,time_test_logger,time_test_response,time_test_start,time_test_stimpres,title,total_correct,total_response_time,total_responses,uniform_coordinates,width
undefined,undefined,undefined,undefined,white,no,Mozilla,Netscape,"5.0 (Macintosh; Intel Mac OS X 10_14_6) AppleWebKit/537.36 (KHTML, like Gecko) Chrome/98.0.4758.109 Safari/537.36",xpyriment,legacy,legacy,0,uniform,0,0,0,0,24,24,24,0,0,0,0,0,0,0,0,0,0,,,,,,0,,02-02-22,02-02-22,12:29:10,Wed Mar 02 2022 12:29:10 GMT+0100 (közép-európai téli idő),The main experiment item,yes,0,0,C:/Users/rrics/Documents/!!ResearchBMECOGSCI/gnet,0,0,0,prototype1.png,no,mono,no,18,no,black,no,no,768,1163,3.5.6,legacy,xpyriment,osweb,1.3.13,0,right,right,right,,26808,15351,26808,,2,legacy,900,1440,24,900,24,0,0,1440,1646220633846,1024,2,48000,-16,experiment,p6sarr1.png,1,odd,MacIntel,88,127261,124246,88,88,160616,162129,155617,128780,155617,88,,,,,,visual_patterns,0,0,0,yes,1366
undefined,undefined,undefined,undefined,white,no,Mozilla,Netscape,"5.0 (Macintosh; Intel Mac OS X 10_14_6) AppleWebKit/537.36 (KHTML, like Gecko) Chrome/98.0.4758.109 Safari/537.36",xpyriment,legacy,legacy,0,uniform,0,0,0,0,24,24,24,0,0,1,1,1,1,1,0,1,0,,,,,,0,,02-02-22,02-02-22,12:29:10,Wed Mar 02 2022 12:29:10 GMT+0100 (közép-európai téli idő),The main experiment item,yes,0,0,C:/Users/rrics/Documents/!!ResearchBMECOGSCI/gnet,0,0,0,prototype1.png,no,mono,no,18,no,black,no,no,768,1163,3.5.6,legacy,xpyriment,osweb,1.3.13,0,right,right,right,,26808,15351,26808,,2,legacy,900,1440,24,900,24,0,0,1440,1646220633846,1024,2,48000,-16,experiment,prototype3.png,1,odd,MacIntel,88,127261,124246,88,88,167141,168645,162141,128780,162141,88,,,,,,visual_patterns,0,0,0,yes,1366
undefined,undefined,undefined,undefined,white,no,Mozilla,Netscape,"5.0 (Macintosh; Intel Mac OS X 10_14_6) AppleWebKit/537.36 (KHTML, like Gecko) Chrome/98.0.4758.109 Safari/537.36",xpyriment,legacy,legacy,0,uniform,0,0,0,0,24,24,24,0,0,2,2,2,2,2,0,2,0,,,,,,0,,02-02-22,02-02-22,12:29:10,Wed Mar 02 2022 12:29:10 GMT+0100 (közép-európai téli idő),The main experiment item,yes,0,0,C:/Users/rrics/Documents/!!ResearchBMECOGSCI/gnet,0,0,0,prototype1.png,no,mono,no,18,no,black,no,no,768,1163,3.5.6,legacy,xpyriment,osweb,1.3.13,0,right,right,right,,26808,15351,26808,,2,legacy,900,1440,24,900,24,0,0,1440,1646220633846,1024,2,48000,-16,experiment,p3sarr1.png,1,odd,MacIntel,88,127261,124246,88,88,173658,175161,168658,128780,168658,88,,,,,,visual_patterns,0,0,0,yes,1366
undefined,undefined,undefined,undefined,white,no,Mozilla,Netscape,"5.0 (Macintosh; Intel Mac OS X 10_14_6) AppleWebKit/537.36 (KHTML, like Gecko) Chrome/98.0.4758.109 Safari/537.36",xpyriment,legacy,legacy,0,uniform,0,0,0,0,24,24,24,0,0,3,3,3,3,3,0,3,0,,,,,,0,,02-02-22,02-02-22,12:29:10,Wed Mar 02 2022 12:29:10 GMT+0100 (közép-európai téli idő),The main experiment item,yes,0,0,C:/Users/rrics/Documents/!!ResearchBMECOGSCI/gnet,0,0,0,prototype1.png,no,mono,no,18,no,black,no,no,768,1163,3.5.6,legacy,xpyriment,osweb,1.3.13,0,right,right,right,,26808,15351,26808,,2,legacy,900,1440,24,900,24,0,0,1440,1646220633846,1024,2,48000,-16,experiment,p9sarr2.png,1,odd,MacIntel,88,127261,124246,88,88,180168,181678,175174,128780,175173,88,,,,,,visual_patterns,0,0,0,yes,1366
undefined,undefined,undefined,undefined,white,no,Mozilla,Netscape,"5.0 (Macintosh; Intel Mac OS X 10_14_6) AppleWebKit/537.36 (KHTML, like Gecko) Chrome/98.0.4758.109 Safari/537.36",xpyriment,legacy,legacy,0,uniform,0,0,0,0,24,24,24,0,0,4,4,4,4,4,0,4,0,,,,,,0,,02-02-22,02-02-22,12:29:10,Wed Mar 02 2022 12:29:10 GMT+0100 (közép-európai téli idő),The main experiment item,yes,0,0,C:/Users/rrics/Documents/!!ResearchBMECOGSCI/gnet,0,0,0,prototype1.png,no,mono,no,18,no,black,no,no,768,1163,3.5.6,legacy,xpyriment,osweb,1.3.13,0,right,right,right,,26808,15351,26808,,2,legacy,900,1440,24,900,24,0,0,1440,1646220633846,1024,2,48000,-16,experiment,p4sarr2.png,1,odd,MacIntel,88,127261,124246,88,88,186688,188194,181691,128780,181691,88,,,,,,visual_patterns,0,0,0,yes,1366
undefined,undefined,undefined,undefined,white,no,Mozilla,Netscape,"5.0 (Macintosh; Intel Mac OS X 10_14_6) AppleWebKit/537.36 (KHTML, like Gecko) Chrome/98.0.4758.109 Safari/537.36",xpyriment,legacy,legacy,0,uniform,0,0,0,0,24,24,24,0,0,5,5,5,5,5,0,5,0,,,,,,0,,02-02-22,02-02-22,12:29:10,Wed Mar 02 2022 12:29:10 GMT+0100 (közép-európai téli idő),The main experiment item,yes,0,0,C:/Users/rrics/Documents/!!ResearchBMECOGSCI/gnet,0,0,0,prototype1.png,no,mono,no,18,no,black,no,no,768,1163,3.5.6,legacy,xpyriment,osweb,1.3.13,0,right,right,right,,26808,15351,26808,,2,legacy,900,1440,24,900,24,0,0,1440,1646220633846,1024,2,48000,-16,experiment,p4sarrshacol2.png,1,odd,MacIntel,88,127261,124246,88,88,193206,194712,188206,128780,188206,88,,,,,,visual_patterns,0,0,0,yes,1366
undefined,undefined,undefined,undefined,white,no,Mozilla,Netscape,"5.0 (Macintosh; Intel Mac OS X 10_14_6) AppleWebKit/537.36 (KHTML, like Gecko) Chrome/98.0.4758.109 Safari/537.36",xpyriment,legacy,legacy,0,uniform,0,0,0,0,24,24,24,0,0,6,6,6,6,6,0,6,0,,,,,,0,,02-02-22,02-02-22,12:29:10,Wed Mar 02 2022 12:29:10 GMT+0100 (közép-európai téli idő),The main experiment item,yes,0,0,C:/Users/rrics/Documents/!!ResearchBMECOGSCI/gnet,0,0,0,prototype1.png,no,mono,no,18,no,black,no,no,768,1163,3.5.6,legacy,xpyriment,osweb,1.3.13,0,right,right,right,,26808,15351,26808,,2,legacy,900,1440,24,900,24,0,0,1440,1646220633846,1024,2,48000,-16,experiment,p5sarrsha2.png,1,odd,MacIntel,88,127261,124246,88,88,199723,201229,194724,128780,194724,88,,,,,,visual_patterns,0,0,0,yes,1366
undefined,undefined,undefined,undefined,white,no,Mozilla,Netscape,"5.0 (Macintosh; Intel Mac OS X 10_14_6) AppleWebKit/537.36 (KHTML, like Gecko) Chrome/98.0.4758.109 Safari/537.36",xpyriment,legacy,legacy,0,uniform,0,0,0,0,24,24,24,0,0,7,7,7,7,7,0,7,0,,,,,,0,,02-02-22,02-02-22,12:29:10,Wed Mar 02 2022 12:29:10 GMT+0100 (közép-európai téli idő),The main experiment item,yes,0,0,C:/Users/rrics/Documents/!!ResearchBMECOGSCI/gnet,0,0,0,prototype1.png,no,mono,no,18,no,black,no,no,768,1163,3.5.6,legacy,xpyriment,osweb,1.3.13,0,right,right,right,,26808,15351,26808,,2,legacy,900,1440,24,900,24,0,0,1440,1646220633846,1024,2,48000,-16,experiment,p2sarr1.png,1,odd,MacIntel,88,127261,124246,88,88,206239,207745,201241,128780,201241,88,,,,,,visual_patterns,0,0,0,yes,1366
undefined,undefined,undefined,undefined,white,no,Mozilla,Netscape,"5.0 (Macintosh; Intel Mac OS X 10_14_6) AppleWebKit/537.36 (KHTML, like Gecko) Chrome/98.0.4758.109 Safari/537.36",xpyriment,legacy,legacy,0,uniform,0,0,0,0,24,24,24,0,0,8,8,8,8,8,0,8,0,,,,,,0,,02-02-22,02-02-22,12:29:10,Wed Mar 02 2022 12:29:10 GMT+0100 (közép-európai téli idő),The main experiment item,yes,0,0,C:/Users/rrics/Documents/!!ResearchBMECOGSCI/gnet,0,0,0,prototype1.png,no,mono,no,18,no,black,no,no,768,1163,3.5.6,legacy,xpyriment,osweb,1.3.13,0,right,right,right,,26808,15351,26808,,2,legacy,900,1440,24,900,24,0,0,1440,1646220633846,1024,2,48000,-16,experiment,prototype4.png,1,odd,MacIntel,88,127261,124246,88,88,212767,214279,207765,128780,207765,88,,,,,,visual_patterns,0,0,0,yes,1366
undefined,undefined,undefined,undefined,white,no,Mozilla,Netscape,"5.0 (Macintosh; Intel Mac OS X 10_14_6) AppleWebKit/537.36 (KHTML, like Gecko) Chrome/98.0.4758.109 Safari/537.36",xpyriment,legacy,legacy,0,uniform,0,0,0,0,24,24,24,0,0,9,9,9,9,9,0,9,0,,,,,,0,,02-02-22,02-02-22,12:29:10,Wed Mar 02 2022 12:29:10 GMT+0100 (közép-európai téli idő),The main experiment item,yes,0,0,C:/Users/rrics/Documents/!!ResearchBMECOGSCI/gnet,0,0,0,prototype1.png,no,mono,no,18,no,black,no,no,768,1163,3.5.6,legacy,xpyriment,osweb,1.3.13,0,right,right,right,,26808,15351,26808,,2,legacy,900,1440,24,900,24,0,0,1440,1646220633846,1024,2,48000,-16,experiment,p5sarrsha1.png,1,odd,MacIntel,88,127261,124246,88,88,219289,220796,214292,128780,214292,88,,,,,,visual_patterns,0,0,0,yes,1366
undefined,undefined,undefined,undefined,white,no,Mozilla,Netscape,"5.0 (Macintosh; Intel Mac OS X 10_14_6) AppleWebKit/537.36 (KHTML, like Gecko) Chrome/98.0.4758.109 Safari/537.36",xpyriment,legacy,legacy,0,uniform,0,0,0,0,24,24,24,0,0,10,10,10,10,10,0,10,0,,,,,,0,,02-02-22,02-02-22,12:29:10,Wed Mar 02 2022 12:29:10 GMT+0100 (közép-európai téli idő),The main experiment item,yes,0,0,C:/Users/rrics/Documents/!!ResearchBMECOGSCI/gnet,0,0,0,prototype1.png,no,mono,no,18,no,black,no,no,768,1163,3.5.6,legacy,xpyriment,osweb,1.3.13,0,right,right,right,,26808,15351,26808,,2,legacy,900,1440,24,900,24,0,0,1440,1646220633846,1024,2,48000,-16,experiment,p5sarrcol1.png,1,odd,MacIntel,88,127261,124246,88,88,225804,227312,220807,128780,220807,88,,,,,,visual_patterns,0,0,0,yes,1366
undefined,undefined,undefined,undefined,white,no,Mozilla,Netscape,"5.0 (Macintosh; Intel Mac OS X 10_14_6) AppleWebKit/537.36 (KHTML, like Gecko) Chrome/98.0.4758.109 Safari/537.36",xpyriment,legacy,legacy,0,uniform,0,0,0,0,24,24,24,0,0,11,11,11,11,11,0,11,0,,,,,,0,,02-02-22,02-02-22,12:29:10,Wed Mar 02 2022 12:29:10 GMT+0100 (közép-európai téli idő),The main experiment item,yes,0,0,C:/Users/rrics/Documents/!!ResearchBMECOGSCI/gnet,0,0,0,prototype1.png,no,mono,no,18,no,black,no,no,768,1163,3.5.6,legacy,xpyriment,osweb,1.3.13,0,right,right,right,,26808,15351,26808,,2,legacy,900,1440,24,900,24,0,0,1440,1646220633846,1024,2,48000,-16,experiment,p8sarr2.png,1,odd,MacIntel,88,127261,124246,88,88,232324,233829,227324,128780,227324,88,,,,,,visual_patterns,0,0,0,yes,1366
undefined,undefined,undefined,undefined,white,no,Mozilla,Netscape,"5.0 (Macintosh; Intel Mac OS X 10_14_6) AppleWebKit/537.36 (KHTML, like Gecko) Chrome/98.0.4758.109 Safari/537.36",xpyriment,legacy,legacy,0,uniform,0,0,0,0,24,24,24,0,0,12,12,12,12,12,0,12,0,,,,,,0,,02-02-22,02-02-22,12:29:10,Wed Mar 02 2022 12:29:10 GMT+0100 (közép-európai téli idő),The main experiment item,yes,0,0,C:/Users/rrics/Documents/!!ResearchBMECOGSCI/gnet,0,0,0,prototype1.png,no,mono,no,18,no,black,no,no,768,1163,3.5.6,legacy,xpyriment,osweb,1.3.13,0,right,right,right,,26808,15351,26808,,2,legacy,900,1440,24,900,24,0,0,1440,1646220633846,1024,2,48000,-16,experiment,p5sarrshacol2.png,1,odd,MacIntel,88,127261,124246,88,88,238839,240347,233842,128780,233842,88,,,,,,visual_patterns,0,0,0,yes,1366
undefined,undefined,undefined,undefined,white,no,Mozilla,Netscape,"5.0 (Macintosh; Intel Mac OS X 10_14_6) AppleWebKit/537.36 (KHTML, like Gecko) Chrome/98.0.4758.109 Safari/537.36",xpyriment,legacy,legacy,0,uniform,0,0,0,0,24,24,24,0,0,13,13,13,13,13,0,13,0,,,,,,0,,02-02-22,02-02-22,12:29:10,Wed Mar 02 2022 12:29:10 GMT+0100 (közép-európai téli idő),The main experiment item,yes,0,0,C:/Users/rrics/Documents/!!ResearchBMECOGSCI/gnet,0,0,0,prototype1.png,no,mono,no,18,no,black,no,no,768,1163,3.5.6,legacy,xpyriment,osweb,1.3.13,0,right,right,right,,26808,15351,26808,,2,legacy,900,1440,24,900,24,0,0,1440,1646220633846,1024,2,48000,-16,experiment,p8sarr1.png,1,odd,MacIntel,88,127261,124246,88,88,245356,246863,240358,128780,240358,88,,,,,,visual_patterns,0,0,0,yes,1366
undefined,undefined,undefined,undefined,white,no,Mozilla,Netscape,"5.0 (Macintosh; Intel Mac OS X 10_14_6) AppleWebKit/537.36 (KHTML, like Gecko) Chrome/98.0.4758.109 Safari/537.36",xpyriment,legacy,legacy,0,uniform,0,0,0,0,24,24,24,0,0,14,14,14,14,14,0,14,0,,,,,,0,,02-02-22,02-02-22,12:29:10,Wed Mar 02 2022 12:29:10 GMT+0100 (közép-európai téli idő),The main experiment item,yes,0,0,C:/Users/rrics/Documents/!!ResearchBMECOGSCI/gnet,0,0,0,prototype1.png,no,mono,no,18,no,black,no,no,768,1163,3.5.6,legacy,xpyriment,osweb,1.3.13,0,right,right,right,,26808,15351,26808,,2,legacy,900,1440,24,900,24,0,0,1440,1646220633846,1024,2,48000,-16,experiment,p3sarrcol1.png,1,odd,MacIntel,88,127261,124246,88,88,251872,253380,246875,128780,246875,88,,,,,,visual_patterns,0,0,0,yes,1366
undefined,undefined,undefined,undefined,white,no,Mozilla,Netscape,"5.0 (Macintosh; Intel Mac OS X 10_14_6) AppleWebKit/537.36 (KHTML, like Gecko) Chrome/98.0.4758.109 Safari/537.36",xpyriment,legacy,legacy,0,uniform,0,0,0,0,24,24,24,0,0,15,15,15,15,15,0,15,0,,,,,,0,,02-02-22,02-02-22,12:29:10,Wed Mar 02 2022 12:29:10 GMT+0100 (közép-európai téli idő),The main experiment item,yes,0,0,C:/Users/rrics/Documents/!!ResearchBMECOGSCI/gnet,0,0,0,prototype1.png,no,mono,no,18,no,black,no,no,768,1163,3.5.6,legacy,xpyriment,osweb,1.3.13,0,right,right,right,,26808,15351,26808,,2,legacy,900,1440,24,900,24,0,0,1440,1646220633846,1024,2,48000,-16,experiment,prototype1.png,1,odd,MacIntel,88,127261,124246,88,88,258389,259897,253388,128780,253388,88,,,,,,visual_patterns,0,0,0,yes,1366
undefined,undefined,undefined,undefined,white,no,Mozilla,Netscape,"5.0 (Macintosh; Intel Mac OS X 10_14_6) AppleWebKit/537.36 (KHTML, like Gecko) Chrome/98.0.4758.109 Safari/537.36",xpyriment,legacy,legacy,0,uniform,0,0,0,0,24,24,24,0,0,16,16,16,16,16,0,16,0,,,,,,0,,02-02-22,02-02-22,12:29:10,Wed Mar 02 2022 12:29:10 GMT+0100 (közép-európai téli idő),The main experiment item,yes,0,0,C:/Users/rrics/Documents/!!ResearchBMECOGSCI/gnet,0,0,0,prototype1.png,no,mono,no,18,no,black,no,no,768,1163,3.5.6,legacy,xpyriment,osweb,1.3.13,0,right,right,right,,26808,15351,26808,,2,legacy,900,1440,24,900,24,0,0,1440,1646220633846,1024,2,48000,-16,experiment,p2sarr2.png,1,odd,MacIntel,88,127261,124246,88,88,264905,266414,259909,128780,259909,88,,,,,,visual_patterns,0,0,0,yes,1366
undefined,undefined,undefined,undefined,white,no,Mozilla,Netscape,"5.0 (Macintosh; Intel Mac OS X 10_14_6) AppleWebKit/537.36 (KHTML, like Gecko) Chrome/98.0.4758.109 Safari/537.36",xpyriment,legacy,legacy,0,uniform,0,0,0,0,24,24,24,0,0,17,17,17,17,17,0,17,0,,,,,,0,,02-02-22,02-02-22,12:29:10,Wed Mar 02 2022 12:29:10 GMT+0100 (közép-európai téli idő),The main experiment item,yes,0,0,C:/Users/rrics/Documents/!!ResearchBMECOGSCI/gnet,0,0,0,prototype1.png,no,mono,no,18,no,black,no,no,768,1163,3.5.6,legacy,xpyriment,osweb,1.3.13,0,right,right,right,,26808,15351,26808,,2,legacy,900,1440,24,900,24,0,0,1440,1646220633846,1024,2,48000,-16,experiment,p3sarrsha2.png,1,odd,MacIntel,88,127261,124246,88,88,271424,272930,266426,128780,266426,88,,,,,,visual_patterns,0,0,0,yes,1366
undefined,undefined,undefined,undefined,white,no,Mozilla,Netscape,"5.0 (Macintosh; Intel Mac OS X 10_14_6) AppleWebKit/537.36 (KHTML, like Gecko) Chrome/98.0.4758.109 Safari/537.36",xpyriment,legacy,legacy,0,uniform,0,0,0,0,24,24,24,0,0,18,18,18,18,18,0,18,0,,,,,,0,,02-02-22,02-02-22,12:29:10,Wed Mar 02 2022 12:29:10 GMT+0100 (közép-európai téli idő),The main experiment item,yes,0,0,C:/Users/rrics/Documents/!!ResearchBMECOGSCI/gnet,0,0,0,prototype1.png,no,mono,no,18,no,black,no,no,768,1163,3.5.6,legacy,xpyriment,osweb,1.3.13,0,right,right,right,,26808,15351,26808,,2,legacy,900,1440,24,900,24,0,0,1440,1646220633846,1024,2,48000,-16,experiment,prototype4.png,1,odd,MacIntel,88,127261,124246,88,88,277954,279464,272950,128780,272950,88,,,,,,visual_patterns,0,0,0,yes,1366
undefined,undefined,undefined,undefined,white,no,Mozilla,Netscape,"5.0 (Macintosh; Intel Mac OS X 10_14_6) AppleWebKit/537.36 (KHTML, like Gecko) Chrome/98.0.4758.109 Safari/537.36",xpyriment,legacy,legacy,0,uniform,0,0,0,0,24,24,24,0,0,19,19,19,19,19,0,19,0,,,,,,0,,02-02-22,02-02-22,12:29:10,Wed Mar 02 2022 12:29:10 GMT+0100 (közép-európai téli idő),The main experiment item,yes,0,0,C:/Users/rrics/Documents/!!ResearchBMECOGSCI/gnet,0,0,0,prototype1.png,no,mono,no,18,no,black,no,no,768,1163,3.5.6,legacy,xpyriment,osweb,1.3.13,0,right,right,right,,26808,15351,26808,,2,legacy,900,1440,24,900,24,0,0,1440,1646220633846,1024,2,48000,-16,experiment,p3sarrsha1.png,1,odd,MacIntel,88,127261,124246,88,88,284474,285980,279475,128780,279475,88,,,,,,visual_patterns,0,0,0,yes,1366
undefined,undefined,undefined,undefined,white,no,Mozilla,Netscape,"5.0 (Macintosh; Intel Mac OS X 10_14_6) AppleWebKit/537.36 (KHTML, like Gecko) Chrome/98.0.4758.109 Safari/537.36",xpyriment,legacy,legacy,0,uniform,0,0,0,0,24,24,24,0,0,20,20,20,20,20,0,20,0,,,,,,0,,02-02-22,02-02-22,12:29:10,Wed Mar 02 2022 12:29:10 GMT+0100 (közép-európai téli idő),The main experiment item,yes,0,0,C:/Users/rrics/Documents/!!ResearchBMECOGSCI/gnet,0,0,0,prototype1.png,no,mono,no,18,no,black,no,no,768,1163,3.5.6,legacy,xpyriment,osweb,1.3.13,0,right,right,right,,26808,15351,26808,,2,legacy,900,1440,24,900,24,0,0,1440,1646220633846,1024,2,48000,-16,experiment,prototype2.png,1,odd,MacIntel,88,127261,124246,88,88,290992,292498,285989,128780,285989,88,,,,,,visual_patterns,0,0,0,yes,1366
undefined,undefined,undefined,undefined,white,no,Mozilla,Netscape,"5.0 (Macintosh; Intel Mac OS X 10_14_6) AppleWebKit/537.36 (KHTML, like Gecko) Chrome/98.0.4758.109 Safari/537.36",xpyriment,legacy,legacy,0,uniform,0,0,0,0,24,24,24,0,0,21,21,21,21,21,0,21,0,,,,,,0,,02-02-22,02-02-22,12:29:10,Wed Mar 02 2022 12:29:10 GMT+0100 (közép-európai téli idő),The main experiment item,yes,0,0,C:/Users/rrics/Documents/!!ResearchBMECOGSCI/gnet,0,0,0,prototype1.png,no,mono,no,18,no,black,no,no,768,1163,3.5.6,legacy,xpyriment,osweb,1.3.13,0,right,right,right,,26808,15351,26808,,2,legacy,900,1440,24,900,24,0,0,1440,1646220633846,1024,2,48000,-16,experiment,p4sarrcol2.png,1,odd,MacIntel,88,127261,124246,88,88,297510,299014,292510,128780,292510,88,,,,,,visual_patterns,0,0,0,yes,1366
undefined,undefined,undefined,undefined,white,no,Mozilla,Netscape,"5.0 (Macintosh; Intel Mac OS X 10_14_6) AppleWebKit/537.36 (KHTML, like Gecko) Chrome/98.0.4758.109 Safari/537.36",xpyriment,legacy,legacy,0,uniform,0,0,0,0,24,24,24,0,0,22,22,22,22,22,0,22,0,,,,,,0,,02-02-22,02-02-22,12:29:10,Wed Mar 02 2022 12:29:10 GMT+0100 (közép-európai téli idő),The main experiment item,yes,0,0,C:/Users/rrics/Documents/!!ResearchBMECOGSCI/gnet,0,0,0,prototype1.png,no,mono,no,18,no,black,no,no,768,1163,3.5.6,legacy,xpyriment,osweb,1.3.13,0,right,right,right,,26808,15351,26808,,2,legacy,900,1440,24,900,24,0,0,1440,1646220633846,1024,2,48000,-16,experiment,p5sarrshacol1.png,1,odd,MacIntel,88,127261,124246,88,88,304026,305531,299026,128780,299026,88,,,,,,visual_patterns,0,0,0,yes,1366
undefined,undefined,undefined,undefined,white,no,Mozilla,Netscape,"5.0 (Macintosh; Intel Mac OS X 10_14_6) AppleWebKit/537.36 (KHTML, like Gecko) Chrome/98.0.4758.109 Safari/537.36",xpyriment,legacy,legacy,0,uniform,0,0,0,0,24,24,24,0,0,23,23,23,23,23,0,23,0,,,,,,0,,02-02-22,02-02-22,12:29:10,Wed Mar 02 2022 12:29:10 GMT+0100 (közép-európai téli idő),The main experiment item,yes,0,0,C:/Users/rrics/Documents/!!ResearchBMECOGSCI/gnet,0,0,0,prototype1.png,no,mono,no,18,no,black,no,no,768,1163,3.5.6,legacy,xpyriment,osweb,1.3.13,0,right,right,right,,26808,15351,26808,,2,legacy,900,1440,24,900,24,0,0,1440,1646220633846,1024,2,48000,-16,experiment,prototype2.png,1,odd,MacIntel,88,127261,124246,88,88,310554,312064,305552,128780,305552,88,,,,,,visual_patterns,0,0,0,yes,1366
undefined,undefined,undefined,undefined,white,no,Mozilla,Netscape,"5.0 (Macintosh; Intel Mac OS X 10_14_6) AppleWebKit/537.36 (KHTML, like Gecko) Chrome/98.0.4758.109 Safari/537.36",xpyriment,legacy,legacy,0,uniform,0,0,0,0,24,24,24,0,0,24,24,24,24,24,0,24,0,,,,,,0,,02-02-22,02-02-22,12:29:10,Wed Mar 02 2022 12:29:10 GMT+0100 (közép-európai téli idő),The main experiment item,yes,0,0,C:/Users/rrics/Documents/!!ResearchBMECOGSCI/gnet,0,0,0,prototype1.png,no,mono,no,18,no,black,no,no,768,1163,3.5.6,legacy,xpyriment,osweb,1.3.13,0,right,right,right,,26808,15351,26808,,2,legacy,900,1440,24,900,24,0,0,1440,1646220633846,1024,2,48000,-16,experiment,p4sarrsha2.png,1,odd,MacIntel,88,127261,124246,88,88,317074,318581,312076,128780,312076,88,,,,,,visual_patterns,0,0,0,yes,1366
undefined,undefined,undefined,undefined,white,no,Mozilla,Netscape,"5.0 (Macintosh; Intel Mac OS X 10_14_6) AppleWebKit/537.36 (KHTML, like Gecko) Chrome/98.0.4758.109 Safari/537.36",xpyriment,legacy,legacy,0,uniform,0,0,0,0,24,24,24,0,0,25,25,25,25,25,0,25,0,,,,,,0,,02-02-22,02-02-22,12:29:10,Wed Mar 02 2022 12:29:10 GMT+0100 (közép-európai téli idő),The main experiment item,yes,0,0,C:/Users/rrics/Documents/!!ResearchBMECOGSCI/gnet,0,0,0,prototype1.png,no,mono,no,18,no,black,no,no,768,1163,3.5.6,legacy,xpyriment,osweb,1.3.13,0,right,right,right,,26808,15351,26808,,2,legacy,900,1440,24,900,24,0,0,1440,1646220633846,1024,2,48000,-16,experiment,p9sarr1.png,1,odd,MacIntel,88,127261,124246,88,88,323591,325098,318593,128780,318593,88,,,,,,visual_patterns,0,0,0,yes,1366
undefined,undefined,undefined,undefined,white,no,Mozilla,Netscape,"5.0 (Macintosh; Intel Mac OS X 10_14_6) AppleWebKit/537.36 (KHTML, like Gecko) Chrome/98.0.4758.109 Safari/537.36",xpyriment,legacy,legacy,0,uniform,0,0,0,0,24,24,24,0,0,26,26,26,26,26,0,26,0,,,,,,0,,02-02-22,02-02-22,12:29:10,Wed Mar 02 2022 12:29:10 GMT+0100 (közép-európai téli idő),The main experiment item,yes,0,0,C:/Users/rrics/Documents/!!ResearchBMECOGSCI/gnet,0,0,0,prototype1.png,no,mono,no,18,no,black,no,no,768,1163,3.5.6,legacy,xpyriment,osweb,1.3.13,0,right,right,right,,26808,15351,26808,,2,legacy,900,1440,24,900,24,0,0,1440,1646220633846,1024,2,48000,-16,experiment,prototype1.png,1,odd,MacIntel,88,127261,124246,88,88,330110,331615,325107,128780,325107,88,,,,,,visual_patterns,0,0,0,yes,1366
undefined,undefined,undefined,undefined,white,no,Mozilla,Netscape,"5.0 (Macintosh; Intel Mac OS X 10_14_6) AppleWebKit/537.36 (KHTML, like Gecko) Chrome/98.0.4758.109 Safari/537.36",xpyriment,legacy,legacy,0,uniform,0,0,0,0,24,24,24,0,0,27,27,27,27,27,0,27,0,,,,,,0,,02-02-22,02-02-22,12:29:10,Wed Mar 02 2022 12:29:10 GMT+0100 (közép-európai téli idő),The main experiment item,yes,0,0,C:/Users/rrics/Documents/!!ResearchBMECOGSCI/gnet,0,0,0,prototype1.png,no,mono,no,18,no,black,no,no,768,1163,3.5.6,legacy,xpyriment,osweb,1.3.13,0,right,right,right,,26808,15351,26808,,2,legacy,900,1440,24,900,24,0,0,1440,1646220633846,1024,2,48000,-16,experiment,p4sarrcol1.png,1,odd,MacIntel,88,127261,124246,88,88,336627,338132,331626,128780,331626,88,,,,,,visual_patterns,0,0,0,yes,1366
undefined,undefined,undefined,undefined,white,no,Mozilla,Netscape,"5.0 (Macintosh; Intel Mac OS X 10_14_6) AppleWebKit/537.36 (KHTML, like Gecko) Chrome/98.0.4758.109 Safari/537.36",xpyriment,legacy,legacy,0,uniform,0,0,0,0,24,24,24,0,0,28,28,28,28,28,0,28,0,,,,,,0,,02-02-22,02-02-22,12:29:10,Wed Mar 02 2022 12:29:10 GMT+0100 (közép-európai téli idő),The main experiment item,yes,0,0,C:/Users/rrics/Documents/!!ResearchBMECOGSCI/gnet,0,0,0,prototype1.png,no,mono,no,18,no,black,no,no,768,1163,3.5.6,legacy,xpyriment,osweb,1.3.13,0,right,right,right,,26808,15351,26808,,2,legacy,900,1440,24,900,24,0,0,1440,1646220633846,1024,2,48000,-16,experiment,prototype4.png,1,odd,MacIntel,88,127261,124246,88,88,343153,344665,338151,128780,338150,88,,,,,,visual_patterns,0,0,0,yes,1366
undefined,undefined,undefined,undefined,white,no,Mozilla,Netscape,"5.0 (Macintosh; Intel Mac OS X 10_14_6) AppleWebKit/537.36 (KHTML, like Gecko) Chrome/98.0.4758.109 Safari/537.36",xpyriment,legacy,legacy,0,uniform,0,0,0,0,24,24,24,0,0,29,29,29,29,29,0,29,0,,,,,,0,,02-02-22,02-02-22,12:29:10,Wed Mar 02 2022 12:29:10 GMT+0100 (közép-európai téli idő),The main experiment item,yes,0,0,C:/Users/rrics/Documents/!!ResearchBMECOGSCI/gnet,0,0,0,prototype1.png,no,mono,no,18,no,black,no,no,768,1163,3.5.6,legacy,xpyriment,osweb,1.3.13,0,right,right,right,,26808,15351,26808,,2,legacy,900,1440,24,900,24,0,0,1440,1646220633846,1024,2,48000,-16,experiment,prototype5.png,1,odd,MacIntel,88,127261,124246,88,88,349677,351182,344673,128780,344673,88,,,,,,visual_patterns,0,0,0,yes,1366
undefined,undefined,undefined,undefined,white,no,Mozilla,Netscape,"5.0 (Macintosh; Intel Mac OS X 10_14_6) AppleWebKit/537.36 (KHTML, like Gecko) Chrome/98.0.4758.109 Safari/537.36",xpyriment,legacy,legacy,0,uniform,0,0,0,0,24,24,24,0,0,30,30,30,30,30,0,30,0,,,,,,0,,02-02-22,02-02-22,12:29:10,Wed Mar 02 2022 12:29:10 GMT+0100 (közép-európai téli idő),The main experiment item,yes,0,0,C:/Users/rrics/Documents/!!ResearchBMECOGSCI/gnet,0,0,0,prototype1.png,no,mono,no,18,no,black,no,no,768,1163,3.5.6,legacy,xpyriment,osweb,1.3.13,0,right,right,right,,26808,15351,26808,,2,legacy,900,1440,24,900,24,0,0,1440,1646220633846,1024,2,48000,-16,experiment,p5sarrcol2.png,1,odd,MacIntel,88,127261,124246,88,88,356191,357699,351194,128780,351194,88,,,,,,visual_patterns,0,0,0,yes,1366
undefined,undefined,undefined,undefined,white,no,Mozilla,Netscape,"5.0 (Macintosh; Intel Mac OS X 10_14_6) AppleWebKit/537.36 (KHTML, like Gecko) Chrome/98.0.4758.109 Safari/537.36",xpyriment,legacy,legacy,0,uniform,0,0,0,0,24,24,24,0,0,31,31,31,31,31,0,31,0,,,,,,0,,02-02-22,02-02-22,12:29:10,Wed Mar 02 2022 12:29:10 GMT+0100 (közép-európai téli idő),The main experiment item,yes,0,0,C:/Users/rrics/Documents/!!ResearchBMECOGSCI/gnet,0,0,0,prototype1.png,no,mono,no,18,no,black,no,no,768,1163,3.5.6,legacy,xpyriment,osweb,1.3.13,0,right,right,right,,26808,15351,26808,,2,legacy,900,1440,24,900,24,0,0,1440,1646220633846,1024,2,48000,-16,experiment,p2sarrsha2.png,1,odd,MacIntel,88,127261,124246,88,88,362707,364216,357712,128780,357711,88,,,,,,visual_patterns,0,0,0,yes,1366
undefined,undefined,undefined,undefined,white,no,Mozilla,Netscape,"5.0 (Macintosh; Intel Mac OS X 10_14_6) AppleWebKit/537.36 (KHTML, like Gecko) Chrome/98.0.4758.109 Safari/537.36",xpyriment,legacy,legacy,0,uniform,0,0,0,0,24,24,24,0,0,32,32,32,32,32,0,32,0,,,,,,0,,02-02-22,02-02-22,12:29:10,Wed Mar 02 2022 12:29:10 GMT+0100 (közép-európai téli idő),The main experiment item,yes,0,0,C:/Users/rrics/Documents/!!ResearchBMECOGSCI/gnet,0,0,0,prototype1.png,no,mono,no,18,no,black,no,no,768,1163,3.5.6,legacy,xpyriment,osweb,1.3.13,0,right,right,right,,26808,15351,26808,,2,legacy,900,1440,24,900,24,0,0,1440,1646220633846,1024,2,48000,-16,experiment,p5sarr1.png,1,odd,MacIntel,88,127261,124246,88,88,369225,370732,364227,128780,364227,88,,,,,,visual_patterns,0,0,0,yes,1366
undefined,undefined,undefined,undefined,white,no,Mozilla,Netscape,"5.0 (Macintosh; Intel Mac OS X 10_14_6) AppleWebKit/537.36 (KHTML, like Gecko) Chrome/98.0.4758.109 Safari/537.36",xpyriment,legacy,legacy,0,uniform,0,0,0,0,24,24,24,0,0,33,33,33,33,33,0,33,0,,,,,,0,,02-02-22,02-02-22,12:29:10,Wed Mar 02 2022 12:29:10 GMT+0100 (közép-európai téli idő),The main experiment item,yes,0,0,C:/Users/rrics/Documents/!!ResearchBMECOGSCI/gnet,0,0,0,prototype1.png,no,mono,no,18,no,black,no,no,768,1163,3.5.6,legacy,xpyriment,osweb,1.3.13,0,right,right,right,,26808,15351,26808,,2,legacy,900,1440,24,900,24,0,0,1440,1646220633846,1024,2,48000,-16,experiment,p3sarrshacol1.png,1,odd,MacIntel,88,127261,124246,88,88,375744,377249,370744,128780,370744,88,,,,,,visual_patterns,0,0,0,yes,1366
undefined,undefined,undefined,undefined,white,no,Mozilla,Netscape,"5.0 (Macintosh; Intel Mac OS X 10_14_6) AppleWebKit/537.36 (KHTML, like Gecko) Chrome/98.0.4758.109 Safari/537.36",xpyriment,legacy,legacy,0,uniform,0,0,0,0,24,24,24,0,0,34,34,34,34,34,0,34,0,,,,,,0,,02-02-22,02-02-22,12:29:10,Wed Mar 02 2022 12:29:10 GMT+0100 (közép-európai téli idő),The main experiment item,yes,0,0,C:/Users/rrics/Documents/!!ResearchBMECOGSCI/gnet,0,0,0,prototype1.png,no,mono,no,18,no,black,no,no,768,1163,3.5.6,legacy,xpyriment,osweb,1.3.13,0,right,right,right,,26808,15351,26808,,2,legacy,900,1440,24,900,24,0,0,1440,1646220633846,1024,2,48000,-16,experiment,prototype1.png,1,odd,MacIntel,88,127261,124246,88,88,382260,383766,377259,128780,377259,88,,,,,,visual_patterns,0,0,0,yes,1366
undefined,undefined,undefined,undefined,white,no,Mozilla,Netscape,"5.0 (Macintosh; Intel Mac OS X 10_14_6) AppleWebKit/537.36 (KHTML, like Gecko) Chrome/98.0.4758.109 Safari/537.36",xpyriment,legacy,legacy,0,uniform,0,0,0,0,24,24,24,0,0,35,35,35,35,35,0,35,0,,,,,,0,,02-02-22,02-02-22,12:29:10,Wed Mar 02 2022 12:29:10 GMT+0100 (közép-európai téli idő),The main experiment item,yes,0,0,C:/Users/rrics/Documents/!!ResearchBMECOGSCI/gnet,0,0,0,prototype1.png,no,mono,no,18,no,black,no,no,768,1163,3.5.6,legacy,xpyriment,osweb,1.3.13,0,right,right,right,,26808,15351,26808,,2,legacy,900,1440,24,900,24,0,0,1440,1646220633846,1024,2,48000,-16,experiment,p4sarrshacol1.png,1,odd,MacIntel,88,127261,124246,88,88,388778,390282,383777,128780,383777,88,,,,,,visual_patterns,0,0,0,yes,1366
undefined,undefined,undefined,undefined,white,no,Mozilla,Netscape,"5.0 (Macintosh; Intel Mac OS X 10_14_6) AppleWebKit/537.36 (KHTML, like Gecko) Chrome/98.0.4758.109 Safari/537.36",xpyriment,legacy,legacy,0,uniform,0,0,0,0,24,24,24,0,0,36,36,36,36,36,0,36,0,,,,,,0,,02-02-22,02-02-22,12:29:10,Wed Mar 02 2022 12:29:10 GMT+0100 (közép-európai téli idő),The main experiment item,yes,0,0,C:/Users/rrics/Documents/!!ResearchBMECOGSCI/gnet,0,0,0,prototype1.png,no,mono,no,18,no,black,no,no,768,1163,3.5.6,legacy,xpyriment,osweb,1.3.13,0,right,right,right,,26808,15351,26808,,2,legacy,900,1440,24,900,24,0,0,1440,1646220633846,1024,2,48000,-16,experiment,prototype3.png,1,odd,MacIntel,88,127261,124246,88,88,395295,396800,390291,128780,390291,88,,,,,,visual_patterns,0,0,0,yes,1366
undefined,undefined,undefined,undefined,white,no,Mozilla,Netscape,"5.0 (Macintosh; Intel Mac OS X 10_14_6) AppleWebKit/537.36 (KHTML, like Gecko) Chrome/98.0.4758.109 Safari/537.36",xpyriment,legacy,legacy,0,uniform,0,0,0,0,24,24,24,0,0,37,37,37,37,37,0,37,0,,,,,,0,,02-02-22,02-02-22,12:29:10,Wed Mar 02 2022 12:29:10 GMT+0100 (közép-európai téli idő),The main experiment item,yes,0,0,C:/Users/rrics/Documents/!!ResearchBMECOGSCI/gnet,0,0,0,prototype1.png,no,mono,no,18,no,black,no,no,768,1163,3.5.6,legacy,xpyriment,osweb,1.3.13,0,right,right,right,,26808,15351,26808,,2,legacy,900,1440,24,900,24,0,0,1440,1646220633846,1024,2,48000,-16,experiment,prototype3.png,1,odd,MacIntel,88,127261,124246,88,88,401812,403317,396808,128780,396808,88,,,,,,visual_patterns,0,0,0,yes,1366
undefined,undefined,undefined,undefined,white,no,Mozilla,Netscape,"5.0 (Macintosh; Intel Mac OS X 10_14_6) AppleWebKit/537.36 (KHTML, like Gecko) Chrome/98.0.4758.109 Safari/537.36",xpyriment,legacy,legacy,0,uniform,0,0,0,0,24,24,24,0,0,38,38,38,38,38,0,38,0,,,,,,0,,02-02-22,02-02-22,12:29:10,Wed Mar 02 2022 12:29:10 GMT+0100 (közép-európai téli idő),The main experiment item,yes,0,0,C:/Users/rrics/Documents/!!ResearchBMECOGSCI/gnet,0,0,0,prototype1.png,no,mono,no,18,no,black,no,no,768,1163,3.5.6,legacy,xpyriment,osweb,1.3.13,0,right,right,right,,26808,15351,26808,,2,legacy,900,1440,24,900,24,0,0,1440,1646220633846,1024,2,48000,-16,experiment,p7sarr1.png,1,odd,MacIntel,88,127261,124246,88,88,408338,409850,403339,128780,403339,88,,,,,,visual_patterns,0,0,0,yes,1366
undefined,undefined,undefined,undefined,white,no,Mozilla,Netscape,"5.0 (Macintosh; Intel Mac OS X 10_14_6) AppleWebKit/537.36 (KHTML, like Gecko) Chrome/98.0.4758.109 Safari/537.36",xpyriment,legacy,legacy,0,uniform,0,0,0,0,24,24,24,0,0,39,39,39,39,39,0,39,0,,,,,,0,,02-02-22,02-02-22,12:29:10,Wed Mar 02 2022 12:29:10 GMT+0100 (közép-európai téli idő),The main experiment item,yes,0,0,C:/Users/rrics/Documents/!!ResearchBMECOGSCI/gnet,0,0,0,prototype1.png,no,mono,no,18,no,black,no,no,768,1163,3.5.6,legacy,xpyriment,osweb,1.3.13,0,right,right,right,,26808,15351,26808,,2,legacy,900,1440,24,900,24,0,0,1440,1646220633846,1024,2,48000,-16,experiment,p1sarrsha1.png,1,odd,MacIntel,88,127261,124246,88,88,414860,416366,409861,128780,409861,88,,,,,,visual_patterns,0,0,0,yes,1366
undefined,undefined,undefined,undefined,white,no,Mozilla,Netscape,"5.0 (Macintosh; Intel Mac OS X 10_14_6) AppleWebKit/537.36 (KHTML, like Gecko) Chrome/98.0.4758.109 Safari/537.36",xpyriment,legacy,legacy,0,uniform,0,0,0,0,24,24,24,0,0,40,40,40,40,40,0,40,0,,,,,,0,,02-02-22,02-02-22,12:29:10,Wed Mar 02 2022 12:29:10 GMT+0100 (közép-európai téli idő),The main experiment item,yes,0,0,C:/Users/rrics/Documents/!!ResearchBMECOGSCI/gnet,0,0,0,prototype1.png,no,mono,no,18,no,black,no,no,768,1163,3.5.6,legacy,xpyriment,osweb,1.3.13,0,right,right,right,,26808,15351,26808,,2,legacy,900,1440,24,900,24,0,0,1440,1646220633846,1024,2,48000,-16,experiment,prototype5.png,1,odd,MacIntel,88,127261,124246,88,88,421376,422883,416375,128780,416375,88,,,,,,visual_patterns,0,0,0,yes,1366
undefined,undefined,undefined,undefined,white,no,Mozilla,Netscape,"5.0 (Macintosh; Intel Mac OS X 10_14_6) AppleWebKit/537.36 (KHTML, like Gecko) Chrome/98.0.4758.109 Safari/537.36",xpyriment,legacy,legacy,0,uniform,0,0,0,0,24,24,24,0,0,41,41,41,41,41,0,41,0,,,,,,0,,02-02-22,02-02-22,12:29:10,Wed Mar 02 2022 12:29:10 GMT+0100 (közép-európai téli idő),The main experiment item,yes,0,0,C:/Users/rrics/Documents/!!ResearchBMECOGSCI/gnet,0,0,0,prototype1.png,no,mono,no,18,no,black,no,no,768,1163,3.5.6,legacy,xpyriment,osweb,1.3.13,0,right,right,right,,26808,15351,26808,,2,legacy,900,1440,24,900,24,0,0,1440,1646220633846,1024,2,48000,-16,experiment,p3sarrshacol2.png,1,odd,MacIntel,88,127261,124246,88,88,427894,429400,422896,128780,422896,88,,,,,,visual_patterns,0,0,0,yes,1366
undefined,undefined,undefined,undefined,white,no,Mozilla,Netscape,"5.0 (Macintosh; Intel Mac OS X 10_14_6) AppleWebKit/537.36 (KHTML, like Gecko) Chrome/98.0.4758.109 Safari/537.36",xpyriment,legacy,legacy,0,uniform,0,0,0,0,24,24,24,0,0,42,42,42,42,42,0,42,0,,,,,,0,,02-02-22,02-02-22,12:29:10,Wed Mar 02 2022 12:29:10 GMT+0100 (közép-európai téli idő),The main experiment item,yes,0,0,C:/Users/rrics/Documents/!!ResearchBMECOGSCI/gnet,0,0,0,prototype1.png,no,mono,no,18,no,black,no,no,768,1163,3.5.6,legacy,xpyriment,osweb,1.3.13,0,right,right,right,,26808,15351,26808,,2,legacy,900,1440,24,900,24,0,0,1440,1646220633846,1024,2,48000,-16,experiment,p3sarrcol2.png,1,odd,MacIntel,88,127261,124246,88,88,434409,435916,429410,128780,429410,88,,,,,,visual_patterns,0,0,0,yes,1366
undefined,undefined,undefined,undefined,white,no,Mozilla,Netscape,"5.0 (Macintosh; Intel Mac OS X 10_14_6) AppleWebKit/537.36 (KHTML, like Gecko) Chrome/98.0.4758.109 Safari/537.36",xpyriment,legacy,legacy,0,uniform,0,0,0,0,24,24,24,0,0,43,43,43,43,43,0,43,0,,,,,,0,,02-02-22,02-02-22,12:29:10,Wed Mar 02 2022 12:29:10 GMT+0100 (közép-európai téli idő),The main experiment item,yes,0,0,C:/Users/rrics/Documents/!!ResearchBMECOGSCI/gnet,0,0,0,prototype1.png,no,mono,no,18,no,black,no,no,768,1163,3.5.6,legacy,xpyriment,osweb,1.3.13,0,right,right,right,,26808,15351,26808,,2,legacy,900,1440,24,900,24,0,0,1440,1646220633846,1024,2,48000,-16,experiment,p3sarr2.png,1,odd,MacIntel,88,127261,124246,88,88,440928,442433,435927,128780,435927,88,,,,,,visual_patterns,0,0,0,yes,1366
undefined,undefined,undefined,undefined,white,no,Mozilla,Netscape,"5.0 (Macintosh; Intel Mac OS X 10_14_6) AppleWebKit/537.36 (KHTML, like Gecko) Chrome/98.0.4758.109 Safari/537.36",xpyriment,legacy,legacy,0,uniform,0,0,0,0,24,24,24,0,0,44,44,44,44,44,0,44,0,,,,,,0,,02-02-22,02-02-22,12:29:10,Wed Mar 02 2022 12:29:10 GMT+0100 (közép-európai téli idő),The main experiment item,yes,0,0,C:/Users/rrics/Documents/!!ResearchBMECOGSCI/gnet,0,0,0,prototype1.png,no,mono,no,18,no,black,no,no,768,1163,3.5.6,legacy,xpyriment,osweb,1.3.13,0,right,right,right,,26808,15351,26808,,2,legacy,900,1440,24,900,24,0,0,1440,1646220633846,1024,2,48000,-16,experiment,p2sarrsha1.png,1,odd,MacIntel,88,127261,124246,88,88,447445,448950,442444,128780,442444,88,,,,,,visual_patterns,0,0,0,yes,1366
undefined,undefined,undefined,undefined,white,no,Mozilla,Netscape,"5.0 (Macintosh; Intel Mac OS X 10_14_6) AppleWebKit/537.36 (KHTML, like Gecko) Chrome/98.0.4758.109 Safari/537.36",xpyriment,legacy,legacy,0,uniform,0,0,0,0,24,24,24,0,0,45,45,45,45,45,0,45,0,,,,,,0,,02-02-22,02-02-22,12:29:10,Wed Mar 02 2022 12:29:10 GMT+0100 (közép-európai téli idő),The main experiment item,yes,0,0,C:/Users/rrics/Documents/!!ResearchBMECOGSCI/gnet,0,0,0,prototype1.png,no,mono,no,18,no,black,no,no,768,1163,3.5.6,legacy,xpyriment,osweb,1.3.13,0,right,right,right,,26808,15351,26808,,2,legacy,900,1440,24,900,24,0,0,1440,1646220633846,1024,2,48000,-16,experiment,p4sarrsha1.png,1,odd,MacIntel,88,127261,124246,88,88,453961,455467,448963,128780,448963,88,,,,,,visual_patterns,0,0,0,yes,1366
undefined,undefined,undefined,undefined,white,no,Mozilla,Netscape,"5.0 (Macintosh; Intel Mac OS X 10_14_6) AppleWebKit/537.36 (KHTML, like Gecko) Chrome/98.0.4758.109 Safari/537.36",xpyriment,legacy,legacy,0,uniform,0,0,0,0,24,24,24,0,0,46,46,46,46,46,0,46,0,,,,,,0,,02-02-22,02-02-22,12:29:10,Wed Mar 02 2022 12:29:10 GMT+0100 (közép-európai téli idő),The main experiment item,yes,0,0,C:/Users/rrics/Documents/!!ResearchBMECOGSCI/gnet,0,0,0,prototype1.png,no,mono,no,18,no,black,no,no,768,1163,3.5.6,legacy,xpyriment,osweb,1.3.13,0,right,right,right,,26808,15351,26808,,2,legacy,900,1440,24,900,24,0,0,1440,1646220633846,1024,2,48000,-16,experiment,p1sarrcol1.png,1,odd,MacIntel,88,127261,124246,88,88,460475,461984,455477,128780,455477,88,,,,,,visual_patterns,0,0,0,yes,1366
undefined,undefined,undefined,undefined,white,no,Mozilla,Netscape,"5.0 (Macintosh; Intel Mac OS X 10_14_6) AppleWebKit/537.36 (KHTML, like Gecko) Chrome/98.0.4758.109 Safari/537.36",xpyriment,legacy,legacy,0,uniform,0,0,0,0,24,24,24,0,0,47,47,47,47,47,0,47,0,,,,,,0,,02-02-22,02-02-22,12:29:10,Wed Mar 02 2022 12:29:10 GMT+0100 (közép-európai téli idő),The main experiment item,yes,0,0,C:/Users/rrics/Documents/!!ResearchBMECOGSCI/gnet,0,0,0,prototype1.png,no,mono,no,18,no,black,no,no,768,1163,3.5.6,legacy,xpyriment,osweb,1.3.13,0,right,right,right,,26808,15351,26808,,2,legacy,900,1440,24,900,24,0,0,1440,1646220633846,1024,2,48000,-16,experiment,p1sarrsha2.png,1,odd,MacIntel,88,127261,124246,88,88,467001,468517,462000,128780,462000,88,,,,,,visual_patterns,0,0,0,yes,1366
undefined,undefined,undefined,undefined,white,no,Mozilla,Netscape,"5.0 (Macintosh; Intel Mac OS X 10_14_6) AppleWebKit/537.36 (KHTML, like Gecko) Chrome/98.0.4758.109 Safari/537.36",xpyriment,legacy,legacy,0,uniform,0,0,0,0,24,24,24,0,0,48,48,48,48,48,0,48,0,,,,,,0,,02-02-22,02-02-22,12:29:10,Wed Mar 02 2022 12:29:10 GMT+0100 (közép-európai téli idő),The main experiment item,yes,0,0,C:/Users/rrics/Documents/!!ResearchBMECOGSCI/gnet,0,0,0,prototype1.png,no,mono,no,18,no,black,no,no,768,1163,3.5.6,legacy,xpyriment,osweb,1.3.13,0,right,right,right,,26808,15351,26808,,2,legacy,900,1440,24,900,24,0,0,1440,1646220633846,1024,2,48000,-16,experiment,p7sarr2.png,1,odd,MacIntel,88,127261,124246,88,88,473527,475034,468529,128780,468529,88,,,,,,visual_patterns,0,0,0,yes,1366
undefined,undefined,undefined,undefined,white,no,Mozilla,Netscape,"5.0 (Macintosh; Intel Mac OS X 10_14_6) AppleWebKit/537.36 (KHTML, like Gecko) Chrome/98.0.4758.109 Safari/537.36",xpyriment,legacy,legacy,0,uniform,0,0,0,0,24,24,24,0,0,49,49,49,49,49,0,49,0,,,,,,0,,02-02-22,02-02-22,12:29:10,Wed Mar 02 2022 12:29:10 GMT+0100 (közép-európai téli idő),The main experiment item,yes,0,0,C:/Users/rrics/Documents/!!ResearchBMECOGSCI/gnet,0,0,0,prototype1.png,no,mono,no,18,no,black,no,no,768,1163,3.5.6,legacy,xpyriment,osweb,1.3.13,0,right,right,right,,26808,15351,26808,,2,legacy,900,1440,24,900,24,0,0,1440,1646220633846,1024,2,48000,-16,experiment,p4sarr1.png,1,odd,MacIntel,88,127261,124246,88,88,480046,481551,475046,128780,475046,88,,,,,,visual_patterns,0,0,0,yes,1366
undefined,undefined,undefined,undefined,white,no,Mozilla,Netscape,"5.0 (Macintosh; Intel Mac OS X 10_14_6) AppleWebKit/537.36 (KHTML, like Gecko) Chrome/98.0.4758.109 Safari/537.36",xpyriment,legacy,legacy,0,uniform,0,0,0,0,24,24,24,0,0,50,50,50,50,50,0,50,0,,,,,,0,,02-02-22,02-02-22,12:29:10,Wed Mar 02 2022 12:29:10 GMT+0100 (közép-európai téli idő),The main experiment item,yes,0,0,C:/Users/rrics/Documents/!!ResearchBMECOGSCI/gnet,0,0,0,prototype1.png,no,mono,no,18,no,black,no,no,768,1163,3.5.6,legacy,xpyriment,osweb,1.3.13,0,right,right,right,,26808,15351,26808,,2,legacy,900,1440,24,900,24,0,0,1440,1646220633846,1024,2,48000,-16,experiment,p10sarr1.png,1,odd,MacIntel,88,127261,124246,88,88,486562,488067,481563,128780,481563,88,,,,,,visual_patterns,0,0,0,yes,1366
undefined,undefined,undefined,undefined,white,no,Mozilla,Netscape,"5.0 (Macintosh; Intel Mac OS X 10_14_6) AppleWebKit/537.36 (KHTML, like Gecko) Chrome/98.0.4758.109 Safari/537.36",xpyriment,legacy,legacy,0,uniform,0,0,0,0,24,24,24,0,0,51,51,51,51,51,0,51,0,,,,,,0,,02-02-22,02-02-22,12:29:10,Wed Mar 02 2022 12:29:10 GMT+0100 (közép-európai téli idő),The main experiment item,yes,0,0,C:/Users/rrics/Documents/!!ResearchBMECOGSCI/gnet,0,0,0,prototype1.png,no,mono,no,18,no,black,no,no,768,1163,3.5.6,legacy,xpyriment,osweb,1.3.13,0,right,right,right,,26808,15351,26808,,2,legacy,900,1440,24,900,24,0,0,1440,1646220633846,1024,2,48000,-16,experiment,prototype3.png,1,odd,MacIntel,88,127261,124246,88,88,493078,494585,488076,128780,488076,88,,,,,,visual_patterns,0,0,0,yes,1366
undefined,undefined,undefined,undefined,white,no,Mozilla,Netscape,"5.0 (Macintosh; Intel Mac OS X 10_14_6) AppleWebKit/537.36 (KHTML, like Gecko) Chrome/98.0.4758.109 Safari/537.36",xpyriment,legacy,legacy,0,uniform,0,0,0,0,24,24,24,0,0,52,52,52,52,52,0,52,0,,,,,,0,,02-02-22,02-02-22,12:29:10,Wed Mar 02 2022 12:29:10 GMT+0100 (közép-európai téli idő),The main experiment item,yes,0,0,C:/Users/rrics/Documents/!!ResearchBMECOGSCI/gnet,0,0,0,prototype1.png,no,mono,no,18,no,black,no,no,768,1163,3.5.6,legacy,xpyriment,osweb,1.3.13,0,right,right,right,,26808,15351,26808,,2,legacy,900,1440,24,900,24,0,0,1440,1646220633846,1024,2,48000,-16,experiment,p1sarr1.png,1,odd,MacIntel,88,127261,124246,88,88,499595,501101,494597,128780,494597,88,,,,,,visual_patterns,0,0,0,yes,1366
undefined,undefined,undefined,undefined,white,no,Mozilla,Netscape,"5.0 (Macintosh; Intel Mac OS X 10_14_6) AppleWebKit/537.36 (KHTML, like Gecko) Chrome/98.0.4758.109 Safari/537.36",xpyriment,legacy,legacy,0,uniform,0,0,0,0,24,24,24,0,0,53,53,53,53,53,0,53,0,,,,,,0,,02-02-22,02-02-22,12:29:10,Wed Mar 02 2022 12:29:10 GMT+0100 (közép-európai téli idő),The main experiment item,yes,0,0,C:/Users/rrics/Documents/!!ResearchBMECOGSCI/gnet,0,0,0,prototype1.png,no,mono,no,18,no,black,no,no,768,1163,3.5.6,legacy,xpyriment,osweb,1.3.13,0,right,right,right,,26808,15351,26808,,2,legacy,900,1440,24,900,24,0,0,1440,1646220633846,1024,2,48000,-16,experiment,p1sarrcol2.png,1,odd,MacIntel,88,127261,124246,88,88,506126,507634,501124,128780,501124,88,,,,,,visual_patterns,0,0,0,yes,1366
undefined,undefined,undefined,undefined,white,no,Mozilla,Netscape,"5.0 (Macintosh; Intel Mac OS X 10_14_6) AppleWebKit/537.36 (KHTML, like Gecko) Chrome/98.0.4758.109 Safari/537.36",xpyriment,legacy,legacy,0,uniform,0,0,0,0,24,24,24,0,0,54,54,54,54,54,0,54,0,,,,,,0,,02-02-22,02-02-22,12:29:10,Wed Mar 02 2022 12:29:10 GMT+0100 (közép-európai téli idő),The main experiment item,yes,0,0,C:/Users/rrics/Documents/!!ResearchBMECOGSCI/gnet,0,0,0,prototype1.png,no,mono,no,18,no,black,no,no,768,1163,3.5.6,legacy,xpyriment,osweb,1.3.13,0,right,right,right,,26808,15351,26808,,2,legacy,900,1440,24,900,24,0,0,1440,1646220633846,1024,2,48000,-16,experiment,p2sarrcol2.png,1,odd,MacIntel,88,127261,124246,88,88,512648,514152,507648,128780,507648,88,,,,,,visual_patterns,0,0,0,yes,1366
undefined,undefined,undefined,undefined,white,no,Mozilla,Netscape,"5.0 (Macintosh; Intel Mac OS X 10_14_6) AppleWebKit/537.36 (KHTML, like Gecko) Chrome/98.0.4758.109 Safari/537.36",xpyriment,legacy,legacy,0,uniform,0,0,0,0,24,24,24,0,0,55,55,55,55,55,0,55,0,,,,,,0,,02-02-22,02-02-22,12:29:10,Wed Mar 02 2022 12:29:10 GMT+0100 (közép-európai téli idő),The main experiment item,yes,0,0,C:/Users/rrics/Documents/!!ResearchBMECOGSCI/gnet,0,0,0,prototype1.png,no,mono,no,18,no,black,no,no,768,1163,3.5.6,legacy,xpyriment,osweb,1.3.13,0,right,right,right,,26808,15351,26808,,2,legacy,900,1440,24,900,24,0,0,1440,1646220633846,1024,2,48000,-16,experiment,prototype4.png,1,odd,MacIntel,88,127261,124246,88,88,519162,520668,514160,128780,514160,88,,,,,,visual_patterns,0,0,0,yes,1366
undefined,undefined,undefined,undefined,white,no,Mozilla,Netscape,"5.0 (Macintosh; Intel Mac OS X 10_14_6) AppleWebKit/537.36 (KHTML, like Gecko) Chrome/98.0.4758.109 Safari/537.36",xpyriment,legacy,legacy,0,uniform,0,0,0,0,24,24,24,0,0,56,56,56,56,56,0,56,0,,,,,,0,,02-02-22,02-02-22,12:29:10,Wed Mar 02 2022 12:29:10 GMT+0100 (közép-európai téli idő),The main experiment item,yes,0,0,C:/Users/rrics/Documents/!!ResearchBMECOGSCI/gnet,0,0,0,prototype1.png,no,mono,no,18,no,black,no,no,768,1163,3.5.6,legacy,xpyriment,osweb,1.3.13,0,right,right,right,,26808,15351,26808,,2,legacy,900,1440,24,900,24,0,0,1440,1646220633846,1024,2,48000,-16,experiment,p2sarrshacol1.png,1,odd,MacIntel,88,127261,124246,88,88,525678,527185,520680,128780,520680,88,,,,,,visual_patterns,0,0,0,yes,1366
undefined,undefined,undefined,undefined,white,no,Mozilla,Netscape,"5.0 (Macintosh; Intel Mac OS X 10_14_6) AppleWebKit/537.36 (KHTML, like Gecko) Chrome/98.0.4758.109 Safari/537.36",xpyriment,legacy,legacy,0,uniform,0,0,0,0,24,24,24,0,0,57,57,57,57,57,0,57,0,,,,,,0,,02-02-22,02-02-22,12:29:10,Wed Mar 02 2022 12:29:10 GMT+0100 (közép-európai téli idő),The main experiment item,yes,0,0,C:/Users/rrics/Documents/!!ResearchBMECOGSCI/gnet,0,0,0,prototype1.png,no,mono,no,18,no,black,no,no,768,1163,3.5.6,legacy,xpyriment,osweb,1.3.13,0,right,right,right,,26808,15351,26808,,2,legacy,900,1440,24,900,24,0,0,1440,1646220633846,1024,2,48000,-16,experiment,prototype5.png,1,odd,MacIntel,88,127261,124246,88,88,532197,533702,527194,128780,527194,88,,,,,,visual_patterns,0,0,0,yes,1366
undefined,undefined,undefined,undefined,white,no,Mozilla,Netscape,"5.0 (Macintosh; Intel Mac OS X 10_14_6) AppleWebKit/537.36 (KHTML, like Gecko) Chrome/98.0.4758.109 Safari/537.36",xpyriment,legacy,legacy,0,uniform,0,0,0,0,24,24,24,0,0,58,58,58,58,58,0,58,0,,,,,,0,,02-02-22,02-02-22,12:29:10,Wed Mar 02 2022 12:29:10 GMT+0100 (közép-európai téli idő),The main experiment item,yes,0,0,C:/Users/rrics/Documents/!!ResearchBMECOGSCI/gnet,0,0,0,prototype1.png,no,mono,no,18,no,black,no,no,768,1163,3.5.6,legacy,xpyriment,osweb,1.3.13,0,right,right,right,,26808,15351,26808,,2,legacy,900,1440,24,900,24,0,0,1440,1646220633846,1024,2,48000,-16,experiment,prototype2.png,1,odd,MacIntel,88,127261,124246,88,88,538723,540236,533721,128780,533721,88,,,,,,visual_patterns,0,0,0,yes,1366
undefined,undefined,undefined,undefined,white,no,Mozilla,Netscape,"5.0 (Macintosh; Intel Mac OS X 10_14_6) AppleWebKit/537.36 (KHTML, like Gecko) Chrome/98.0.4758.109 Safari/537.36",xpyriment,legacy,legacy,0,uniform,0,0,0,0,24,24,24,0,0,59,59,59,59,59,0,59,0,,,,,,0,,02-02-22,02-02-22,12:29:10,Wed Mar 02 2022 12:29:10 GMT+0100 (közép-európai téli idő),The main experiment item,yes,0,0,C:/Users/rrics/Documents/!!ResearchBMECOGSCI/gnet,0,0,0,prototype1.png,no,mono,no,18,no,black,no,no,768,1163,3.5.6,legacy,xpyriment,osweb,1.3.13,0,right,right,right,,26808,15351,26808,,2,legacy,900,1440,24,900,24,0,0,1440,1646220633846,1024,2,48000,-16,experiment,prototype5.png,1,odd,MacIntel,88,127261,124246,88,88,545247,546752,540244,128780,540244,88,,,,,,visual_patterns,0,0,0,yes,1366
undefined,undefined,undefined,undefined,white,no,Mozilla,Netscape,"5.0 (Macintosh; Intel Mac OS X 10_14_6) AppleWebKit/537.36 (KHTML, like Gecko) Chrome/98.0.4758.109 Safari/537.36",xpyriment,legacy,legacy,0,uniform,0,0,0,0,24,24,24,0,0,60,60,60,60,60,0,60,0,,,,,,0,,02-02-22,02-02-22,12:29:10,Wed Mar 02 2022 12:29:10 GMT+0100 (közép-európai téli idő),The main experiment item,yes,0,0,C:/Users/rrics/Documents/!!ResearchBMECOGSCI/gnet,0,0,0,prototype1.png,no,mono,no,18,no,black,no,no,768,1163,3.5.6,legacy,xpyriment,osweb,1.3.13,0,right,right,right,,26808,15351,26808,,2,legacy,900,1440,24,900,24,0,0,1440,1646220633846,1024,2,48000,-16,experiment,p1sarrshacol2.png,1,odd,MacIntel,88,127261,124246,88,88,551762,553269,546764,128780,546764,88,,,,,,visual_patterns,0,0,0,yes,1366
undefined,undefined,undefined,undefined,white,no,Mozilla,Netscape,"5.0 (Macintosh; Intel Mac OS X 10_14_6) AppleWebKit/537.36 (KHTML, like Gecko) Chrome/98.0.4758.109 Safari/537.36",xpyriment,legacy,legacy,0,uniform,0,0,0,0,24,24,24,0,0,61,61,61,61,61,0,61,0,,,,,,0,,02-02-22,02-02-22,12:29:10,Wed Mar 02 2022 12:29:10 GMT+0100 (közép-európai téli idő),The main experiment item,yes,0,0,C:/Users/rrics/Documents/!!ResearchBMECOGSCI/gnet,0,0,0,prototype1.png,no,mono,no,18,no,black,no,no,768,1163,3.5.6,legacy,xpyriment,osweb,1.3.13,0,right,right,right,,26808,15351,26808,,2,legacy,900,1440,24,900,24,0,0,1440,1646220633846,1024,2,48000,-16,experiment,p2sarrcol1.png,1,odd,MacIntel,88,127261,124246,88,88,558281,559786,553282,128780,553282,88,,,,,,visual_patterns,0,0,0,yes,1366
undefined,undefined,undefined,undefined,white,no,Mozilla,Netscape,"5.0 (Macintosh; Intel Mac OS X 10_14_6) AppleWebKit/537.36 (KHTML, like Gecko) Chrome/98.0.4758.109 Safari/537.36",xpyriment,legacy,legacy,0,uniform,0,0,0,0,24,24,24,0,0,62,62,62,62,62,0,62,0,,,,,,0,,02-02-22,02-02-22,12:29:10,Wed Mar 02 2022 12:29:10 GMT+0100 (közép-európai téli idő),The main experiment item,yes,0,0,C:/Users/rrics/Documents/!!ResearchBMECOGSCI/gnet,0,0,0,prototype1.png,no,mono,no,18,no,black,no,no,768,1163,3.5.6,legacy,xpyriment,osweb,1.3.13,0,right,right,right,,26808,15351,26808,,2,legacy,900,1440,24,900,24,0,0,1440,1646220633846,1024,2,48000,-16,experiment,p5sarr2.png,1,odd,MacIntel,88,127261,124246,88,88,564797,566303,559799,128780,559799,88,,,,,,visual_patterns,0,0,0,yes,1366
undefined,undefined,undefined,undefined,white,no,Mozilla,Netscape,"5.0 (Macintosh; Intel Mac OS X 10_14_6) AppleWebKit/537.36 (KHTML, like Gecko) Chrome/98.0.4758.109 Safari/537.36",xpyriment,legacy,legacy,0,uniform,0,0,0,0,24,24,24,0,0,63,63,63,63,63,0,63,0,,,,,,0,,02-02-22,02-02-22,12:29:10,Wed Mar 02 2022 12:29:10 GMT+0100 (közép-európai téli idő),The main experiment item,yes,0,0,C:/Users/rrics/Documents/!!ResearchBMECOGSCI/gnet,0,0,0,prototype1.png,no,mono,no,18,no,black,no,no,768,1163,3.5.6,legacy,xpyriment,osweb,1.3.13,0,right,right,right,,26808,15351,26808,,2,legacy,900,1440,24,900,24,0,0,1440,1646220633846,1024,2,48000,-16,experiment,p10sarr2.png,1,odd,MacIntel,88,127261,124246,88,88,571314,572819,566316,128780,566316,88,,,,,,visual_patterns,0,0,0,yes,1366
undefined,undefined,undefined,undefined,white,no,Mozilla,Netscape,"5.0 (Macintosh; Intel Mac OS X 10_14_6) AppleWebKit/537.36 (KHTML, like Gecko) Chrome/98.0.4758.109 Safari/537.36",xpyriment,legacy,legacy,0,uniform,0,0,0,0,24,24,24,0,0,64,64,64,64,64,0,64,0,,,,,,0,,02-02-22,02-02-22,12:29:10,Wed Mar 02 2022 12:29:10 GMT+0100 (közép-európai téli idő),The main experiment item,yes,0,0,C:/Users/rrics/Documents/!!ResearchBMECOGSCI/gnet,0,0,0,prototype1.png,no,mono,no,18,no,black,no,no,768,1163,3.5.6,legacy,xpyriment,osweb,1.3.13,0,right,right,right,,26808,15351,26808,,2,legacy,900,1440,24,900,24,0,0,1440,1646220633846,1024,2,48000,-16,experiment,prototype1.png,1,odd,MacIntel,88,127261,124246,88,88,577831,579337,572829,128780,572829,88,,,,,,visual_patterns,0,0,0,yes,1366
undefined,undefined,undefined,undefined,white,no,Mozilla,Netscape,"5.0 (Macintosh; Intel Mac OS X 10_14_6) AppleWebKit/537.36 (KHTML, like Gecko) Chrome/98.0.4758.109 Safari/537.36",xpyriment,legacy,legacy,0,uniform,0,0,0,0,24,24,24,0,0,65,65,65,65,65,0,65,0,,,,,,0,,02-02-22,02-02-22,12:29:10,Wed Mar 02 2022 12:29:10 GMT+0100 (közép-európai téli idő),The main experiment item,yes,0,0,C:/Users/rrics/Documents/!!ResearchBMECOGSCI/gnet,0,0,0,prototype1.png,no,mono,no,18,no,black,no,no,768,1163,3.5.6,legacy,xpyriment,osweb,1.3.13,0,right,right,right,,26808,15351,26808,,2,legacy,900,1440,24,900,24,0,0,1440,1646220633846,1024,2,48000,-16,experiment,prototype4.png,1,odd,MacIntel,88,127261,124246,88,88,584346,585854,579345,128780,579345,88,,,,,,visual_patterns,0,0,0,yes,1366
undefined,undefined,undefined,undefined,white,no,Mozilla,Netscape,"5.0 (Macintosh; Intel Mac OS X 10_14_6) AppleWebKit/537.36 (KHTML, like Gecko) Chrome/98.0.4758.109 Safari/537.36",xpyriment,legacy,legacy,0,uniform,0,0,0,0,24,24,24,0,0,66,66,66,66,66,0,66,0,,,,,,0,,02-02-22,02-02-22,12:29:10,Wed Mar 02 2022 12:29:10 GMT+0100 (közép-európai téli idő),The main experiment item,yes,0,0,C:/Users/rrics/Documents/!!ResearchBMECOGSCI/gnet,0,0,0,prototype1.png,no,mono,no,18,no,black,no,no,768,1163,3.5.6,legacy,xpyriment,osweb,1.3.13,0,right,right,right,,26808,15351,26808,,2,legacy,900,1440,24,900,24,0,0,1440,1646220633846,1024,2,48000,-16,experiment,p2sarrshacol2.png,1,odd,MacIntel,88,127261,124246,88,88,590867,592370,585866,128780,585866,88,,,,,,visual_patterns,0,0,0,yes,1366
undefined,undefined,undefined,undefined,white,no,Mozilla,Netscape,"5.0 (Macintosh; Intel Mac OS X 10_14_6) AppleWebKit/537.36 (KHTML, like Gecko) Chrome/98.0.4758.109 Safari/537.36",xpyriment,legacy,legacy,0,uniform,0,0,0,0,24,24,24,0,0,67,67,67,67,67,0,67,0,,,,,,0,,02-02-22,02-02-22,12:29:10,Wed Mar 02 2022 12:29:10 GMT+0100 (közép-európai téli idő),The main experiment item,yes,0,0,C:/Users/rrics/Documents/!!ResearchBMECOGSCI/gnet,0,0,0,prototype1.png,no,mono,no,18,no,black,no,no,768,1163,3.5.6,legacy,xpyriment,osweb,1.3.13,0,right,right,right,,26808,15351,26808,,2,legacy,900,1440,24,900,24,0,0,1440,1646220633846,1024,2,48000,-16,experiment,p1sarr2.png,1,odd,MacIntel,88,127261,124246,88,88,597382,598887,592381,128780,592381,88,,,,,,visual_patterns,0,0,0,yes,1366
undefined,undefined,undefined,undefined,white,no,Mozilla,Netscape,"5.0 (Macintosh; Intel Mac OS X 10_14_6) AppleWebKit/537.36 (KHTML, like Gecko) Chrome/98.0.4758.109 Safari/537.36",xpyriment,legacy,legacy,0,uniform,0,0,0,0,24,24,24,0,0,68,68,68,68,68,0,68,0,,,,,,0,,02-02-22,02-02-22,12:29:10,Wed Mar 02 2022 12:29:10 GMT+0100 (közép-európai téli idő),The main experiment item,yes,0,0,C:/Users/rrics/Documents/!!ResearchBMECOGSCI/gnet,0,0,0,prototype1.png,no,mono,no,18,no,black,no,no,768,1163,3.5.6,legacy,xpyriment,osweb,1.3.13,0,right,right,right,,26808,15351,26808,,2,legacy,900,1440,24,900,24,0,0,1440,1646220633846,1024,2,48000,-16,experiment,p6sarr2.png,1,odd,MacIntel,88,127261,124246,88,88,603895,605404,598898,128780,598898,88,,,,,,visual_patterns,0,0,0,yes,1366
undefined,undefined,undefined,undefined,white,no,Mozilla,Netscape,"5.0 (Macintosh; Intel Mac OS X 10_14_6) AppleWebKit/537.36 (KHTML, like Gecko) Chrome/98.0.4758.109 Safari/537.36",xpyriment,legacy,legacy,0,uniform,0,0,0,0,24,24,24,0,0,69,69,69,69,69,0,69,0,,,,,,0,,02-02-22,02-02-22,12:29:10,Wed Mar 02 2022 12:29:10 GMT+0100 (közép-európai téli idő),The main experiment item,yes,0,0,C:/Users/rrics/Documents/!!ResearchBMECOGSCI/gnet,0,0,0,prototype1.png,no,mono,no,18,no,black,no,no,768,1163,3.5.6,legacy,xpyriment,osweb,1.3.13,0,right,right,right,,26808,15351,26808,,2,legacy,900,1440,24,900,24,0,0,1440,1646220633846,1024,2,48000,-16,experiment,prototype2.png,1,odd,MacIntel,88,127261,124246,88,88,610415,611920,605413,128780,605413,88,,,,,,visual_patterns,0,0,0,yes,1366
undefined,undefined,undefined,undefined,white,no,Mozilla,Netscape,"5.0 (Macintosh; Intel Mac OS X 10_14_6) AppleWebKit/537.36 (KHTML, like Gecko) Chrome/98.0.4758.109 Safari/537.36",xpyriment,legacy,legacy,0,uniform,0,0,0,0,24,24,24,0,0,70,70,70,70,70,0,70,0,,,,,,0,,02-02-22,02-02-22,12:29:10,Wed Mar 02 2022 12:29:10 GMT+0100 (közép-európai téli idő),The main experiment item,yes,0,0,C:/Users/rrics/Documents/!!ResearchBMECOGSCI/gnet,0,0,0,prototype1.png,no,mono,no,18,no,black,no,no,768,1163,3.5.6,legacy,xpyriment,osweb,1.3.13,0,right,right,right,,26808,15351,26808,,2,legacy,900,1440,24,900,24,0,0,1440,1646220633846,1024,2,48000,-16,experiment,p1sarrshacol1.png,1,odd,MacIntel,88,127261,124246,88,88,616931,618437,611932,128780,611932,88,,,,,,visual_patterns,0,0,0,yes,1366
undefined,undefined,undefined,undefined,white,no,Mozilla,Netscape,"5.0 (Macintosh; Intel Mac OS X 10_14_6) AppleWebKit/537.36 (KHTML, like Gecko) Chrome/98.0.4758.109 Safari/537.36",xpyriment,legacy,legacy,0,uniform,0,0,0,0,24,24,24,0,0,71,71,71,71,71,0,71,0,,,,,,0,,02-02-22,02-02-22,12:29:10,Wed Mar 02 2022 12:29:10 GMT+0100 (közép-európai téli idő),The main experiment item,yes,0,0,C:/Users/rrics/Documents/!!ResearchBMECOGSCI/gnet,0,0,0,prototype1.png,no,mono,no,18,no,black,no,no,768,1163,3.5.6,legacy,xpyriment,osweb,1.3.13,0,right,right,right,,26808,15351,26808,,2,legacy,900,1440,24,900,24,0,0,1440,1646220633846,1024,2,48000,-16,experiment,prototype1.png,1,odd,MacIntel,88,127261,124246,88,88,623447,624954,618445,128780,618445,88,,,,,,visual_patterns,0,0,0,yes,1366
undefined,undefined,undefined,undefined,white,no,Mozilla,Netscape,"5.0 (Macintosh; Intel Mac OS X 10_14_6) AppleWebKit/537.36 (KHTML, like Gecko) Chrome/98.0.4758.109 Safari/537.36",xpyriment,legacy,legacy,0,uniform,0,0,0,0,24,24,24,0,0,72,72,72,72,72,0,72,0,,,,,,0,,02-02-22,02-02-22,12:29:10,Wed Mar 02 2022 12:29:10 GMT+0100 (közép-európai téli idő),The main experiment item,yes,0,0,C:/Users/rrics/Documents/!!ResearchBMECOGSCI/gnet,0,0,0,prototype1.png,no,mono,no,18,no,black,no,no,768,1163,3.5.6,legacy,xpyriment,osweb,1.3.13,0,right,right,right,,26808,15351,26808,,2,legacy,900,1440,24,900,24,0,0,1440,1646220633846,1024,2,48000,-16,experiment,prototype5.png,1,odd,MacIntel,88,127261,124246,88,88,629965,631471,624962,128780,624962,88,,,,,,visual_patterns,0,0,0,yes,1366
undefined,undefined,undefined,undefined,white,no,Mozilla,Netscape,"5.0 (Macintosh; Intel Mac OS X 10_14_6) AppleWebKit/537.36 (KHTML, like Gecko) Chrome/98.0.4758.109 Safari/537.36",xpyriment,legacy,legacy,0,uniform,0,0,0,0,24,24,24,0,0,73,73,73,73,73,0,73,0,,,,,,0,,02-02-22,02-02-22,12:29:10,Wed Mar 02 2022 12:29:10 GMT+0100 (közép-európai téli idő),The main experiment item,yes,0,0,C:/Users/rrics/Documents/!!ResearchBMECOGSCI/gnet,0,0,0,prototype1.png,no,mono,no,18,no,black,no,no,768,1163,3.5.6,legacy,xpyriment,osweb,1.3.13,0,right,right,right,,26808,15351,26808,,2,legacy,900,1440,24,900,24,0,0,1440,1646220633846,1024,2,48000,-16,experiment,prototype3.png,1,odd,MacIntel,88,127261,124246,88,88,636493,638004,631491,128780,631491,88,,,,,,visual_patterns,0,0,0,yes,1366
undefined,undefined,undefined,undefined,white,no,Mozilla,Netscape,"5.0 (Macintosh; Intel Mac OS X 10_14_6) AppleWebKit/537.36 (KHTML, like Gecko) Chrome/98.0.4758.109 Safari/537.36",xpyriment,legacy,legacy,0,uniform,0,0,0,0,24,24,24,0,0,74,74,74,74,74,0,74,0,,,,,,0,,02-02-22,02-02-22,12:29:10,Wed Mar 02 2022 12:29:10 GMT+0100 (közép-európai téli idő),The main experiment item,yes,0,0,C:/Users/rrics/Documents/!!ResearchBMECOGSCI/gnet,0,0,0,prototype1.png,no,mono,no,18,no,black,no,no,768,1163,3.5.6,legacy,xpyriment,osweb,1.3.13,0,right,right,right,,26808,15351,26808,,2,legacy,900,1440,24,900,24,0,0,1440,1646220633846,1024,2,48000,-16,experiment,prototype2.png,1,odd,MacIntel,88,127261,124246,88,88,643013,644521,638012,128780,638012,88,,,,,,visual_patterns,0,0,0,yes,1366
undefined,undefined,undefined,undefined,white,no,Mozilla,Netscape,"5.0 (Macintosh; Intel Mac OS X 10_14_6) AppleWebKit/537.36 (KHTML, like Gecko) Chrome/98.0.4758.109 Safari/537.36",xpyriment,legacy,legacy,0,uniform,0,0,0,0,24,24,24,0,0,74,74,74,74,74,0,74,0,0,0,0,0,0,0,0,02-02-22,02-02-22,12:29:10,Wed Mar 02 2022 12:29:10 GMT+0100 (közép-európai téli idő),The main experiment item,yes,0,0,C:/Users/rrics/Documents/!!ResearchBMECOGSCI/gnet,0,0,0,prototype1.png,no,mono,no,18,no,black,no,no,768,1163,3.5.6,legacy,xpyriment,osweb,1.3.13,0,down,right,right,down,32533,15351,26808,32533,2,legacy,900,1440,24,900,24,0,0,1440,1646220633846,1024,2,48000,-16,experiment,p5sarrsha3.png,1,odd,MacIntel,88,127261,124246,88,88,643013,644521,638012,128780,638012,88,680076,681588,677081,644524,677081,visual_patterns,0,0,0,yes,1366
undefined,undefined,undefined,undefined,white,no,Mozilla,Netscape,"5.0 (Macintosh; Intel Mac OS X 10_14_6) AppleWebKit/537.36 (KHTML, like Gecko) Chrome/98.0.4758.109 Safari/537.36",xpyriment,legacy,legacy,0,uniform,0,0,0,0,24,24,24,0,0,74,74,74,74,74,0,74,0,1,1,1,1,1,0,1,02-02-22,02-02-22,12:29:10,Wed Mar 02 2022 12:29:10 GMT+0100 (közép-európai téli idő),The main experiment item,yes,0,0,C:/Users/rrics/Documents/!!ResearchBMECOGSCI/gnet,0,0,0,prototype1.png,no,mono,no,18,no,black,no,no,768,1163,3.5.6,legacy,xpyriment,osweb,1.3.13,0,down,right,right,down,32533,15351,26808,32533,2,legacy,900,1440,24,900,24,0,0,1440,1646220633846,1024,2,48000,-16,experiment,p2sarrshacol1.png,1,odd,MacIntel,88,127261,124246,88,88,643013,644521,638012,128780,638012,88,684599,686105,681599,644524,681599,visual_patterns,0,0,0,yes,1366
undefined,undefined,undefined,undefined,white,no,Mozilla,Netscape,"5.0 (Macintosh; Intel Mac OS X 10_14_6) AppleWebKit/537.36 (KHTML, like Gecko) Chrome/98.0.4758.109 Safari/537.36",xpyriment,legacy,legacy,0,uniform,0,0,0,0,24,24,24,0,0,74,74,74,74,74,0,74,0,2,2,2,2,2,0,2,02-02-22,02-02-22,12:29:10,Wed Mar 02 2022 12:29:10 GMT+0100 (közép-európai téli idő),The main experiment item,yes,0,0,C:/Users/rrics/Documents/!!ResearchBMECOGSCI/gnet,0,0,0,prototype1.png,no,mono,no,18,no,black,no,no,768,1163,3.5.6,legacy,xpyriment,osweb,1.3.13,0,down,right,right,down,32533,15351,26808,32533,2,legacy,900,1440,24,900,24,0,0,1440,1646220633846,1024,2,48000,-16,experiment,p4sarr4.png,1,odd,MacIntel,88,127261,124246,88,88,643013,644521,638012,128780,638012,88,689115,690622,686118,644524,686118,visual_patterns,0,0,0,yes,1366
undefined,undefined,undefined,undefined,white,no,Mozilla,Netscape,"5.0 (Macintosh; Intel Mac OS X 10_14_6) AppleWebKit/537.36 (KHTML, like Gecko) Chrome/98.0.4758.109 Safari/537.36",xpyriment,legacy,legacy,0,uniform,0,0,0,0,24,24,24,0,0,74,74,74,74,74,0,74,0,3,3,3,3,3,0,3,02-02-22,02-02-22,12:29:10,Wed Mar 02 2022 12:29:10 GMT+0100 (közép-európai téli idő),The main experiment item,yes,0,0,C:/Users/rrics/Documents/!!ResearchBMECOGSCI/gnet,0,0,0,prototype1.png,no,mono,no,18,no,black,no,no,768,1163,3.5.6,legacy,xpyriment,osweb,1.3.13,0,down,right,right,down,32533,15351,26808,32533,2,legacy,900,1440,24,900,24,0,0,1440,1646220633846,1024,2,48000,-16,experiment,p5sarrsha2.png,1,odd,MacIntel,88,127261,124246,88,88,643013,644521,638012,128780,638012,88,693637,695138,690634,644524,690634,visual_patterns,0,0,0,yes,1366
undefined,undefined,undefined,undefined,white,no,Mozilla,Netscape,"5.0 (Macintosh; Intel Mac OS X 10_14_6) AppleWebKit/537.36 (KHTML, like Gecko) Chrome/98.0.4758.109 Safari/537.36",xpyriment,legacy,legacy,0,uniform,0,0,0,0,24,24,24,0,0,74,74,74,74,74,0,74,0,4,4,4,4,4,0,4,02-02-22,02-02-22,12:29:10,Wed Mar 02 2022 12:29:10 GMT+0100 (közép-európai téli idő),The main experiment item,yes,0,0,C:/Users/rrics/Documents/!!ResearchBMECOGSCI/gnet,0,0,0,prototype1.png,no,mono,no,18,no,black,no,no,768,1163,3.5.6,legacy,xpyriment,osweb,1.3.13,0,down,right,right,down,32533,15351,26808,32533,2,legacy,900,1440,24,900,24,0,0,1440,1646220633846,1024,2,48000,-16,experiment,p7sarr2.png,1,odd,MacIntel,88,127261,124246,88,88,643013,644521,638012,128780,638012,88,698153,699655,695150,644524,695150,visual_patterns,0,0,0,yes,1366
undefined,undefined,undefined,undefined,white,no,Mozilla,Netscape,"5.0 (Macintosh; Intel Mac OS X 10_14_6) AppleWebKit/537.36 (KHTML, like Gecko) Chrome/98.0.4758.109 Safari/537.36",xpyriment,legacy,legacy,0,uniform,0,0,0,0,24,24,24,0,0,74,74,74,74,74,0,74,0,5,5,5,5,5,0,5,02-02-22,02-02-22,12:29:10,Wed Mar 02 2022 12:29:10 GMT+0100 (közép-európai téli idő),The main experiment item,yes,0,0,C:/Users/rrics/Documents/!!ResearchBMECOGSCI/gnet,0,0,0,prototype1.png,no,mono,no,18,no,black,no,no,768,1163,3.5.6,legacy,xpyriment,osweb,1.3.13,0,down,right,right,down,32533,15351,26808,32533,2,legacy,900,1440,24,900,24,0,0,1440,1646220633846,1024,2,48000,-16,experiment,p1sarrsha4.png,1,odd,MacIntel,88,127261,124246,88,88,643013,644521,638012,128780,638012,88,702668,704171,699669,644524,699669,visual_patterns,0,0,0,yes,1366
undefined,undefined,undefined,undefined,white,no,Mozilla,Netscape,"5.0 (Macintosh; Intel Mac OS X 10_14_6) AppleWebKit/537.36 (KHTML, like Gecko) Chrome/98.0.4758.109 Safari/537.36",xpyriment,legacy,legacy,0,uniform,0,0,0,0,24,24,24,0,0,74,74,74,74,74,0,74,0,6,6,6,6,6,0,6,02-02-22,02-02-22,12:29:10,Wed Mar 02 2022 12:29:10 GMT+0100 (közép-európai téli idő),The main experiment item,yes,0,0,C:/Users/rrics/Documents/!!ResearchBMECOGSCI/gnet,0,0,0,prototype1.png,no,mono,no,18,no,black,no,no,768,1163,3.5.6,legacy,xpyriment,osweb,1.3.13,0,down,right,right,down,32533,15351,26808,32533,2,legacy,900,1440,24,900,24,0,0,1440,1646220633846,1024,2,48000,-16,experiment,p3sarrcol2.png,1,odd,MacIntel,88,127261,124246,88,88,643013,644521,638012,128780,638012,88,707183,708688,704179,644524,704179,visual_patterns,0,0,0,yes,1366
undefined,undefined,undefined,undefined,white,no,Mozilla,Netscape,"5.0 (Macintosh; Intel Mac OS X 10_14_6) AppleWebKit/537.36 (KHTML, like Gecko) Chrome/98.0.4758.109 Safari/537.36",xpyriment,legacy,legacy,0,uniform,0,0,0,0,24,24,24,0,0,74,74,74,74,74,0,74,0,7,7,7,7,7,0,7,02-02-22,02-02-22,12:29:10,Wed Mar 02 2022 12:29:10 GMT+0100 (közép-európai téli idő),The main experiment item,yes,0,0,C:/Users/rrics/Documents/!!ResearchBMECOGSCI/gnet,0,0,0,prototype1.png,no,mono,no,18,no,black,no,no,768,1163,3.5.6,legacy,xpyriment,osweb,1.3.13,0,down,right,right,down,32533,15351,26808,32533,2,legacy,900,1440,24,900,24,0,0,1440,1646220633846,1024,2,48000,-16,experiment,p3sarrcol3.png,1,odd,MacIntel,88,127261,124246,88,88,643013,644521,638012,128780,638012,88,711699,713205,708701,644524,708701,visual_patterns,0,0,0,yes,1366
undefined,undefined,undefined,undefined,white,no,Mozilla,Netscape,"5.0 (Macintosh; Intel Mac OS X 10_14_6) AppleWebKit/537.36 (KHTML, like Gecko) Chrome/98.0.4758.109 Safari/537.36",xpyriment,legacy,legacy,0,uniform,0,0,0,0,24,24,24,0,0,74,74,74,74,74,0,74,0,8,8,8,8,8,0,8,02-02-22,02-02-22,12:29:10,Wed Mar 02 2022 12:29:10 GMT+0100 (közép-európai téli idő),The main experiment item,yes,0,0,C:/Users/rrics/Documents/!!ResearchBMECOGSCI/gnet,0,0,0,prototype1.png,no,mono,no,18,no,black,no,no,768,1163,3.5.6,legacy,xpyriment,osweb,1.3.13,0,down,right,right,down,32533,15351,26808,32533,2,legacy,900,1440,24,900,24,0,0,1440,1646220633846,1024,2,48000,-16,experiment,p1sarrsha1.png,1,odd,MacIntel,88,127261,124246,88,88,643013,644521,638012,128780,638012,88,716216,717722,713213,644524,713213,visual_patterns,0,0,0,yes,1366
undefined,undefined,undefined,undefined,white,no,Mozilla,Netscape,"5.0 (Macintosh; Intel Mac OS X 10_14_6) AppleWebKit/537.36 (KHTML, like Gecko) Chrome/98.0.4758.109 Safari/537.36",xpyriment,legacy,legacy,0,uniform,0,0,0,0,24,24,24,0,0,74,74,74,74,74,0,74,0,9,9,9,9,9,0,9,02-02-22,02-02-22,12:29:10,Wed Mar 02 2022 12:29:10 GMT+0100 (közép-európai téli idő),The main experiment item,yes,0,0,C:/Users/rrics/Documents/!!ResearchBMECOGSCI/gnet,0,0,0,prototype1.png,no,mono,no,18,no,black,no,no,768,1163,3.5.6,legacy,xpyriment,osweb,1.3.13,0,down,right,right,down,32533,15351,26808,32533,2,legacy,900,1440,24,900,24,0,0,1440,1646220633846,1024,2,48000,-16,experiment,p4sarr1.png,1,odd,MacIntel,88,127261,124246,88,88,643013,644521,638012,128780,638012,88,720735,722239,717734,644524,717734,visual_patterns,0,0,0,yes,1366
undefined,undefined,undefined,undefined,white,no,Mozilla,Netscape,"5.0 (Macintosh; Intel Mac OS X 10_14_6) AppleWebKit/537.36 (KHTML, like Gecko) Chrome/98.0.4758.109 Safari/537.36",xpyriment,legacy,legacy,0,uniform,0,0,0,0,24,24,24,0,0,74,74,74,74,74,0,74,0,10,10,10,10,10,0,10,02-02-22,02-02-22,12:29:10,Wed Mar 02 2022 12:29:10 GMT+0100 (közép-európai téli idő),The main experiment item,yes,0,0,C:/Users/rrics/Documents/!!ResearchBMECOGSCI/gnet,0,0,0,prototype1.png,no,mono,no,18,no,black,no,no,768,1163,3.5.6,legacy,xpyriment,osweb,1.3.13,0,down,right,right,down,32533,15351,26808,32533,2,legacy,900,1440,24,900,24,0,0,1440,1646220633846,1024,2,48000,-16,experiment,p9sarr2.png,1,odd,MacIntel,88,127261,124246,88,88,643013,644521,638012,128780,638012,88,725250,726756,722251,644524,722251,visual_patterns,0,0,0,yes,1366
undefined,undefined,undefined,undefined,white,no,Mozilla,Netscape,"5.0 (Macintosh; Intel Mac OS X 10_14_6) AppleWebKit/537.36 (KHTML, like Gecko) Chrome/98.0.4758.109 Safari/537.36",xpyriment,legacy,legacy,0,uniform,0,0,0,0,24,24,24,0,0,74,74,74,74,74,0,74,0,11,11,11,11,11,0,11,02-02-22,02-02-22,12:29:10,Wed Mar 02 2022 12:29:10 GMT+0100 (közép-európai téli idő),The main experiment item,yes,0,0,C:/Users/rrics/Documents/!!ResearchBMECOGSCI/gnet,0,0,0,prototype1.png,no,mono,no,18,no,black,no,no,768,1163,3.5.6,legacy,xpyriment,osweb,1.3.13,0,down,right,right,down,32533,15351,26808,32533,2,legacy,900,1440,24,900,24,0,0,1440,1646220633846,1024,2,48000,-16,experiment,p1sarr2.png,1,odd,MacIntel,88,127261,124246,88,88,643013,644521,638012,128780,638012,88,729768,731272,726767,644524,726767,visual_patterns,0,0,0,yes,1366
undefined,undefined,undefined,undefined,white,no,Mozilla,Netscape,"5.0 (Macintosh; Intel Mac OS X 10_14_6) AppleWebKit/537.36 (KHTML, like Gecko) Chrome/98.0.4758.109 Safari/537.36",xpyriment,legacy,legacy,0,uniform,0,0,0,0,24,24,24,0,0,74,74,74,74,74,0,74,0,12,12,12,12,12,0,12,02-02-22,02-02-22,12:29:10,Wed Mar 02 2022 12:29:10 GMT+0100 (közép-európai téli idő),The main experiment item,yes,0,0,C:/Users/rrics/Documents/!!ResearchBMECOGSCI/gnet,0,0,0,prototype1.png,no,mono,no,18,no,black,no,no,768,1163,3.5.6,legacy,xpyriment,osweb,1.3.13,0,down,right,right,down,32533,15351,26808,32533,2,legacy,900,1440,24,900,24,0,0,1440,1646220633846,1024,2,48000,-16,experiment,p3sarrcol4.png,1,odd,MacIntel,88,127261,124246,88,88,643013,644521,638012,128780,638012,88,734287,735789,731286,644524,731286,visual_patterns,0,0,0,yes,1366
undefined,undefined,undefined,undefined,white,no,Mozilla,Netscape,"5.0 (Macintosh; Intel Mac OS X 10_14_6) AppleWebKit/537.36 (KHTML, like Gecko) Chrome/98.0.4758.109 Safari/537.36",xpyriment,legacy,legacy,0,uniform,0,0,0,0,24,24,24,0,0,74,74,74,74,74,0,74,0,13,13,13,13,13,0,13,02-02-22,02-02-22,12:29:10,Wed Mar 02 2022 12:29:10 GMT+0100 (közép-európai téli idő),The main experiment item,yes,0,0,C:/Users/rrics/Documents/!!ResearchBMECOGSCI/gnet,0,0,0,prototype1.png,no,mono,no,18,no,black,no,no,768,1163,3.5.6,legacy,xpyriment,osweb,1.3.13,0,down,right,right,down,32533,15351,26808,32533,2,legacy,900,1440,24,900,24,0,0,1440,1646220633846,1024,2,48000,-16,experiment,p2sarrshacol2.png,1,odd,MacIntel,88,127261,124246,88,88,643013,644521,638012,128780,638012,88,738815,740323,735812,644524,735812,visual_patterns,0,0,0,yes,1366
undefined,undefined,undefined,undefined,white,no,Mozilla,Netscape,"5.0 (Macintosh; Intel Mac OS X 10_14_6) AppleWebKit/537.36 (KHTML, like Gecko) Chrome/98.0.4758.109 Safari/537.36",xpyriment,legacy,legacy,0,uniform,0,0,0,0,24,24,24,0,0,74,74,74,74,74,0,74,0,14,14,14,14,14,0,14,02-02-22,02-02-22,12:29:10,Wed Mar 02 2022 12:29:10 GMT+0100 (közép-európai téli idő),The main experiment item,yes,0,0,C:/Users/rrics/Documents/!!ResearchBMECOGSCI/gnet,0,0,0,prototype1.png,no,mono,no,18,no,black,no,no,768,1163,3.5.6,legacy,xpyriment,osweb,1.3.13,0,down,right,right,down,32533,15351,26808,32533,2,legacy,900,1440,24,900,24,0,0,1440,1646220633846,1024,2,48000,-16,experiment,p6sarr1.png,1,odd,MacIntel,88,127261,124246,88,88,643013,644521,638012,128780,638012,88,743338,744839,740335,644524,740335,visual_patterns,0,0,0,yes,1366
undefined,undefined,undefined,undefined,white,no,Mozilla,Netscape,"5.0 (Macintosh; Intel Mac OS X 10_14_6) AppleWebKit/537.36 (KHTML, like Gecko) Chrome/98.0.4758.109 Safari/537.36",xpyriment,legacy,legacy,0,uniform,0,0,0,0,24,24,24,0,0,74,74,74,74,74,0,74,0,15,15,15,15,15,0,15,02-02-22,02-02-22,12:29:10,Wed Mar 02 2022 12:29:10 GMT+0100 (közép-európai téli idő),The main experiment item,yes,0,0,C:/Users/rrics/Documents/!!ResearchBMECOGSCI/gnet,0,0,0,prototype1.png,no,mono,no,18,no,black,no,no,768,1163,3.5.6,legacy,xpyriment,osweb,1.3.13,0,down,right,right,down,32533,15351,26808,32533,2,legacy,900,1440,24,900,24,0,0,1440,1646220633846,1024,2,48000,-16,experiment,p4sarrshacol3.png,1,odd,MacIntel,88,127261,124246,88,88,643013,644521,638012,128780,638012,88,747850,749357,744854,644524,744854,visual_patterns,0,0,0,yes,1366
undefined,undefined,undefined,undefined,white,no,Mozilla,Netscape,"5.0 (Macintosh; Intel Mac OS X 10_14_6) AppleWebKit/537.36 (KHTML, like Gecko) Chrome/98.0.4758.109 Safari/537.36",xpyriment,legacy,legacy,0,uniform,0,0,0,0,24,24,24,0,0,74,74,74,74,74,0,74,0,16,16,16,16,16,0,16,02-02-22,02-02-22,12:29:10,Wed Mar 02 2022 12:29:10 GMT+0100 (közép-európai téli idő),The main experiment item,yes,0,0,C:/Users/rrics/Documents/!!ResearchBMECOGSCI/gnet,0,0,0,prototype1.png,no,mono,no,18,no,black,no,no,768,1163,3.5.6,legacy,xpyriment,osweb,1.3.13,0,down,right,right,down,32533,15351,26808,32533,2,legacy,900,1440,24,900,24,0,0,1440,1646220633846,1024,2,48000,-16,experiment,p4sarrshacol4.png,1,odd,MacIntel,88,127261,124246,88,88,643013,644521,638012,128780,638012,88,752368,753873,749370,644524,749370,visual_patterns,0,0,0,yes,1366
undefined,undefined,undefined,undefined,white,no,Mozilla,Netscape,"5.0 (Macintosh; Intel Mac OS X 10_14_6) AppleWebKit/537.36 (KHTML, like Gecko) Chrome/98.0.4758.109 Safari/537.36",xpyriment,legacy,legacy,0,uniform,0,0,0,0,24,24,24,0,0,74,74,74,74,74,0,74,0,17,17,17,17,17,0,17,02-02-22,02-02-22,12:29:10,Wed Mar 02 2022 12:29:10 GMT+0100 (közép-európai téli idő),The main experiment item,yes,0,0,C:/Users/rrics/Documents/!!ResearchBMECOGSCI/gnet,0,0,0,prototype1.png,no,mono,no,18,no,black,no,no,768,1163,3.5.6,legacy,xpyriment,osweb,1.3.13,0,down,right,right,down,32533,15351,26808,32533,2,legacy,900,1440,24,900,24,0,0,1440,1646220633846,1024,2,48000,-16,experiment,p2sarrcol1.png,1,odd,MacIntel,88,127261,124246,88,88,643013,644521,638012,128780,638012,88,756884,758390,753883,644524,753883,visual_patterns,0,0,0,yes,1366
undefined,undefined,undefined,undefined,white,no,Mozilla,Netscape,"5.0 (Macintosh; Intel Mac OS X 10_14_6) AppleWebKit/537.36 (KHTML, like Gecko) Chrome/98.0.4758.109 Safari/537.36",xpyriment,legacy,legacy,0,uniform,0,0,0,0,24,24,24,0,0,74,74,74,74,74,0,74,0,18,18,18,18,18,0,18,02-02-22,02-02-22,12:29:10,Wed Mar 02 2022 12:29:10 GMT+0100 (közép-európai téli idő),The main experiment item,yes,0,0,C:/Users/rrics/Documents/!!ResearchBMECOGSCI/gnet,0,0,0,prototype1.png,no,mono,no,18,no,black,no,no,768,1163,3.5.6,legacy,xpyriment,osweb,1.3.13,0,down,right,right,down,32533,15351,26808,32533,2,legacy,900,1440,24,900,24,0,0,1440,1646220633846,1024,2,48000,-16,experiment,p1sarr4.png,1,odd,MacIntel,88,127261,124246,88,88,643013,644521,638012,128780,638012,88,761404,762906,758403,644524,758403,visual_patterns,0,0,0,yes,1366
undefined,undefined,undefined,undefined,white,no,Mozilla,Netscape,"5.0 (Macintosh; Intel Mac OS X 10_14_6) AppleWebKit/537.36 (KHTML, like Gecko) Chrome/98.0.4758.109 Safari/537.36",xpyriment,legacy,legacy,0,uniform,0,0,0,0,24,24,24,0,0,74,74,74,74,74,0,74,0,19,19,19,19,19,0,19,02-02-22,02-02-22,12:29:10,Wed Mar 02 2022 12:29:10 GMT+0100 (közép-európai téli idő),The main experiment item,yes,0,0,C:/Users/rrics/Documents/!!ResearchBMECOGSCI/gnet,0,0,0,prototype1.png,no,mono,no,18,no,black,no,no,768,1163,3.5.6,legacy,xpyriment,osweb,1.3.13,0,down,right,right,down,32533,15351,26808,32533,2,legacy,900,1440,24,900,24,0,0,1440,1646220633846,1024,2,48000,-16,experiment,p10sarr1.png,1,odd,MacIntel,88,127261,124246,88,88,643013,644521,638012,128780,638012,88,765917,767424,762918,644524,762918,visual_patterns,0,0,0,yes,1366
undefined,undefined,undefined,undefined,white,no,Mozilla,Netscape,"5.0 (Macintosh; Intel Mac OS X 10_14_6) AppleWebKit/537.36 (KHTML, like Gecko) Chrome/98.0.4758.109 Safari/537.36",xpyriment,legacy,legacy,0,uniform,0,0,0,0,24,24,24,0,0,74,74,74,74,74,0,74,0,20,20,20,20,20,0,20,02-02-22,02-02-22,12:29:10,Wed Mar 02 2022 12:29:10 GMT+0100 (közép-európai téli idő),The main experiment item,yes,0,0,C:/Users/rrics/Documents/!!ResearchBMECOGSCI/gnet,0,0,0,prototype1.png,no,mono,no,18,no,black,no,no,768,1163,3.5.6,legacy,xpyriment,osweb,1.3.13,0,down,right,right,down,32533,15351,26808,32533,2,legacy,900,1440,24,900,24,0,0,1440,1646220633846,1024,2,48000,-16,experiment,p8sarr3.png,1,odd,MacIntel,88,127261,124246,88,88,643013,644521,638012,128780,638012,88,770436,771940,767437,644524,767437,visual_patterns,0,0,0,yes,1366
undefined,undefined,undefined,undefined,white,no,Mozilla,Netscape,"5.0 (Macintosh; Intel Mac OS X 10_14_6) AppleWebKit/537.36 (KHTML, like Gecko) Chrome/98.0.4758.109 Safari/537.36",xpyriment,legacy,legacy,0,uniform,0,0,0,0,24,24,24,0,0,74,74,74,74,74,0,74,0,21,21,21,21,21,0,21,02-02-22,02-02-22,12:29:10,Wed Mar 02 2022 12:29:10 GMT+0100 (közép-európai téli idő),The main experiment item,yes,0,0,C:/Users/rrics/Documents/!!ResearchBMECOGSCI/gnet,0,0,0,prototype1.png,no,mono,no,18,no,black,no,no,768,1163,3.5.6,legacy,xpyriment,osweb,1.3.13,0,down,right,right,down,32533,15351,26808,32533,2,legacy,900,1440,24,900,24,0,0,1440,1646220633846,1024,2,48000,-16,experiment,p9sarr4.png,1,odd,MacIntel,88,127261,124246,88,88,643013,644521,638012,128780,638012,88,774955,776457,771954,644524,771954,visual_patterns,0,0,0,yes,1366
undefined,undefined,undefined,undefined,white,no,Mozilla,Netscape,"5.0 (Macintosh; Intel Mac OS X 10_14_6) AppleWebKit/537.36 (KHTML, like Gecko) Chrome/98.0.4758.109 Safari/537.36",xpyriment,legacy,legacy,0,uniform,0,0,0,0,24,24,24,0,0,74,74,74,74,74,0,74,0,22,22,22,22,22,0,22,02-02-22,02-02-22,12:29:10,Wed Mar 02 2022 12:29:10 GMT+0100 (közép-európai téli idő),The main experiment item,yes,0,0,C:/Users/rrics/Documents/!!ResearchBMECOGSCI/gnet,0,0,0,prototype1.png,no,mono,no,18,no,black,no,no,768,1163,3.5.6,legacy,xpyriment,osweb,1.3.13,0,down,right,right,down,32533,15351,26808,32533,2,legacy,900,1440,24,900,24,0,0,1440,1646220633846,1024,2,48000,-16,experiment,p5sarrcol2.png,1,odd,MacIntel,88,127261,124246,88,88,643013,644521,638012,128780,638012,88,779468,780974,776468,644524,776468,visual_patterns,0,0,0,yes,1366
undefined,undefined,undefined,undefined,white,no,Mozilla,Netscape,"5.0 (Macintosh; Intel Mac OS X 10_14_6) AppleWebKit/537.36 (KHTML, like Gecko) Chrome/98.0.4758.109 Safari/537.36",xpyriment,legacy,legacy,0,uniform,0,0,0,0,24,24,24,0,0,74,74,74,74,74,0,74,0,23,23,23,23,23,0,23,02-02-22,02-02-22,12:29:10,Wed Mar 02 2022 12:29:10 GMT+0100 (közép-európai téli idő),The main experiment item,yes,0,0,C:/Users/rrics/Documents/!!ResearchBMECOGSCI/gnet,0,0,0,prototype1.png,no,mono,no,18,no,black,no,no,768,1163,3.5.6,legacy,xpyriment,osweb,1.3.13,0,down,right,right,down,32533,15351,26808,32533,2,legacy,900,1440,24,900,24,0,0,1440,1646220633846,1024,2,48000,-16,experiment,p7sarr4.png,1,odd,MacIntel,88,127261,124246,88,88,643013,644521,638012,128780,638012,88,783990,785507,780988,644524,780988,visual_patterns,0,0,0,yes,1366
undefined,undefined,undefined,undefined,white,no,Mozilla,Netscape,"5.0 (Macintosh; Intel Mac OS X 10_14_6) AppleWebKit/537.36 (KHTML, like Gecko) Chrome/98.0.4758.109 Safari/537.36",xpyriment,legacy,legacy,0,uniform,0,0,0,0,24,24,24,0,0,74,74,74,74,74,0,74,0,24,24,24,24,24,0,24,02-02-22,02-02-22,12:29:10,Wed Mar 02 2022 12:29:10 GMT+0100 (közép-európai téli idő),The main experiment item,yes,0,0,C:/Users/rrics/Documents/!!ResearchBMECOGSCI/gnet,0,0,0,prototype1.png,no,mono,no,18,no,black,no,no,768,1163,3.5.6,legacy,xpyriment,osweb,1.3.13,0,down,right,right,down,32533,15351,26808,32533,2,legacy,900,1440,24,900,24,0,0,1440,1646220633846,1024,2,48000,-16,experiment,p3sarrsha3.png,1,odd,MacIntel,88,127261,124246,88,88,643013,644521,638012,128780,638012,88,788521,790024,785521,644524,785521,visual_patterns,0,0,0,yes,1366
undefined,undefined,undefined,undefined,white,no,Mozilla,Netscape,"5.0 (Macintosh; Intel Mac OS X 10_14_6) AppleWebKit/537.36 (KHTML, like Gecko) Chrome/98.0.4758.109 Safari/537.36",xpyriment,legacy,legacy,0,uniform,0,0,0,0,24,24,24,0,0,74,74,74,74,74,0,74,0,25,25,25,25,25,0,25,02-02-22,02-02-22,12:29:10,Wed Mar 02 2022 12:29:10 GMT+0100 (közép-európai téli idő),The main experiment item,yes,0,0,C:/Users/rrics/Documents/!!ResearchBMECOGSCI/gnet,0,0,0,prototype1.png,no,mono,no,18,no,black,no,no,768,1163,3.5.6,legacy,xpyriment,osweb,1.3.13,0,down,right,right,down,32533,15351,26808,32533,2,legacy,900,1440,24,900,24,0,0,1440,1646220633846,1024,2,48000,-16,experiment,p8sarr4.png,1,odd,MacIntel,88,127261,124246,88,88,643013,644521,638012,128780,638012,88,793036,794541,790037,644524,790037,visual_patterns,0,0,0,yes,1366
undefined,undefined,undefined,undefined,white,no,Mozilla,Netscape,"5.0 (Macintosh; Intel Mac OS X 10_14_6) AppleWebKit/537.36 (KHTML, like Gecko) Chrome/98.0.4758.109 Safari/537.36",xpyriment,legacy,legacy,0,uniform,0,0,0,0,24,24,24,0,0,74,74,74,74,74,0,74,0,26,26,26,26,26,0,26,02-02-22,02-02-22,12:29:10,Wed Mar 02 2022 12:29:10 GMT+0100 (közép-európai téli idő),The main experiment item,yes,0,0,C:/Users/rrics/Documents/!!ResearchBMECOGSCI/gnet,0,0,0,prototype1.png,no,mono,no,18,no,black,no,no,768,1163,3.5.6,legacy,xpyriment,osweb,1.3.13,0,down,right,right,down,32533,15351,26808,32533,2,legacy,900,1440,24,900,24,0,0,1440,1646220633846,1024,2,48000,-16,experiment,p2sarrshacol4.png,1,odd,MacIntel,88,127261,124246,88,88,643013,644521,638012,128780,638012,88,797555,799057,794554,644524,794554,visual_patterns,0,0,0,yes,1366
undefined,undefined,undefined,undefined,white,no,Mozilla,Netscape,"5.0 (Macintosh; Intel Mac OS X 10_14_6) AppleWebKit/537.36 (KHTML, like Gecko) Chrome/98.0.4758.109 Safari/537.36",xpyriment,legacy,legacy,0,uniform,0,0,0,0,24,24,24,0,0,74,74,74,74,74,0,74,0,27,27,27,27,27,0,27,02-02-22,02-02-22,12:29:10,Wed Mar 02 2022 12:29:10 GMT+0100 (közép-európai téli idő),The main experiment item,yes,0,0,C:/Users/rrics/Documents/!!ResearchBMECOGSCI/gnet,0,0,0,prototype1.png,no,mono,no,18,no,black,no,no,768,1163,3.5.6,legacy,xpyriment,osweb,1.3.13,0,down,right,right,down,32533,15351,26808,32533,2,legacy,900,1440,24,900,24,0,0,1440,1646220633846,1024,2,48000,-16,experiment,p4sarrshacol1.png,1,odd,MacIntel,88,127261,124246,88,88,643013,644521,638012,128780,638012,88,802068,803574,799065,644524,799065,visual_patterns,0,0,0,yes,1366
undefined,undefined,undefined,undefined,white,no,Mozilla,Netscape,"5.0 (Macintosh; Intel Mac OS X 10_14_6) AppleWebKit/537.36 (KHTML, like Gecko) Chrome/98.0.4758.109 Safari/537.36",xpyriment,legacy,legacy,0,uniform,0,0,0,0,24,24,24,0,0,74,74,74,74,74,0,74,0,28,28,28,28,28,0,28,02-02-22,02-02-22,12:29:10,Wed Mar 02 2022 12:29:10 GMT+0100 (közép-európai téli idő),The main experiment item,yes,0,0,C:/Users/rrics/Documents/!!ResearchBMECOGSCI/gnet,0,0,0,prototype1.png,no,mono,no,18,no,black,no,no,768,1163,3.5.6,legacy,xpyriment,osweb,1.3.13,0,down,right,right,down,32533,15351,26808,32533,2,legacy,900,1440,24,900,24,0,0,1440,1646220633846,1024,2,48000,-16,experiment,p1sarrshacol3.png,1,odd,MacIntel,88,127261,124246,88,88,643013,644521,638012,128780,638012,88,806586,808091,803588,644524,803588,visual_patterns,0,0,0,yes,1366
undefined,undefined,undefined,undefined,white,no,Mozilla,Netscape,"5.0 (Macintosh; Intel Mac OS X 10_14_6) AppleWebKit/537.36 (KHTML, like Gecko) Chrome/98.0.4758.109 Safari/537.36",xpyriment,legacy,legacy,0,uniform,0,0,0,0,24,24,24,0,0,74,74,74,74,74,0,74,0,29,29,29,29,29,0,29,02-02-22,02-02-22,12:29:10,Wed Mar 02 2022 12:29:10 GMT+0100 (közép-európai téli idő),The main experiment item,yes,0,0,C:/Users/rrics/Documents/!!ResearchBMECOGSCI/gnet,0,0,0,prototype1.png,no,mono,no,18,no,black,no,no,768,1163,3.5.6,legacy,xpyriment,osweb,1.3.13,0,down,right,right,down,32533,15351,26808,32533,2,legacy,900,1440,24,900,24,0,0,1440,1646220633846,1024,2,48000,-16,experiment,p2sarrsha1.png,1,odd,MacIntel,88,127261,124246,88,88,643013,644521,638012,128780,638012,88,811102,812608,808102,644524,808102,visual_patterns,0,0,0,yes,1366
undefined,undefined,undefined,undefined,white,no,Mozilla,Netscape,"5.0 (Macintosh; Intel Mac OS X 10_14_6) AppleWebKit/537.36 (KHTML, like Gecko) Chrome/98.0.4758.109 Safari/537.36",xpyriment,legacy,legacy,0,uniform,0,0,0,0,24,24,24,0,0,74,74,74,74,74,0,74,0,30,30,30,30,30,0,30,02-02-22,02-02-22,12:29:10,Wed Mar 02 2022 12:29:10 GMT+0100 (közép-európai téli idő),The main experiment item,yes,0,0,C:/Users/rrics/Documents/!!ResearchBMECOGSCI/gnet,0,0,0,prototype1.png,no,mono,no,18,no,black,no,no,768,1163,3.5.6,legacy,xpyriment,osweb,1.3.13,0,down,right,right,down,32533,15351,26808,32533,2,legacy,900,1440,24,900,24,0,0,1440,1646220633846,1024,2,48000,-16,experiment,p3sarr2.png,1,odd,MacIntel,88,127261,124246,88,88,643013,644521,638012,128780,638012,88,815619,817124,812618,644524,812618,visual_patterns,0,0,0,yes,1366
undefined,undefined,undefined,undefined,white,no,Mozilla,Netscape,"5.0 (Macintosh; Intel Mac OS X 10_14_6) AppleWebKit/537.36 (KHTML, like Gecko) Chrome/98.0.4758.109 Safari/537.36",xpyriment,legacy,legacy,0,uniform,0,0,0,0,24,24,24,0,0,74,74,74,74,74,0,74,0,31,31,31,31,31,0,31,02-02-22,02-02-22,12:29:10,Wed Mar 02 2022 12:29:10 GMT+0100 (közép-európai téli idő),The main experiment item,yes,0,0,C:/Users/rrics/Documents/!!ResearchBMECOGSCI/gnet,0,0,0,prototype1.png,no,mono,no,18,no,black,no,no,768,1163,3.5.6,legacy,xpyriment,osweb,1.3.13,0,down,right,right,down,32533,15351,26808,32533,2,legacy,900,1440,24,900,24,0,0,1440,1646220633846,1024,2,48000,-16,experiment,p3sarrshacol3.png,1,odd,MacIntel,88,127261,124246,88,88,643013,644521,638012,128780,638012,88,820138,821640,817139,644524,817139,visual_patterns,0,0,0,yes,1366
undefined,undefined,undefined,undefined,white,no,Mozilla,Netscape,"5.0 (Macintosh; Intel Mac OS X 10_14_6) AppleWebKit/537.36 (KHTML, like Gecko) Chrome/98.0.4758.109 Safari/537.36",xpyriment,legacy,legacy,0,uniform,0,0,0,0,24,24,24,0,0,74,74,74,74,74,0,74,0,32,32,32,32,32,0,32,02-02-22,02-02-22,12:29:10,Wed Mar 02 2022 12:29:10 GMT+0100 (közép-európai téli idő),The main experiment item,yes,0,0,C:/Users/rrics/Documents/!!ResearchBMECOGSCI/gnet,0,0,0,prototype1.png,no,mono,no,18,no,black,no,no,768,1163,3.5.6,legacy,xpyriment,osweb,1.3.13,0,down,right,right,down,32533,15351,26808,32533,2,legacy,900,1440,24,900,24,0,0,1440,1646220633846,1024,2,48000,-16,experiment,p2sarrcol4.png,1,odd,MacIntel,88,127261,124246,88,88,643013,644521,638012,128780,638012,88,824655,826158,821654,644524,821654,visual_patterns,0,0,0,yes,1366
undefined,undefined,undefined,undefined,white,no,Mozilla,Netscape,"5.0 (Macintosh; Intel Mac OS X 10_14_6) AppleWebKit/537.36 (KHTML, like Gecko) Chrome/98.0.4758.109 Safari/537.36",xpyriment,legacy,legacy,0,uniform,0,0,0,0,24,24,24,0,0,74,74,74,74,74,0,74,0,33,33,33,33,33,0,33,02-02-22,02-02-22,12:29:10,Wed Mar 02 2022 12:29:10 GMT+0100 (közép-európai téli idő),The main experiment item,yes,0,0,C:/Users/rrics/Documents/!!ResearchBMECOGSCI/gnet,0,0,0,prototype1.png,no,mono,no,18,no,black,no,no,768,1163,3.5.6,legacy,xpyriment,osweb,1.3.13,0,down,right,right,down,32533,15351,26808,32533,2,legacy,900,1440,24,900,24,0,0,1440,1646220633846,1024,2,48000,-16,experiment,p5sarrcol1.png,1,odd,MacIntel,88,127261,124246,88,88,643013,644521,638012,128780,638012,88,829169,830675,826170,644524,826170,visual_patterns,0,0,0,yes,1366
undefined,undefined,undefined,undefined,white,no,Mozilla,Netscape,"5.0 (Macintosh; Intel Mac OS X 10_14_6) AppleWebKit/537.36 (KHTML, like Gecko) Chrome/98.0.4758.109 Safari/537.36",xpyriment,legacy,legacy,0,uniform,0,0,0,0,24,24,24,0,0,74,74,74,74,74,0,74,0,34,34,34,34,34,0,34,02-02-22,02-02-22,12:29:10,Wed Mar 02 2022 12:29:10 GMT+0100 (közép-európai téli idő),The main experiment item,yes,0,0,C:/Users/rrics/Documents/!!ResearchBMECOGSCI/gnet,0,0,0,prototype1.png,no,mono,no,18,no,black,no,no,768,1163,3.5.6,legacy,xpyriment,osweb,1.3.13,0,down,right,right,down,32533,15351,26808,32533,2,legacy,900,1440,24,900,24,0,0,1440,1646220633846,1024,2,48000,-16,experiment,p8sarr2.png,1,odd,MacIntel,88,127261,124246,88,88,643013,644521,638012,128780,638012,88,833688,835191,830686,644524,830686,visual_patterns,0,0,0,yes,1366
undefined,undefined,undefined,undefined,white,no,Mozilla,Netscape,"5.0 (Macintosh; Intel Mac OS X 10_14_6) AppleWebKit/537.36 (KHTML, like Gecko) Chrome/98.0.4758.109 Safari/537.36",xpyriment,legacy,legacy,0,uniform,0,0,0,0,24,24,24,0,0,74,74,74,74,74,0,74,0,35,35,35,35,35,0,35,02-02-22,02-02-22,12:29:10,Wed Mar 02 2022 12:29:10 GMT+0100 (közép-európai téli idő),The main experiment item,yes,0,0,C:/Users/rrics/Documents/!!ResearchBMECOGSCI/gnet,0,0,0,prototype1.png,no,mono,no,18,no,black,no,no,768,1163,3.5.6,legacy,xpyriment,osweb,1.3.13,0,down,right,right,down,32533,15351,26808,32533,2,legacy,900,1440,24,900,24,0,0,1440,1646220633846,1024,2,48000,-16,experiment,p5sarr3.png,1,odd,MacIntel,88,127261,124246,88,88,643013,644521,638012,128780,638012,88,838204,839708,835205,644524,835205,visual_patterns,0,0,0,yes,1366
undefined,undefined,undefined,undefined,white,no,Mozilla,Netscape,"5.0 (Macintosh; Intel Mac OS X 10_14_6) AppleWebKit/537.36 (KHTML, like Gecko) Chrome/98.0.4758.109 Safari/537.36",xpyriment,legacy,legacy,0,uniform,0,0,0,0,24,24,24,0,0,74,74,74,74,74,0,74,0,36,36,36,36,36,0,36,02-02-22,02-02-22,12:29:10,Wed Mar 02 2022 12:29:10 GMT+0100 (közép-európai téli idő),The main experiment item,yes,0,0,C:/Users/rrics/Documents/!!ResearchBMECOGSCI/gnet,0,0,0,prototype1.png,no,mono,no,18,no,black,no,no,768,1163,3.5.6,legacy,xpyriment,osweb,1.3.13,0,down,right,right,down,32533,15351,26808,32533,2,legacy,900,1440,24,900,24,0,0,1440,1646220633846,1024,2,48000,-16,experiment,p7sarr1.png,1,odd,MacIntel,88,127261,124246,88,88,643013,644521,638012,128780,638012,88,842722,844225,839719,644524,839719,visual_patterns,0,0,0,yes,1366
undefined,undefined,undefined,undefined,white,no,Mozilla,Netscape,"5.0 (Macintosh; Intel Mac OS X 10_14_6) AppleWebKit/537.36 (KHTML, like Gecko) Chrome/98.0.4758.109 Safari/537.36",xpyriment,legacy,legacy,0,uniform,0,0,0,0,24,24,24,0,0,74,74,74,74,74,0,74,0,37,37,37,37,37,0,37,02-02-22,02-02-22,12:29:10,Wed Mar 02 2022 12:29:10 GMT+0100 (közép-európai téli idő),The main experiment item,yes,0,0,C:/Users/rrics/Documents/!!ResearchBMECOGSCI/gnet,0,0,0,prototype1.png,no,mono,no,18,no,black,no,no,768,1163,3.5.6,legacy,xpyriment,osweb,1.3.13,0,down,right,right,down,32533,15351,26808,32533,2,legacy,900,1440,24,900,24,0,0,1440,1646220633846,1024,2,48000,-16,experiment,p1sarrcol4.png,1,odd,MacIntel,88,127261,124246,88,88,643013,644521,638012,128780,638012,88,847241,848742,844240,644524,844239,visual_patterns,0,0,0,yes,1366
undefined,undefined,undefined,undefined,white,no,Mozilla,Netscape,"5.0 (Macintosh; Intel Mac OS X 10_14_6) AppleWebKit/537.36 (KHTML, like Gecko) Chrome/98.0.4758.109 Safari/537.36",xpyriment,legacy,legacy,0,uniform,0,0,0,0,24,24,24,0,0,74,74,74,74,74,0,74,0,38,38,38,38,38,0,38,02-02-22,02-02-22,12:29:10,Wed Mar 02 2022 12:29:10 GMT+0100 (közép-európai téli idő),The main experiment item,yes,0,0,C:/Users/rrics/Documents/!!ResearchBMECOGSCI/gnet,0,0,0,prototype1.png,no,mono,no,18,no,black,no,no,768,1163,3.5.6,legacy,xpyriment,osweb,1.3.13,0,down,right,right,down,32533,15351,26808,32533,2,legacy,900,1440,24,900,24,0,0,1440,1646220633846,1024,2,48000,-16,experiment,p3sarrsha4.png,1,odd,MacIntel,88,127261,124246,88,88,643013,644521,638012,128780,638012,88,851764,853276,848767,644524,848767,visual_patterns,0,0,0,yes,1366
undefined,undefined,undefined,undefined,white,no,Mozilla,Netscape,"5.0 (Macintosh; Intel Mac OS X 10_14_6) AppleWebKit/537.36 (KHTML, like Gecko) Chrome/98.0.4758.109 Safari/537.36",xpyriment,legacy,legacy,0,uniform,0,0,0,0,24,24,24,0,0,74,74,74,74,74,0,74,0,39,39,39,39,39,0,39,02-02-22,02-02-22,12:29:10,Wed Mar 02 2022 12:29:10 GMT+0100 (közép-európai téli idő),The main experiment item,yes,0,0,C:/Users/rrics/Documents/!!ResearchBMECOGSCI/gnet,0,0,0,prototype1.png,no,mono,no,18,no,black,no,no,768,1163,3.5.6,legacy,xpyriment,osweb,1.3.13,0,down,right,right,down,32533,15351,26808,32533,2,legacy,900,1440,24,900,24,0,0,1440,1646220633846,1024,2,48000,-16,experiment,p3sarr1.png,1,odd,MacIntel,88,127261,124246,88,88,643013,644521,638012,128780,638012,88,856286,857792,853286,644524,853286,visual_patterns,0,0,0,yes,1366
undefined,undefined,undefined,undefined,white,no,Mozilla,Netscape,"5.0 (Macintosh; Intel Mac OS X 10_14_6) AppleWebKit/537.36 (KHTML, like Gecko) Chrome/98.0.4758.109 Safari/537.36",xpyriment,legacy,legacy,0,uniform,0,0,0,0,24,24,24,0,0,74,74,74,74,74,0,74,0,40,40,40,40,40,0,40,02-02-22,02-02-22,12:29:10,Wed Mar 02 2022 12:29:10 GMT+0100 (közép-európai téli idő),The main experiment item,yes,0,0,C:/Users/rrics/Documents/!!ResearchBMECOGSCI/gnet,0,0,0,prototype1.png,no,mono,no,18,no,black,no,no,768,1163,3.5.6,legacy,xpyriment,osweb,1.3.13,0,down,right,right,down,32533,15351,26808,32533,2,legacy,900,1440,24,900,24,0,0,1440,1646220633846,1024,2,48000,-16,experiment,p2sarrsha3.png,1,odd,MacIntel,88,127261,124246,88,88,643013,644521,638012,128780,638012,88,860807,862309,857806,644524,857806,visual_patterns,0,0,0,yes,1366
undefined,undefined,undefined,undefined,white,no,Mozilla,Netscape,"5.0 (Macintosh; Intel Mac OS X 10_14_6) AppleWebKit/537.36 (KHTML, like Gecko) Chrome/98.0.4758.109 Safari/537.36",xpyriment,legacy,legacy,0,uniform,0,0,0,0,24,24,24,0,0,74,74,74,74,74,0,74,0,41,41,41,41,41,0,41,02-02-22,02-02-22,12:29:10,Wed Mar 02 2022 12:29:10 GMT+0100 (közép-európai téli idő),The main experiment item,yes,0,0,C:/Users/rrics/Documents/!!ResearchBMECOGSCI/gnet,0,0,0,prototype1.png,no,mono,no,18,no,black,no,no,768,1163,3.5.6,legacy,xpyriment,osweb,1.3.13,0,down,right,right,down,32533,15351,26808,32533,2,legacy,900,1440,24,900,24,0,0,1440,1646220633846,1024,2,48000,-16,experiment,p9sarr3.png,1,odd,MacIntel,88,127261,124246,88,88,643013,644521,638012,128780,638012,88,865320,866825,862323,644524,862323,visual_patterns,0,0,0,yes,1366
undefined,undefined,undefined,undefined,white,no,Mozilla,Netscape,"5.0 (Macintosh; Intel Mac OS X 10_14_6) AppleWebKit/537.36 (KHTML, like Gecko) Chrome/98.0.4758.109 Safari/537.36",xpyriment,legacy,legacy,0,uniform,0,0,0,0,24,24,24,0,0,74,74,74,74,74,0,74,0,42,42,42,42,42,0,42,02-02-22,02-02-22,12:29:10,Wed Mar 02 2022 12:29:10 GMT+0100 (közép-európai téli idő),The main experiment item,yes,0,0,C:/Users/rrics/Documents/!!ResearchBMECOGSCI/gnet,0,0,0,prototype1.png,no,mono,no,18,no,black,no,no,768,1163,3.5.6,legacy,xpyriment,osweb,1.3.13,0,down,right,right,down,32533,15351,26808,32533,2,legacy,900,1440,24,900,24,0,0,1440,1646220633846,1024,2,48000,-16,experiment,p10sarr4.png,1,odd,MacIntel,88,127261,124246,88,88,643013,644521,638012,128780,638012,88,869840,871342,866839,644524,866839,visual_patterns,0,0,0,yes,1366
undefined,undefined,undefined,undefined,white,no,Mozilla,Netscape,"5.0 (Macintosh; Intel Mac OS X 10_14_6) AppleWebKit/537.36 (KHTML, like Gecko) Chrome/98.0.4758.109 Safari/537.36",xpyriment,legacy,legacy,0,uniform,0,0,0,0,24,24,24,0,0,74,74,74,74,74,0,74,0,43,43,43,43,43,0,43,02-02-22,02-02-22,12:29:10,Wed Mar 02 2022 12:29:10 GMT+0100 (közép-európai téli idő),The main experiment item,yes,0,0,C:/Users/rrics/Documents/!!ResearchBMECOGSCI/gnet,0,0,0,prototype1.png,no,mono,no,18,no,black,no,no,768,1163,3.5.6,legacy,xpyriment,osweb,1.3.13,0,down,right,right,down,32533,15351,26808,32533,2,legacy,900,1440,24,900,24,0,0,1440,1646220633846,1024,2,48000,-16,experiment,p4sarrcol1.png,1,odd,MacIntel,88,127261,124246,88,88,643013,644521,638012,128780,638012,88,874356,875859,871353,644524,871353,visual_patterns,0,0,0,yes,1366
undefined,undefined,undefined,undefined,white,no,Mozilla,Netscape,"5.0 (Macintosh; Intel Mac OS X 10_14_6) AppleWebKit/537.36 (KHTML, like Gecko) Chrome/98.0.4758.109 Safari/537.36",xpyriment,legacy,legacy,0,uniform,0,0,0,0,24,24,24,0,0,74,74,74,74,74,0,74,0,44,44,44,44,44,0,44,02-02-22,02-02-22,12:29:10,Wed Mar 02 2022 12:29:10 GMT+0100 (közép-európai téli idő),The main experiment item,yes,0,0,C:/Users/rrics/Documents/!!ResearchBMECOGSCI/gnet,0,0,0,prototype1.png,no,mono,no,18,no,black,no,no,768,1163,3.5.6,legacy,xpyriment,osweb,1.3.13,0,down,right,right,down,32533,15351,26808,32533,2,legacy,900,1440,24,900,24,0,0,1440,1646220633846,1024,2,48000,-16,experiment,p5sarrshacol4.png,1,odd,MacIntel,88,127261,124246,88,88,643013,644521,638012,128780,638012,88,878869,880376,875873,644524,875873,visual_patterns,0,0,0,yes,1366
undefined,undefined,undefined,undefined,white,no,Mozilla,Netscape,"5.0 (Macintosh; Intel Mac OS X 10_14_6) AppleWebKit/537.36 (KHTML, like Gecko) Chrome/98.0.4758.109 Safari/537.36",xpyriment,legacy,legacy,0,uniform,0,0,0,0,24,24,24,0,0,74,74,74,74,74,0,74,0,45,45,45,45,45,0,45,02-02-22,02-02-22,12:29:10,Wed Mar 02 2022 12:29:10 GMT+0100 (közép-európai téli idő),The main experiment item,yes,0,0,C:/Users/rrics/Documents/!!ResearchBMECOGSCI/gnet,0,0,0,prototype1.png,no,mono,no,18,no,black,no,no,768,1163,3.5.6,legacy,xpyriment,osweb,1.3.13,0,down,right,right,down,32533,15351,26808,32533,2,legacy,900,1440,24,900,24,0,0,1440,1646220633846,1024,2,48000,-16,experiment,p3sarr3.png,1,odd,MacIntel,88,127261,124246,88,88,643013,644521,638012,128780,638012,88,883385,884893,880390,644524,880390,visual_patterns,0,0,0,yes,1366
undefined,undefined,undefined,undefined,white,no,Mozilla,Netscape,"5.0 (Macintosh; Intel Mac OS X 10_14_6) AppleWebKit/537.36 (KHTML, like Gecko) Chrome/98.0.4758.109 Safari/537.36",xpyriment,legacy,legacy,0,uniform,0,0,0,0,24,24,24,0,0,74,74,74,74,74,0,74,0,46,46,46,46,46,0,46,02-02-22,02-02-22,12:29:10,Wed Mar 02 2022 12:29:10 GMT+0100 (közép-európai téli idő),The main experiment item,yes,0,0,C:/Users/rrics/Documents/!!ResearchBMECOGSCI/gnet,0,0,0,prototype1.png,no,mono,no,18,no,black,no,no,768,1163,3.5.6,legacy,xpyriment,osweb,1.3.13,0,down,right,right,down,32533,15351,26808,32533,2,legacy,900,1440,24,900,24,0,0,1440,1646220633846,1024,2,48000,-16,experiment,p2sarr3.png,1,odd,MacIntel,88,127261,124246,88,88,643013,644521,638012,128780,638012,88,887903,889409,884907,644524,884907,visual_patterns,0,0,0,yes,1366
undefined,undefined,undefined,undefined,white,no,Mozilla,Netscape,"5.0 (Macintosh; Intel Mac OS X 10_14_6) AppleWebKit/537.36 (KHTML, like Gecko) Chrome/98.0.4758.109 Safari/537.36",xpyriment,legacy,legacy,0,uniform,0,0,0,0,24,24,24,0,0,74,74,74,74,74,0,74,0,47,47,47,47,47,0,47,02-02-22,02-02-22,12:29:10,Wed Mar 02 2022 12:29:10 GMT+0100 (közép-európai téli idő),The main experiment item,yes,0,0,C:/Users/rrics/Documents/!!ResearchBMECOGSCI/gnet,0,0,0,prototype1.png,no,mono,no,18,no,black,no,no,768,1163,3.5.6,legacy,xpyriment,osweb,1.3.13,0,down,right,right,down,32533,15351,26808,32533,2,legacy,900,1440,24,900,24,0,0,1440,1646220633846,1024,2,48000,-16,experiment,p4sarr2.png,1,odd,MacIntel,88,127261,124246,88,88,643013,644521,638012,128780,638012,88,892419,893926,889420,644524,889420,visual_patterns,0,0,0,yes,1366
