acc,accuracy,average_response_time,avg_rt,background,bidi,browser_codename,browser_name,browser_version,canvas_backend,clock_backend,color_backend,compensation,coordinates,count_end,count_experiment,count_osweb,count_prestudy,count_prestudy_isi,count_prestudy_sequence,count_prestudy_stimpres,count_start,count_study,count_study_coroutines,count_study_isi,count_study_logger,count_study_response,count_study_sequence,count_study_start,count_study_stimpres,count_test,count_test_coroutines,count_test_isi,count_test_logger,count_test_response,count_test_sequence,count_test_start,count_test_stimpres,date_startdate,date_startdateUTC,date_starttime,datetime,description,disable_garbage_collection,experiment_debug,experiment_parameters,experiment_path,experiment_pilot,experiment_taskname,experiment_taskversion,fampict,font_bold,font_family,font_italic,font_size,font_underline,foreground,form_clicks,fullscreen,height,jatosStudyResultId,jatosVersion,keyboard_backend,mouse_backend,opensesame_codename,opensesame_version,repeat_cycle,response,response_start,response_study_start,response_test_start,response_time,response_time_start,response_time_study_start,response_time_test_start,round_decimals,sampler_backend,screen_availableHeight,screen_availableWidth,screen_colorDepth,screen_height,screen_pixelDepth,screen_screenX,screen_screenY,screen_width,sessionid,sound_buf_size,sound_channels,sound_freq,sound_sample_size,start,stim,subject_nr,subject_parity,system_os,time_prestudy,time_prestudy_isi,time_prestudy_stimpres,time_start,time_study,time_study_isi,time_study_logger,time_study_response,time_study_start,time_study_stimpres,time_test,time_test_isi,time_test_logger,time_test_response,time_test_start,time_test_stimpres,title,total_correct,total_response_time,total_responses,uniform_coordinates,width
undefined,undefined,undefined,undefined,white,no,Mozilla,Netscape,"5.0 (Windows NT 10.0; Win64; x64) AppleWebKit/537.36 (KHTML, like Gecko) Chrome/98.0.4758.102 Safari/537.36",xpyriment,legacy,legacy,0,uniform,0,0,0,0,24,24,24,0,0,0,0,0,0,0,0,0,0,,,,,,0,,02-02-22,02-02-22,13:04:21,Wed Mar 02 2022 13:04:21 GMT+0100 (közép-európai téli idő),The main experiment item,yes,0,0,C:/Users/rrics/Documents/!!ResearchBMECOGSCI/gnet,0,0,0,prototype1.png,no,mono,no,18,no,black,no,no,768,1164,3.5.6,legacy,xpyriment,osweb,1.3.13,0,space,space,space,,28048,14929,28048,,2,legacy,728,1366,24,768,24,0,0,1366,1646222721483,1024,2,48000,-16,experiment,p6sarr1.png,0,even,Win32,422,127246,124230,422,422,161858,163363,156860,128766,156860,422,,,,,,visual_patterns,0,0,0,yes,1366
undefined,undefined,undefined,undefined,white,no,Mozilla,Netscape,"5.0 (Windows NT 10.0; Win64; x64) AppleWebKit/537.36 (KHTML, like Gecko) Chrome/98.0.4758.102 Safari/537.36",xpyriment,legacy,legacy,0,uniform,0,0,0,0,24,24,24,0,0,1,1,1,1,1,0,1,0,,,,,,0,,02-02-22,02-02-22,13:04:21,Wed Mar 02 2022 13:04:21 GMT+0100 (közép-európai téli idő),The main experiment item,yes,0,0,C:/Users/rrics/Documents/!!ResearchBMECOGSCI/gnet,0,0,0,prototype1.png,no,mono,no,18,no,black,no,no,768,1164,3.5.6,legacy,xpyriment,osweb,1.3.13,0,space,space,space,,28048,14929,28048,,2,legacy,728,1366,24,768,24,0,0,1366,1646222721483,1024,2,48000,-16,experiment,prototype3.png,0,even,Win32,422,127246,124230,422,422,168388,169897,163386,128766,163386,422,,,,,,visual_patterns,0,0,0,yes,1366
undefined,undefined,undefined,undefined,white,no,Mozilla,Netscape,"5.0 (Windows NT 10.0; Win64; x64) AppleWebKit/537.36 (KHTML, like Gecko) Chrome/98.0.4758.102 Safari/537.36",xpyriment,legacy,legacy,0,uniform,0,0,0,0,24,24,24,0,0,2,2,2,2,2,0,2,0,,,,,,0,,02-02-22,02-02-22,13:04:21,Wed Mar 02 2022 13:04:21 GMT+0100 (közép-európai téli idő),The main experiment item,yes,0,0,C:/Users/rrics/Documents/!!ResearchBMECOGSCI/gnet,0,0,0,prototype1.png,no,mono,no,18,no,black,no,no,768,1164,3.5.6,legacy,xpyriment,osweb,1.3.13,0,space,space,space,,28048,14929,28048,,2,legacy,728,1366,24,768,24,0,0,1366,1646222721483,1024,2,48000,-16,experiment,p3sarr1.png,0,even,Win32,422,127246,124230,422,422,174917,176434,169917,128766,169917,422,,,,,,visual_patterns,0,0,0,yes,1366
undefined,undefined,undefined,undefined,white,no,Mozilla,Netscape,"5.0 (Windows NT 10.0; Win64; x64) AppleWebKit/537.36 (KHTML, like Gecko) Chrome/98.0.4758.102 Safari/537.36",xpyriment,legacy,legacy,0,uniform,0,0,0,0,24,24,24,0,0,3,3,3,3,3,0,3,0,,,,,,0,,02-02-22,02-02-22,13:04:21,Wed Mar 02 2022 13:04:21 GMT+0100 (közép-európai téli idő),The main experiment item,yes,0,0,C:/Users/rrics/Documents/!!ResearchBMECOGSCI/gnet,0,0,0,prototype1.png,no,mono,no,18,no,black,no,no,768,1164,3.5.6,legacy,xpyriment,osweb,1.3.13,0,space,space,space,,28048,14929,28048,,2,legacy,728,1366,24,768,24,0,0,1366,1646222721483,1024,2,48000,-16,experiment,p9sarr2.png,0,even,Win32,422,127246,124230,422,422,181453,182970,176456,128766,176456,422,,,,,,visual_patterns,0,0,0,yes,1366
undefined,undefined,undefined,undefined,white,no,Mozilla,Netscape,"5.0 (Windows NT 10.0; Win64; x64) AppleWebKit/537.36 (KHTML, like Gecko) Chrome/98.0.4758.102 Safari/537.36",xpyriment,legacy,legacy,0,uniform,0,0,0,0,24,24,24,0,0,4,4,4,4,4,0,4,0,,,,,,0,,02-02-22,02-02-22,13:04:21,Wed Mar 02 2022 13:04:21 GMT+0100 (közép-európai téli idő),The main experiment item,yes,0,0,C:/Users/rrics/Documents/!!ResearchBMECOGSCI/gnet,0,0,0,prototype1.png,no,mono,no,18,no,black,no,no,768,1164,3.5.6,legacy,xpyriment,osweb,1.3.13,0,space,space,space,,28048,14929,28048,,2,legacy,728,1366,24,768,24,0,0,1366,1646222721483,1024,2,48000,-16,experiment,p4sarr2.png,0,even,Win32,422,127246,124230,422,422,188000,189506,182996,128766,182996,422,,,,,,visual_patterns,0,0,0,yes,1366
undefined,undefined,undefined,undefined,white,no,Mozilla,Netscape,"5.0 (Windows NT 10.0; Win64; x64) AppleWebKit/537.36 (KHTML, like Gecko) Chrome/98.0.4758.102 Safari/537.36",xpyriment,legacy,legacy,0,uniform,0,0,0,0,24,24,24,0,0,5,5,5,5,5,0,5,0,,,,,,0,,02-02-22,02-02-22,13:04:21,Wed Mar 02 2022 13:04:21 GMT+0100 (közép-európai téli idő),The main experiment item,yes,0,0,C:/Users/rrics/Documents/!!ResearchBMECOGSCI/gnet,0,0,0,prototype1.png,no,mono,no,18,no,black,no,no,768,1164,3.5.6,legacy,xpyriment,osweb,1.3.13,0,space,space,space,,28048,14929,28048,,2,legacy,728,1366,24,768,24,0,0,1366,1646222721483,1024,2,48000,-16,experiment,p4sarrshacol2.png,0,even,Win32,422,127246,124230,422,422,194523,196026,189530,128766,189530,422,,,,,,visual_patterns,0,0,0,yes,1366
undefined,undefined,undefined,undefined,white,no,Mozilla,Netscape,"5.0 (Windows NT 10.0; Win64; x64) AppleWebKit/537.36 (KHTML, like Gecko) Chrome/98.0.4758.102 Safari/537.36",xpyriment,legacy,legacy,0,uniform,0,0,0,0,24,24,24,0,0,6,6,6,6,6,0,6,0,,,,,,0,,02-02-22,02-02-22,13:04:21,Wed Mar 02 2022 13:04:21 GMT+0100 (közép-európai téli idő),The main experiment item,yes,0,0,C:/Users/rrics/Documents/!!ResearchBMECOGSCI/gnet,0,0,0,prototype1.png,no,mono,no,18,no,black,no,no,768,1164,3.5.6,legacy,xpyriment,osweb,1.3.13,0,space,space,space,,28048,14929,28048,,2,legacy,728,1366,24,768,24,0,0,1366,1646222721483,1024,2,48000,-16,experiment,p5sarrsha2.png,0,even,Win32,422,127246,124230,422,422,201045,202562,196050,128766,196049,422,,,,,,visual_patterns,0,0,0,yes,1366
undefined,undefined,undefined,undefined,white,no,Mozilla,Netscape,"5.0 (Windows NT 10.0; Win64; x64) AppleWebKit/537.36 (KHTML, like Gecko) Chrome/98.0.4758.102 Safari/537.36",xpyriment,legacy,legacy,0,uniform,0,0,0,0,24,24,24,0,0,7,7,7,7,7,0,7,0,,,,,,0,,02-02-22,02-02-22,13:04:21,Wed Mar 02 2022 13:04:21 GMT+0100 (közép-európai téli idő),The main experiment item,yes,0,0,C:/Users/rrics/Documents/!!ResearchBMECOGSCI/gnet,0,0,0,prototype1.png,no,mono,no,18,no,black,no,no,768,1164,3.5.6,legacy,xpyriment,osweb,1.3.13,0,space,space,space,,28048,14929,28048,,2,legacy,728,1366,24,768,24,0,0,1366,1646222721483,1024,2,48000,-16,experiment,p2sarr1.png,0,even,Win32,422,127246,124230,422,422,207578,209082,202582,128766,202582,422,,,,,,visual_patterns,0,0,0,yes,1366
undefined,undefined,undefined,undefined,white,no,Mozilla,Netscape,"5.0 (Windows NT 10.0; Win64; x64) AppleWebKit/537.36 (KHTML, like Gecko) Chrome/98.0.4758.102 Safari/537.36",xpyriment,legacy,legacy,0,uniform,0,0,0,0,24,24,24,0,0,8,8,8,8,8,0,8,0,,,,,,0,,02-02-22,02-02-22,13:04:21,Wed Mar 02 2022 13:04:21 GMT+0100 (közép-európai téli idő),The main experiment item,yes,0,0,C:/Users/rrics/Documents/!!ResearchBMECOGSCI/gnet,0,0,0,prototype1.png,no,mono,no,18,no,black,no,no,768,1164,3.5.6,legacy,xpyriment,osweb,1.3.13,0,space,space,space,,28048,14929,28048,,2,legacy,728,1366,24,768,24,0,0,1366,1646222721483,1024,2,48000,-16,experiment,prototype4.png,0,even,Win32,422,127246,124230,422,422,214101,215618,209100,128766,209100,422,,,,,,visual_patterns,0,0,0,yes,1366
undefined,undefined,undefined,undefined,white,no,Mozilla,Netscape,"5.0 (Windows NT 10.0; Win64; x64) AppleWebKit/537.36 (KHTML, like Gecko) Chrome/98.0.4758.102 Safari/537.36",xpyriment,legacy,legacy,0,uniform,0,0,0,0,24,24,24,0,0,9,9,9,9,9,0,9,0,,,,,,0,,02-02-22,02-02-22,13:04:21,Wed Mar 02 2022 13:04:21 GMT+0100 (közép-európai téli idő),The main experiment item,yes,0,0,C:/Users/rrics/Documents/!!ResearchBMECOGSCI/gnet,0,0,0,prototype1.png,no,mono,no,18,no,black,no,no,768,1164,3.5.6,legacy,xpyriment,osweb,1.3.13,0,space,space,space,,28048,14929,28048,,2,legacy,728,1366,24,768,24,0,0,1366,1646222721483,1024,2,48000,-16,experiment,p5sarrsha1.png,0,even,Win32,422,127246,124230,422,422,220637,222154,215642,128766,215642,422,,,,,,visual_patterns,0,0,0,yes,1366
undefined,undefined,undefined,undefined,white,no,Mozilla,Netscape,"5.0 (Windows NT 10.0; Win64; x64) AppleWebKit/537.36 (KHTML, like Gecko) Chrome/98.0.4758.102 Safari/537.36",xpyriment,legacy,legacy,0,uniform,0,0,0,0,24,24,24,0,0,10,10,10,10,10,0,10,0,,,,,,0,,02-02-22,02-02-22,13:04:21,Wed Mar 02 2022 13:04:21 GMT+0100 (közép-európai téli idő),The main experiment item,yes,0,0,C:/Users/rrics/Documents/!!ResearchBMECOGSCI/gnet,0,0,0,prototype1.png,no,mono,no,18,no,black,no,no,768,1164,3.5.6,legacy,xpyriment,osweb,1.3.13,0,space,space,space,,28048,14929,28048,,2,legacy,728,1366,24,768,24,0,0,1366,1646222721483,1024,2,48000,-16,experiment,p5sarrcol1.png,0,even,Win32,422,127246,124230,422,422,227164,228674,222168,128766,222168,422,,,,,,visual_patterns,0,0,0,yes,1366
undefined,undefined,undefined,undefined,white,no,Mozilla,Netscape,"5.0 (Windows NT 10.0; Win64; x64) AppleWebKit/537.36 (KHTML, like Gecko) Chrome/98.0.4758.102 Safari/537.36",xpyriment,legacy,legacy,0,uniform,0,0,0,0,24,24,24,0,0,11,11,11,11,11,0,11,0,,,,,,0,,02-02-22,02-02-22,13:04:21,Wed Mar 02 2022 13:04:21 GMT+0100 (közép-európai téli idő),The main experiment item,yes,0,0,C:/Users/rrics/Documents/!!ResearchBMECOGSCI/gnet,0,0,0,prototype1.png,no,mono,no,18,no,black,no,no,768,1164,3.5.6,legacy,xpyriment,osweb,1.3.13,0,space,space,space,,28048,14929,28048,,2,legacy,728,1366,24,768,24,0,0,1366,1646222721483,1024,2,48000,-16,experiment,p8sarr2.png,0,even,Win32,422,127246,124230,422,422,233689,235194,228686,128766,228685,422,,,,,,visual_patterns,0,0,0,yes,1366
undefined,undefined,undefined,undefined,white,no,Mozilla,Netscape,"5.0 (Windows NT 10.0; Win64; x64) AppleWebKit/537.36 (KHTML, like Gecko) Chrome/98.0.4758.102 Safari/537.36",xpyriment,legacy,legacy,0,uniform,0,0,0,0,24,24,24,0,0,12,12,12,12,12,0,12,0,,,,,,0,,02-02-22,02-02-22,13:04:21,Wed Mar 02 2022 13:04:21 GMT+0100 (közép-európai téli idő),The main experiment item,yes,0,0,C:/Users/rrics/Documents/!!ResearchBMECOGSCI/gnet,0,0,0,prototype1.png,no,mono,no,18,no,black,no,no,768,1164,3.5.6,legacy,xpyriment,osweb,1.3.13,0,space,space,space,,28048,14929,28048,,2,legacy,728,1366,24,768,24,0,0,1366,1646222721483,1024,2,48000,-16,experiment,p5sarrshacol2.png,0,even,Win32,422,127246,124230,422,422,240210,241714,235216,128766,235215,422,,,,,,visual_patterns,0,0,0,yes,1366
undefined,undefined,undefined,undefined,white,no,Mozilla,Netscape,"5.0 (Windows NT 10.0; Win64; x64) AppleWebKit/537.36 (KHTML, like Gecko) Chrome/98.0.4758.102 Safari/537.36",xpyriment,legacy,legacy,0,uniform,0,0,0,0,24,24,24,0,0,13,13,13,13,13,0,13,0,,,,,,0,,02-02-22,02-02-22,13:04:21,Wed Mar 02 2022 13:04:21 GMT+0100 (közép-európai téli idő),The main experiment item,yes,0,0,C:/Users/rrics/Documents/!!ResearchBMECOGSCI/gnet,0,0,0,prototype1.png,no,mono,no,18,no,black,no,no,768,1164,3.5.6,legacy,xpyriment,osweb,1.3.13,0,space,space,space,,28048,14929,28048,,2,legacy,728,1366,24,768,24,0,0,1366,1646222721483,1024,2,48000,-16,experiment,p8sarr1.png,0,even,Win32,422,127246,124230,422,422,246744,248250,241752,128766,241752,422,,,,,,visual_patterns,0,0,0,yes,1366
undefined,undefined,undefined,undefined,white,no,Mozilla,Netscape,"5.0 (Windows NT 10.0; Win64; x64) AppleWebKit/537.36 (KHTML, like Gecko) Chrome/98.0.4758.102 Safari/537.36",xpyriment,legacy,legacy,0,uniform,0,0,0,0,24,24,24,0,0,14,14,14,14,14,0,14,0,,,,,,0,,02-02-22,02-02-22,13:04:21,Wed Mar 02 2022 13:04:21 GMT+0100 (közép-európai téli idő),The main experiment item,yes,0,0,C:/Users/rrics/Documents/!!ResearchBMECOGSCI/gnet,0,0,0,prototype1.png,no,mono,no,18,no,black,no,no,768,1164,3.5.6,legacy,xpyriment,osweb,1.3.13,0,space,space,space,,28048,14929,28048,,2,legacy,728,1366,24,768,24,0,0,1366,1646222721483,1024,2,48000,-16,experiment,p3sarrcol1.png,0,even,Win32,422,127246,124230,422,422,253269,254786,248272,128766,248272,422,,,,,,visual_patterns,0,0,0,yes,1366
undefined,undefined,undefined,undefined,white,no,Mozilla,Netscape,"5.0 (Windows NT 10.0; Win64; x64) AppleWebKit/537.36 (KHTML, like Gecko) Chrome/98.0.4758.102 Safari/537.36",xpyriment,legacy,legacy,0,uniform,0,0,0,0,24,24,24,0,0,15,15,15,15,15,0,15,0,,,,,,0,,02-02-22,02-02-22,13:04:21,Wed Mar 02 2022 13:04:21 GMT+0100 (közép-európai téli idő),The main experiment item,yes,0,0,C:/Users/rrics/Documents/!!ResearchBMECOGSCI/gnet,0,0,0,prototype1.png,no,mono,no,18,no,black,no,no,768,1164,3.5.6,legacy,xpyriment,osweb,1.3.13,0,space,space,space,,28048,14929,28048,,2,legacy,728,1366,24,768,24,0,0,1366,1646222721483,1024,2,48000,-16,experiment,prototype1.png,0,even,Win32,422,127246,124230,422,422,260346,261856,255348,128766,255348,422,,,,,,visual_patterns,0,0,0,yes,1366
undefined,undefined,undefined,undefined,white,no,Mozilla,Netscape,"5.0 (Windows NT 10.0; Win64; x64) AppleWebKit/537.36 (KHTML, like Gecko) Chrome/98.0.4758.102 Safari/537.36",xpyriment,legacy,legacy,0,uniform,0,0,0,0,24,24,24,0,0,16,16,16,16,16,0,16,0,,,,,,0,,02-02-22,02-02-22,13:04:21,Wed Mar 02 2022 13:04:21 GMT+0100 (közép-európai téli idő),The main experiment item,yes,0,0,C:/Users/rrics/Documents/!!ResearchBMECOGSCI/gnet,0,0,0,prototype1.png,no,mono,no,18,no,black,no,no,768,1164,3.5.6,legacy,xpyriment,osweb,1.3.13,0,space,space,space,,28048,14929,28048,,2,legacy,728,1366,24,768,24,0,0,1366,1646222721483,1024,2,48000,-16,experiment,p2sarr2.png,0,even,Win32,422,127246,124230,422,422,266871,268375,261875,128766,261875,422,,,,,,visual_patterns,0,0,0,yes,1366
undefined,undefined,undefined,undefined,white,no,Mozilla,Netscape,"5.0 (Windows NT 10.0; Win64; x64) AppleWebKit/537.36 (KHTML, like Gecko) Chrome/98.0.4758.102 Safari/537.36",xpyriment,legacy,legacy,0,uniform,0,0,0,0,24,24,24,0,0,17,17,17,17,17,0,17,0,,,,,,0,,02-02-22,02-02-22,13:04:21,Wed Mar 02 2022 13:04:21 GMT+0100 (közép-európai téli idő),The main experiment item,yes,0,0,C:/Users/rrics/Documents/!!ResearchBMECOGSCI/gnet,0,0,0,prototype1.png,no,mono,no,18,no,black,no,no,768,1164,3.5.6,legacy,xpyriment,osweb,1.3.13,0,space,space,space,,28048,14929,28048,,2,legacy,728,1366,24,768,24,0,0,1366,1646222721483,1024,2,48000,-16,experiment,p3sarrsha2.png,0,even,Win32,422,127246,124230,422,422,273392,274895,268390,128766,268390,422,,,,,,visual_patterns,0,0,0,yes,1366
undefined,undefined,undefined,undefined,white,no,Mozilla,Netscape,"5.0 (Windows NT 10.0; Win64; x64) AppleWebKit/537.36 (KHTML, like Gecko) Chrome/98.0.4758.102 Safari/537.36",xpyriment,legacy,legacy,0,uniform,0,0,0,0,24,24,24,0,0,18,18,18,18,18,0,18,0,,,,,,0,,02-02-22,02-02-22,13:04:21,Wed Mar 02 2022 13:04:21 GMT+0100 (közép-európai téli idő),The main experiment item,yes,0,0,C:/Users/rrics/Documents/!!ResearchBMECOGSCI/gnet,0,0,0,prototype1.png,no,mono,no,18,no,black,no,no,768,1164,3.5.6,legacy,xpyriment,osweb,1.3.13,0,space,space,space,,28048,14929,28048,,2,legacy,728,1366,24,768,24,0,0,1366,1646222721483,1024,2,48000,-16,experiment,prototype4.png,0,even,Win32,422,127246,124230,422,422,279912,281414,274910,128766,274910,422,,,,,,visual_patterns,0,0,0,yes,1366
undefined,undefined,undefined,undefined,white,no,Mozilla,Netscape,"5.0 (Windows NT 10.0; Win64; x64) AppleWebKit/537.36 (KHTML, like Gecko) Chrome/98.0.4758.102 Safari/537.36",xpyriment,legacy,legacy,0,uniform,0,0,0,0,24,24,24,0,0,19,19,19,19,19,0,19,0,,,,,,0,,02-02-22,02-02-22,13:04:21,Wed Mar 02 2022 13:04:21 GMT+0100 (közép-európai téli idő),The main experiment item,yes,0,0,C:/Users/rrics/Documents/!!ResearchBMECOGSCI/gnet,0,0,0,prototype1.png,no,mono,no,18,no,black,no,no,768,1164,3.5.6,legacy,xpyriment,osweb,1.3.13,0,space,space,space,,28048,14929,28048,,2,legacy,728,1366,24,768,24,0,0,1366,1646222721483,1024,2,48000,-16,experiment,p3sarrsha1.png,0,even,Win32,422,127246,124230,422,422,286432,287933,281436,128766,281436,422,,,,,,visual_patterns,0,0,0,yes,1366
undefined,undefined,undefined,undefined,white,no,Mozilla,Netscape,"5.0 (Windows NT 10.0; Win64; x64) AppleWebKit/537.36 (KHTML, like Gecko) Chrome/98.0.4758.102 Safari/537.36",xpyriment,legacy,legacy,0,uniform,0,0,0,0,24,24,24,0,0,20,20,20,20,20,0,20,0,,,,,,0,,02-02-22,02-02-22,13:04:21,Wed Mar 02 2022 13:04:21 GMT+0100 (közép-európai téli idő),The main experiment item,yes,0,0,C:/Users/rrics/Documents/!!ResearchBMECOGSCI/gnet,0,0,0,prototype1.png,no,mono,no,18,no,black,no,no,768,1164,3.5.6,legacy,xpyriment,osweb,1.3.13,0,space,space,space,,28048,14929,28048,,2,legacy,728,1366,24,768,24,0,0,1366,1646222721483,1024,2,48000,-16,experiment,prototype2.png,0,even,Win32,422,127246,124230,422,422,292944,294453,287942,128766,287942,422,,,,,,visual_patterns,0,0,0,yes,1366
undefined,undefined,undefined,undefined,white,no,Mozilla,Netscape,"5.0 (Windows NT 10.0; Win64; x64) AppleWebKit/537.36 (KHTML, like Gecko) Chrome/98.0.4758.102 Safari/537.36",xpyriment,legacy,legacy,0,uniform,0,0,0,0,24,24,24,0,0,21,21,21,21,21,0,21,0,,,,,,0,,02-02-22,02-02-22,13:04:21,Wed Mar 02 2022 13:04:21 GMT+0100 (közép-európai téli idő),The main experiment item,yes,0,0,C:/Users/rrics/Documents/!!ResearchBMECOGSCI/gnet,0,0,0,prototype1.png,no,mono,no,18,no,black,no,no,768,1164,3.5.6,legacy,xpyriment,osweb,1.3.13,0,space,space,space,,28048,14929,28048,,2,legacy,728,1366,24,768,24,0,0,1366,1646222721483,1024,2,48000,-16,experiment,p4sarrcol2.png,0,even,Win32,422,127246,124230,422,422,299471,300973,294474,128766,294474,422,,,,,,visual_patterns,0,0,0,yes,1366
undefined,undefined,undefined,undefined,white,no,Mozilla,Netscape,"5.0 (Windows NT 10.0; Win64; x64) AppleWebKit/537.36 (KHTML, like Gecko) Chrome/98.0.4758.102 Safari/537.36",xpyriment,legacy,legacy,0,uniform,0,0,0,0,24,24,24,0,0,22,22,22,22,22,0,22,0,,,,,,0,,02-02-22,02-02-22,13:04:21,Wed Mar 02 2022 13:04:21 GMT+0100 (közép-európai téli idő),The main experiment item,yes,0,0,C:/Users/rrics/Documents/!!ResearchBMECOGSCI/gnet,0,0,0,prototype1.png,no,mono,no,18,no,black,no,no,768,1164,3.5.6,legacy,xpyriment,osweb,1.3.13,0,space,space,space,,28048,14929,28048,,2,legacy,728,1366,24,768,24,0,0,1366,1646222721483,1024,2,48000,-16,experiment,p5sarrshacol1.png,0,even,Win32,422,127246,124230,422,422,305993,307509,300996,128766,300996,422,,,,,,visual_patterns,0,0,0,yes,1366
undefined,undefined,undefined,undefined,white,no,Mozilla,Netscape,"5.0 (Windows NT 10.0; Win64; x64) AppleWebKit/537.36 (KHTML, like Gecko) Chrome/98.0.4758.102 Safari/537.36",xpyriment,legacy,legacy,0,uniform,0,0,0,0,24,24,24,0,0,23,23,23,23,23,0,23,0,,,,,,0,,02-02-22,02-02-22,13:04:21,Wed Mar 02 2022 13:04:21 GMT+0100 (közép-európai téli idő),The main experiment item,yes,0,0,C:/Users/rrics/Documents/!!ResearchBMECOGSCI/gnet,0,0,0,prototype1.png,no,mono,no,18,no,black,no,no,768,1164,3.5.6,legacy,xpyriment,osweb,1.3.13,0,space,space,space,,28048,14929,28048,,2,legacy,728,1366,24,768,24,0,0,1366,1646222721483,1024,2,48000,-16,experiment,prototype2.png,0,even,Win32,422,127246,124230,422,422,312528,314029,307528,128766,307528,422,,,,,,visual_patterns,0,0,0,yes,1366
undefined,undefined,undefined,undefined,white,no,Mozilla,Netscape,"5.0 (Windows NT 10.0; Win64; x64) AppleWebKit/537.36 (KHTML, like Gecko) Chrome/98.0.4758.102 Safari/537.36",xpyriment,legacy,legacy,0,uniform,0,0,0,0,24,24,24,0,0,24,24,24,24,24,0,24,0,,,,,,0,,02-02-22,02-02-22,13:04:21,Wed Mar 02 2022 13:04:21 GMT+0100 (közép-európai téli idő),The main experiment item,yes,0,0,C:/Users/rrics/Documents/!!ResearchBMECOGSCI/gnet,0,0,0,prototype1.png,no,mono,no,18,no,black,no,no,768,1164,3.5.6,legacy,xpyriment,osweb,1.3.13,0,space,space,space,,28048,14929,28048,,2,legacy,728,1366,24,768,24,0,0,1366,1646222721483,1024,2,48000,-16,experiment,p4sarrsha2.png,0,even,Win32,422,127246,124230,422,422,319044,320548,314048,128766,314048,422,,,,,,visual_patterns,0,0,0,yes,1366
undefined,undefined,undefined,undefined,white,no,Mozilla,Netscape,"5.0 (Windows NT 10.0; Win64; x64) AppleWebKit/537.36 (KHTML, like Gecko) Chrome/98.0.4758.102 Safari/537.36",xpyriment,legacy,legacy,0,uniform,0,0,0,0,24,24,24,0,0,25,25,25,25,25,0,25,0,,,,,,0,,02-02-22,02-02-22,13:04:21,Wed Mar 02 2022 13:04:21 GMT+0100 (közép-európai téli idő),The main experiment item,yes,0,0,C:/Users/rrics/Documents/!!ResearchBMECOGSCI/gnet,0,0,0,prototype1.png,no,mono,no,18,no,black,no,no,768,1164,3.5.6,legacy,xpyriment,osweb,1.3.13,0,space,space,space,,28048,14929,28048,,2,legacy,728,1366,24,768,24,0,0,1366,1646222721483,1024,2,48000,-16,experiment,p9sarr1.png,0,even,Win32,422,127246,124230,422,422,325594,327102,320597,128766,320597,422,,,,,,visual_patterns,0,0,0,yes,1366
undefined,undefined,undefined,undefined,white,no,Mozilla,Netscape,"5.0 (Windows NT 10.0; Win64; x64) AppleWebKit/537.36 (KHTML, like Gecko) Chrome/98.0.4758.102 Safari/537.36",xpyriment,legacy,legacy,0,uniform,0,0,0,0,24,24,24,0,0,26,26,26,26,26,0,26,0,,,,,,0,,02-02-22,02-02-22,13:04:21,Wed Mar 02 2022 13:04:21 GMT+0100 (közép-európai téli idő),The main experiment item,yes,0,0,C:/Users/rrics/Documents/!!ResearchBMECOGSCI/gnet,0,0,0,prototype1.png,no,mono,no,18,no,black,no,no,768,1164,3.5.6,legacy,xpyriment,osweb,1.3.13,0,space,space,space,,28048,14929,28048,,2,legacy,728,1366,24,768,24,0,0,1366,1646222721483,1024,2,48000,-16,experiment,prototype1.png,0,even,Win32,422,127246,124230,422,422,332118,333621,327116,128766,327116,422,,,,,,visual_patterns,0,0,0,yes,1366
undefined,undefined,undefined,undefined,white,no,Mozilla,Netscape,"5.0 (Windows NT 10.0; Win64; x64) AppleWebKit/537.36 (KHTML, like Gecko) Chrome/98.0.4758.102 Safari/537.36",xpyriment,legacy,legacy,0,uniform,0,0,0,0,24,24,24,0,0,27,27,27,27,27,0,27,0,,,,,,0,,02-02-22,02-02-22,13:04:21,Wed Mar 02 2022 13:04:21 GMT+0100 (közép-európai téli idő),The main experiment item,yes,0,0,C:/Users/rrics/Documents/!!ResearchBMECOGSCI/gnet,0,0,0,prototype1.png,no,mono,no,18,no,black,no,no,768,1164,3.5.6,legacy,xpyriment,osweb,1.3.13,0,space,space,space,,28048,14929,28048,,2,legacy,728,1366,24,768,24,0,0,1366,1646222721483,1024,2,48000,-16,experiment,p4sarrcol1.png,0,even,Win32,422,127246,124230,422,422,338641,340158,333647,128766,333646,422,,,,,,visual_patterns,0,0,0,yes,1366
undefined,undefined,undefined,undefined,white,no,Mozilla,Netscape,"5.0 (Windows NT 10.0; Win64; x64) AppleWebKit/537.36 (KHTML, like Gecko) Chrome/98.0.4758.102 Safari/537.36",xpyriment,legacy,legacy,0,uniform,0,0,0,0,24,24,24,0,0,28,28,28,28,28,0,28,0,,,,,,0,,02-02-22,02-02-22,13:04:21,Wed Mar 02 2022 13:04:21 GMT+0100 (közép-európai téli idő),The main experiment item,yes,0,0,C:/Users/rrics/Documents/!!ResearchBMECOGSCI/gnet,0,0,0,prototype1.png,no,mono,no,18,no,black,no,no,768,1164,3.5.6,legacy,xpyriment,osweb,1.3.13,0,space,space,space,,28048,14929,28048,,2,legacy,728,1366,24,768,24,0,0,1366,1646222721483,1024,2,48000,-16,experiment,prototype4.png,0,even,Win32,422,127246,124230,422,422,345174,346677,340175,128766,340175,422,,,,,,visual_patterns,0,0,0,yes,1366
undefined,undefined,undefined,undefined,white,no,Mozilla,Netscape,"5.0 (Windows NT 10.0; Win64; x64) AppleWebKit/537.36 (KHTML, like Gecko) Chrome/98.0.4758.102 Safari/537.36",xpyriment,legacy,legacy,0,uniform,0,0,0,0,24,24,24,0,0,29,29,29,29,29,0,29,0,,,,,,0,,02-02-22,02-02-22,13:04:21,Wed Mar 02 2022 13:04:21 GMT+0100 (közép-európai téli idő),The main experiment item,yes,0,0,C:/Users/rrics/Documents/!!ResearchBMECOGSCI/gnet,0,0,0,prototype1.png,no,mono,no,18,no,black,no,no,768,1164,3.5.6,legacy,xpyriment,osweb,1.3.13,0,space,space,space,,28048,14929,28048,,2,legacy,728,1366,24,768,24,0,0,1366,1646222721483,1024,2,48000,-16,experiment,prototype5.png,0,even,Win32,422,127246,124230,422,422,351696,353199,346698,128766,346698,422,,,,,,visual_patterns,0,0,0,yes,1366
undefined,undefined,undefined,undefined,white,no,Mozilla,Netscape,"5.0 (Windows NT 10.0; Win64; x64) AppleWebKit/537.36 (KHTML, like Gecko) Chrome/98.0.4758.102 Safari/537.36",xpyriment,legacy,legacy,0,uniform,0,0,0,0,24,24,24,0,0,30,30,30,30,30,0,30,0,,,,,,0,,02-02-22,02-02-22,13:04:21,Wed Mar 02 2022 13:04:21 GMT+0100 (közép-európai téli idő),The main experiment item,yes,0,0,C:/Users/rrics/Documents/!!ResearchBMECOGSCI/gnet,0,0,0,prototype1.png,no,mono,no,18,no,black,no,no,768,1164,3.5.6,legacy,xpyriment,osweb,1.3.13,0,space,space,space,,28048,14929,28048,,2,legacy,728,1366,24,768,24,0,0,1366,1646222721483,1024,2,48000,-16,experiment,p5sarrcol2.png,0,even,Win32,422,127246,124230,422,422,358257,359766,353259,128766,353259,422,,,,,,visual_patterns,0,0,0,yes,1366
undefined,undefined,undefined,undefined,white,no,Mozilla,Netscape,"5.0 (Windows NT 10.0; Win64; x64) AppleWebKit/537.36 (KHTML, like Gecko) Chrome/98.0.4758.102 Safari/537.36",xpyriment,legacy,legacy,0,uniform,0,0,0,0,24,24,24,0,0,31,31,31,31,31,0,31,0,,,,,,0,,02-02-22,02-02-22,13:04:21,Wed Mar 02 2022 13:04:21 GMT+0100 (közép-európai téli idő),The main experiment item,yes,0,0,C:/Users/rrics/Documents/!!ResearchBMECOGSCI/gnet,0,0,0,prototype1.png,no,mono,no,18,no,black,no,no,768,1164,3.5.6,legacy,xpyriment,osweb,1.3.13,0,space,space,space,,28048,14929,28048,,2,legacy,728,1366,24,768,24,0,0,1366,1646222721483,1024,2,48000,-16,experiment,p2sarrsha2.png,0,even,Win32,422,127246,124230,422,422,364781,366286,359786,128766,359786,422,,,,,,visual_patterns,0,0,0,yes,1366
undefined,undefined,undefined,undefined,white,no,Mozilla,Netscape,"5.0 (Windows NT 10.0; Win64; x64) AppleWebKit/537.36 (KHTML, like Gecko) Chrome/98.0.4758.102 Safari/537.36",xpyriment,legacy,legacy,0,uniform,0,0,0,0,24,24,24,0,0,32,32,32,32,32,0,32,0,,,,,,0,,02-02-22,02-02-22,13:04:21,Wed Mar 02 2022 13:04:21 GMT+0100 (közép-európai téli idő),The main experiment item,yes,0,0,C:/Users/rrics/Documents/!!ResearchBMECOGSCI/gnet,0,0,0,prototype1.png,no,mono,no,18,no,black,no,no,768,1164,3.5.6,legacy,xpyriment,osweb,1.3.13,0,space,space,space,,28048,14929,28048,,2,legacy,728,1366,24,768,24,0,0,1366,1646222721483,1024,2,48000,-16,experiment,p5sarr1.png,0,even,Win32,422,127246,124230,422,422,371303,372805,366306,128766,366306,422,,,,,,visual_patterns,0,0,0,yes,1366
undefined,undefined,undefined,undefined,white,no,Mozilla,Netscape,"5.0 (Windows NT 10.0; Win64; x64) AppleWebKit/537.36 (KHTML, like Gecko) Chrome/98.0.4758.102 Safari/537.36",xpyriment,legacy,legacy,0,uniform,0,0,0,0,24,24,24,0,0,33,33,33,33,33,0,33,0,,,,,,0,,02-02-22,02-02-22,13:04:21,Wed Mar 02 2022 13:04:21 GMT+0100 (közép-európai téli idő),The main experiment item,yes,0,0,C:/Users/rrics/Documents/!!ResearchBMECOGSCI/gnet,0,0,0,prototype1.png,no,mono,no,18,no,black,no,no,768,1164,3.5.6,legacy,xpyriment,osweb,1.3.13,0,space,space,space,,28048,14929,28048,,2,legacy,728,1366,24,768,24,0,0,1366,1646222721483,1024,2,48000,-16,experiment,p3sarrshacol1.png,0,even,Win32,422,127246,124230,422,422,377822,379325,372830,128766,372830,422,,,,,,visual_patterns,0,0,0,yes,1366
undefined,undefined,undefined,undefined,white,no,Mozilla,Netscape,"5.0 (Windows NT 10.0; Win64; x64) AppleWebKit/537.36 (KHTML, like Gecko) Chrome/98.0.4758.102 Safari/537.36",xpyriment,legacy,legacy,0,uniform,0,0,0,0,24,24,24,0,0,34,34,34,34,34,0,34,0,,,,,,0,,02-02-22,02-02-22,13:04:21,Wed Mar 02 2022 13:04:21 GMT+0100 (közép-európai téli idő),The main experiment item,yes,0,0,C:/Users/rrics/Documents/!!ResearchBMECOGSCI/gnet,0,0,0,prototype1.png,no,mono,no,18,no,black,no,no,768,1164,3.5.6,legacy,xpyriment,osweb,1.3.13,0,space,space,space,,28048,14929,28048,,2,legacy,728,1366,24,768,24,0,0,1366,1646222721483,1024,2,48000,-16,experiment,prototype1.png,0,even,Win32,422,127246,124230,422,422,384335,385845,379336,128766,379336,422,,,,,,visual_patterns,0,0,0,yes,1366
undefined,undefined,undefined,undefined,white,no,Mozilla,Netscape,"5.0 (Windows NT 10.0; Win64; x64) AppleWebKit/537.36 (KHTML, like Gecko) Chrome/98.0.4758.102 Safari/537.36",xpyriment,legacy,legacy,0,uniform,0,0,0,0,24,24,24,0,0,35,35,35,35,35,0,35,0,,,,,,0,,02-02-22,02-02-22,13:04:21,Wed Mar 02 2022 13:04:21 GMT+0100 (közép-európai téli idő),The main experiment item,yes,0,0,C:/Users/rrics/Documents/!!ResearchBMECOGSCI/gnet,0,0,0,prototype1.png,no,mono,no,18,no,black,no,no,768,1164,3.5.6,legacy,xpyriment,osweb,1.3.13,0,space,space,space,,28048,14929,28048,,2,legacy,728,1366,24,768,24,0,0,1366,1646222721483,1024,2,48000,-16,experiment,p4sarrshacol1.png,0,even,Win32,422,127246,124230,422,422,390864,392381,385868,128766,385868,422,,,,,,visual_patterns,0,0,0,yes,1366
undefined,undefined,undefined,undefined,white,no,Mozilla,Netscape,"5.0 (Windows NT 10.0; Win64; x64) AppleWebKit/537.36 (KHTML, like Gecko) Chrome/98.0.4758.102 Safari/537.36",xpyriment,legacy,legacy,0,uniform,0,0,0,0,24,24,24,0,0,36,36,36,36,36,0,36,0,,,,,,0,,02-02-22,02-02-22,13:04:21,Wed Mar 02 2022 13:04:21 GMT+0100 (közép-európai téli idő),The main experiment item,yes,0,0,C:/Users/rrics/Documents/!!ResearchBMECOGSCI/gnet,0,0,0,prototype1.png,no,mono,no,18,no,black,no,no,768,1164,3.5.6,legacy,xpyriment,osweb,1.3.13,0,space,space,space,,28048,14929,28048,,2,legacy,728,1366,24,768,24,0,0,1366,1646222721483,1024,2,48000,-16,experiment,prototype3.png,0,even,Win32,422,127246,124230,422,422,397411,398917,392406,128766,392406,422,,,,,,visual_patterns,0,0,0,yes,1366
undefined,undefined,undefined,undefined,white,no,Mozilla,Netscape,"5.0 (Windows NT 10.0; Win64; x64) AppleWebKit/537.36 (KHTML, like Gecko) Chrome/98.0.4758.102 Safari/537.36",xpyriment,legacy,legacy,0,uniform,0,0,0,0,24,24,24,0,0,37,37,37,37,37,0,37,0,,,,,,0,,02-02-22,02-02-22,13:04:21,Wed Mar 02 2022 13:04:21 GMT+0100 (közép-európai téli idő),The main experiment item,yes,0,0,C:/Users/rrics/Documents/!!ResearchBMECOGSCI/gnet,0,0,0,prototype1.png,no,mono,no,18,no,black,no,no,768,1164,3.5.6,legacy,xpyriment,osweb,1.3.13,0,space,space,space,,28048,14929,28048,,2,legacy,728,1366,24,768,24,0,0,1366,1646222721483,1024,2,48000,-16,experiment,prototype3.png,0,even,Win32,422,127246,124230,422,422,403942,405454,398943,128766,398943,422,,,,,,visual_patterns,0,0,0,yes,1366
undefined,undefined,undefined,undefined,white,no,Mozilla,Netscape,"5.0 (Windows NT 10.0; Win64; x64) AppleWebKit/537.36 (KHTML, like Gecko) Chrome/98.0.4758.102 Safari/537.36",xpyriment,legacy,legacy,0,uniform,0,0,0,0,24,24,24,0,0,38,38,38,38,38,0,38,0,,,,,,0,,02-02-22,02-02-22,13:04:21,Wed Mar 02 2022 13:04:21 GMT+0100 (közép-európai téli idő),The main experiment item,yes,0,0,C:/Users/rrics/Documents/!!ResearchBMECOGSCI/gnet,0,0,0,prototype1.png,no,mono,no,18,no,black,no,no,768,1164,3.5.6,legacy,xpyriment,osweb,1.3.13,0,space,space,space,,28048,14929,28048,,2,legacy,728,1366,24,768,24,0,0,1366,1646222721483,1024,2,48000,-16,experiment,p7sarr1.png,0,even,Win32,422,127246,124230,422,422,410467,411973,405482,128766,405482,422,,,,,,visual_patterns,0,0,0,yes,1366
undefined,undefined,undefined,undefined,white,no,Mozilla,Netscape,"5.0 (Windows NT 10.0; Win64; x64) AppleWebKit/537.36 (KHTML, like Gecko) Chrome/98.0.4758.102 Safari/537.36",xpyriment,legacy,legacy,0,uniform,0,0,0,0,24,24,24,0,0,39,39,39,39,39,0,39,0,,,,,,0,,02-02-22,02-02-22,13:04:21,Wed Mar 02 2022 13:04:21 GMT+0100 (közép-európai téli idő),The main experiment item,yes,0,0,C:/Users/rrics/Documents/!!ResearchBMECOGSCI/gnet,0,0,0,prototype1.png,no,mono,no,18,no,black,no,no,768,1164,3.5.6,legacy,xpyriment,osweb,1.3.13,0,space,space,space,,28048,14929,28048,,2,legacy,728,1366,24,768,24,0,0,1366,1646222721483,1024,2,48000,-16,experiment,p1sarrsha1.png,0,even,Win32,422,127246,124230,422,422,416998,418510,411997,128766,411997,422,,,,,,visual_patterns,0,0,0,yes,1366
undefined,undefined,undefined,undefined,white,no,Mozilla,Netscape,"5.0 (Windows NT 10.0; Win64; x64) AppleWebKit/537.36 (KHTML, like Gecko) Chrome/98.0.4758.102 Safari/537.36",xpyriment,legacy,legacy,0,uniform,0,0,0,0,24,24,24,0,0,40,40,40,40,40,0,40,0,,,,,,0,,02-02-22,02-02-22,13:04:21,Wed Mar 02 2022 13:04:21 GMT+0100 (közép-európai téli idő),The main experiment item,yes,0,0,C:/Users/rrics/Documents/!!ResearchBMECOGSCI/gnet,0,0,0,prototype1.png,no,mono,no,18,no,black,no,no,768,1164,3.5.6,legacy,xpyriment,osweb,1.3.13,0,space,space,space,,28048,14929,28048,,2,legacy,728,1366,24,768,24,0,0,1366,1646222721483,1024,2,48000,-16,experiment,prototype5.png,0,even,Win32,422,127246,124230,422,422,423563,425079,418562,128766,418562,422,,,,,,visual_patterns,0,0,0,yes,1366
undefined,undefined,undefined,undefined,white,no,Mozilla,Netscape,"5.0 (Windows NT 10.0; Win64; x64) AppleWebKit/537.36 (KHTML, like Gecko) Chrome/98.0.4758.102 Safari/537.36",xpyriment,legacy,legacy,0,uniform,0,0,0,0,24,24,24,0,0,41,41,41,41,41,0,41,0,,,,,,0,,02-02-22,02-02-22,13:04:21,Wed Mar 02 2022 13:04:21 GMT+0100 (közép-európai téli idő),The main experiment item,yes,0,0,C:/Users/rrics/Documents/!!ResearchBMECOGSCI/gnet,0,0,0,prototype1.png,no,mono,no,18,no,black,no,no,768,1164,3.5.6,legacy,xpyriment,osweb,1.3.13,0,space,space,space,,28048,14929,28048,,2,legacy,728,1366,24,768,24,0,0,1366,1646222721483,1024,2,48000,-16,experiment,p3sarrshacol2.png,0,even,Win32,422,127246,124230,422,422,430099,431615,425100,128766,425100,422,,,,,,visual_patterns,0,0,0,yes,1366
undefined,undefined,undefined,undefined,white,no,Mozilla,Netscape,"5.0 (Windows NT 10.0; Win64; x64) AppleWebKit/537.36 (KHTML, like Gecko) Chrome/98.0.4758.102 Safari/537.36",xpyriment,legacy,legacy,0,uniform,0,0,0,0,24,24,24,0,0,42,42,42,42,42,0,42,0,,,,,,0,,02-02-22,02-02-22,13:04:21,Wed Mar 02 2022 13:04:21 GMT+0100 (közép-európai téli idő),The main experiment item,yes,0,0,C:/Users/rrics/Documents/!!ResearchBMECOGSCI/gnet,0,0,0,prototype1.png,no,mono,no,18,no,black,no,no,768,1164,3.5.6,legacy,xpyriment,osweb,1.3.13,0,space,space,space,,28048,14929,28048,,2,legacy,728,1366,24,768,24,0,0,1366,1646222721483,1024,2,48000,-16,experiment,p3sarrcol2.png,0,even,Win32,422,127246,124230,422,422,436628,438135,431633,128766,431633,422,,,,,,visual_patterns,0,0,0,yes,1366
undefined,undefined,undefined,undefined,white,no,Mozilla,Netscape,"5.0 (Windows NT 10.0; Win64; x64) AppleWebKit/537.36 (KHTML, like Gecko) Chrome/98.0.4758.102 Safari/537.36",xpyriment,legacy,legacy,0,uniform,0,0,0,0,24,24,24,0,0,43,43,43,43,43,0,43,0,,,,,,0,,02-02-22,02-02-22,13:04:21,Wed Mar 02 2022 13:04:21 GMT+0100 (közép-európai téli idő),The main experiment item,yes,0,0,C:/Users/rrics/Documents/!!ResearchBMECOGSCI/gnet,0,0,0,prototype1.png,no,mono,no,18,no,black,no,no,768,1164,3.5.6,legacy,xpyriment,osweb,1.3.13,0,space,space,space,,28048,14929,28048,,2,legacy,728,1366,24,768,24,0,0,1366,1646222721483,1024,2,48000,-16,experiment,p3sarr2.png,0,even,Win32,422,127246,124230,422,422,443155,444671,438160,128766,438160,422,,,,,,visual_patterns,0,0,0,yes,1366
undefined,undefined,undefined,undefined,white,no,Mozilla,Netscape,"5.0 (Windows NT 10.0; Win64; x64) AppleWebKit/537.36 (KHTML, like Gecko) Chrome/98.0.4758.102 Safari/537.36",xpyriment,legacy,legacy,0,uniform,0,0,0,0,24,24,24,0,0,44,44,44,44,44,0,44,0,,,,,,0,,02-02-22,02-02-22,13:04:21,Wed Mar 02 2022 13:04:21 GMT+0100 (közép-európai téli idő),The main experiment item,yes,0,0,C:/Users/rrics/Documents/!!ResearchBMECOGSCI/gnet,0,0,0,prototype1.png,no,mono,no,18,no,black,no,no,768,1164,3.5.6,legacy,xpyriment,osweb,1.3.13,0,space,space,space,,28048,14929,28048,,2,legacy,728,1366,24,768,24,0,0,1366,1646222721483,1024,2,48000,-16,experiment,p2sarrsha1.png,0,even,Win32,422,127246,124230,422,422,449685,451191,444691,128766,444690,422,,,,,,visual_patterns,0,0,0,yes,1366
undefined,undefined,undefined,undefined,white,no,Mozilla,Netscape,"5.0 (Windows NT 10.0; Win64; x64) AppleWebKit/537.36 (KHTML, like Gecko) Chrome/98.0.4758.102 Safari/537.36",xpyriment,legacy,legacy,0,uniform,0,0,0,0,24,24,24,0,0,45,45,45,45,45,0,45,0,,,,,,0,,02-02-22,02-02-22,13:04:21,Wed Mar 02 2022 13:04:21 GMT+0100 (közép-európai téli idő),The main experiment item,yes,0,0,C:/Users/rrics/Documents/!!ResearchBMECOGSCI/gnet,0,0,0,prototype1.png,no,mono,no,18,no,black,no,no,768,1164,3.5.6,legacy,xpyriment,osweb,1.3.13,0,space,space,space,,28048,14929,28048,,2,legacy,728,1366,24,768,24,0,0,1366,1646222721483,1024,2,48000,-16,experiment,p4sarrsha1.png,0,even,Win32,422,127246,124230,422,422,456243,457744,451246,128766,451246,422,,,,,,visual_patterns,0,0,0,yes,1366
undefined,undefined,undefined,undefined,white,no,Mozilla,Netscape,"5.0 (Windows NT 10.0; Win64; x64) AppleWebKit/537.36 (KHTML, like Gecko) Chrome/98.0.4758.102 Safari/537.36",xpyriment,legacy,legacy,0,uniform,0,0,0,0,24,24,24,0,0,46,46,46,46,46,0,46,0,,,,,,0,,02-02-22,02-02-22,13:04:21,Wed Mar 02 2022 13:04:21 GMT+0100 (közép-európai téli idő),The main experiment item,yes,0,0,C:/Users/rrics/Documents/!!ResearchBMECOGSCI/gnet,0,0,0,prototype1.png,no,mono,no,18,no,black,no,no,768,1164,3.5.6,legacy,xpyriment,osweb,1.3.13,0,space,space,space,,28048,14929,28048,,2,legacy,728,1366,24,768,24,0,0,1366,1646222721483,1024,2,48000,-16,experiment,p1sarrcol1.png,0,even,Win32,422,127246,124230,422,422,462763,464280,457762,128766,457762,422,,,,,,visual_patterns,0,0,0,yes,1366
undefined,undefined,undefined,undefined,white,no,Mozilla,Netscape,"5.0 (Windows NT 10.0; Win64; x64) AppleWebKit/537.36 (KHTML, like Gecko) Chrome/98.0.4758.102 Safari/537.36",xpyriment,legacy,legacy,0,uniform,0,0,0,0,24,24,24,0,0,47,47,47,47,47,0,47,0,,,,,,0,,02-02-22,02-02-22,13:04:21,Wed Mar 02 2022 13:04:21 GMT+0100 (közép-európai téli idő),The main experiment item,yes,0,0,C:/Users/rrics/Documents/!!ResearchBMECOGSCI/gnet,0,0,0,prototype1.png,no,mono,no,18,no,black,no,no,768,1164,3.5.6,legacy,xpyriment,osweb,1.3.13,0,space,space,space,,28048,14929,28048,,2,legacy,728,1366,24,768,24,0,0,1366,1646222721483,1024,2,48000,-16,experiment,p1sarrsha2.png,0,even,Win32,422,127246,124230,422,422,469300,470816,464305,128766,464305,422,,,,,,visual_patterns,0,0,0,yes,1366
undefined,undefined,undefined,undefined,white,no,Mozilla,Netscape,"5.0 (Windows NT 10.0; Win64; x64) AppleWebKit/537.36 (KHTML, like Gecko) Chrome/98.0.4758.102 Safari/537.36",xpyriment,legacy,legacy,0,uniform,0,0,0,0,24,24,24,0,0,48,48,48,48,48,0,48,0,,,,,,0,,02-02-22,02-02-22,13:04:21,Wed Mar 02 2022 13:04:21 GMT+0100 (közép-európai téli idő),The main experiment item,yes,0,0,C:/Users/rrics/Documents/!!ResearchBMECOGSCI/gnet,0,0,0,prototype1.png,no,mono,no,18,no,black,no,no,768,1164,3.5.6,legacy,xpyriment,osweb,1.3.13,0,space,space,space,,28048,14929,28048,,2,legacy,728,1366,24,768,24,0,0,1366,1646222721483,1024,2,48000,-16,experiment,p7sarr2.png,0,even,Win32,422,127246,124230,422,422,475831,477336,470835,128766,470835,422,,,,,,visual_patterns,0,0,0,yes,1366
undefined,undefined,undefined,undefined,white,no,Mozilla,Netscape,"5.0 (Windows NT 10.0; Win64; x64) AppleWebKit/537.36 (KHTML, like Gecko) Chrome/98.0.4758.102 Safari/537.36",xpyriment,legacy,legacy,0,uniform,0,0,0,0,24,24,24,0,0,49,49,49,49,49,0,49,0,,,,,,0,,02-02-22,02-02-22,13:04:21,Wed Mar 02 2022 13:04:21 GMT+0100 (közép-európai téli idő),The main experiment item,yes,0,0,C:/Users/rrics/Documents/!!ResearchBMECOGSCI/gnet,0,0,0,prototype1.png,no,mono,no,18,no,black,no,no,768,1164,3.5.6,legacy,xpyriment,osweb,1.3.13,0,space,space,space,,28048,14929,28048,,2,legacy,728,1366,24,768,24,0,0,1366,1646222721483,1024,2,48000,-16,experiment,p4sarr1.png,0,even,Win32,422,127246,124230,422,422,482355,483872,477357,128766,477357,422,,,,,,visual_patterns,0,0,0,yes,1366
undefined,undefined,undefined,undefined,white,no,Mozilla,Netscape,"5.0 (Windows NT 10.0; Win64; x64) AppleWebKit/537.36 (KHTML, like Gecko) Chrome/98.0.4758.102 Safari/537.36",xpyriment,legacy,legacy,0,uniform,0,0,0,0,24,24,24,0,0,50,50,50,50,50,0,50,0,,,,,,0,,02-02-22,02-02-22,13:04:21,Wed Mar 02 2022 13:04:21 GMT+0100 (közép-európai téli idő),The main experiment item,yes,0,0,C:/Users/rrics/Documents/!!ResearchBMECOGSCI/gnet,0,0,0,prototype1.png,no,mono,no,18,no,black,no,no,768,1164,3.5.6,legacy,xpyriment,osweb,1.3.13,0,space,space,space,,28048,14929,28048,,2,legacy,728,1366,24,768,24,0,0,1366,1646222721483,1024,2,48000,-16,experiment,p10sarr1.png,0,even,Win32,422,127246,124230,422,422,488917,490425,483920,128766,483920,422,,,,,,visual_patterns,0,0,0,yes,1366
undefined,undefined,undefined,undefined,white,no,Mozilla,Netscape,"5.0 (Windows NT 10.0; Win64; x64) AppleWebKit/537.36 (KHTML, like Gecko) Chrome/98.0.4758.102 Safari/537.36",xpyriment,legacy,legacy,0,uniform,0,0,0,0,24,24,24,0,0,51,51,51,51,51,0,51,0,,,,,,0,,02-02-22,02-02-22,13:04:21,Wed Mar 02 2022 13:04:21 GMT+0100 (közép-európai téli idő),The main experiment item,yes,0,0,C:/Users/rrics/Documents/!!ResearchBMECOGSCI/gnet,0,0,0,prototype1.png,no,mono,no,18,no,black,no,no,768,1164,3.5.6,legacy,xpyriment,osweb,1.3.13,0,space,space,space,,28048,14929,28048,,2,legacy,728,1366,24,768,24,0,0,1366,1646222721483,1024,2,48000,-16,experiment,prototype3.png,0,even,Win32,422,127246,124230,422,422,495449,496961,490446,128766,490446,422,,,,,,visual_patterns,0,0,0,yes,1366
undefined,undefined,undefined,undefined,white,no,Mozilla,Netscape,"5.0 (Windows NT 10.0; Win64; x64) AppleWebKit/537.36 (KHTML, like Gecko) Chrome/98.0.4758.102 Safari/537.36",xpyriment,legacy,legacy,0,uniform,0,0,0,0,24,24,24,0,0,52,52,52,52,52,0,52,0,,,,,,0,,02-02-22,02-02-22,13:04:21,Wed Mar 02 2022 13:04:21 GMT+0100 (közép-európai téli idő),The main experiment item,yes,0,0,C:/Users/rrics/Documents/!!ResearchBMECOGSCI/gnet,0,0,0,prototype1.png,no,mono,no,18,no,black,no,no,768,1164,3.5.6,legacy,xpyriment,osweb,1.3.13,0,space,space,space,,28048,14929,28048,,2,legacy,728,1366,24,768,24,0,0,1366,1646222721483,1024,2,48000,-16,experiment,p1sarr1.png,0,even,Win32,422,127246,124230,422,422,501980,503481,496985,128766,496985,422,,,,,,visual_patterns,0,0,0,yes,1366
undefined,undefined,undefined,undefined,white,no,Mozilla,Netscape,"5.0 (Windows NT 10.0; Win64; x64) AppleWebKit/537.36 (KHTML, like Gecko) Chrome/98.0.4758.102 Safari/537.36",xpyriment,legacy,legacy,0,uniform,0,0,0,0,24,24,24,0,0,53,53,53,53,53,0,53,0,,,,,,0,,02-02-22,02-02-22,13:04:21,Wed Mar 02 2022 13:04:21 GMT+0100 (közép-európai téli idő),The main experiment item,yes,0,0,C:/Users/rrics/Documents/!!ResearchBMECOGSCI/gnet,0,0,0,prototype1.png,no,mono,no,18,no,black,no,no,768,1164,3.5.6,legacy,xpyriment,osweb,1.3.13,0,space,space,space,,28048,14929,28048,,2,legacy,728,1366,24,768,24,0,0,1366,1646222721483,1024,2,48000,-16,experiment,p1sarrcol2.png,0,even,Win32,422,127246,124230,422,422,508501,510017,503504,128766,503504,422,,,,,,visual_patterns,0,0,0,yes,1366
undefined,undefined,undefined,undefined,white,no,Mozilla,Netscape,"5.0 (Windows NT 10.0; Win64; x64) AppleWebKit/537.36 (KHTML, like Gecko) Chrome/98.0.4758.102 Safari/537.36",xpyriment,legacy,legacy,0,uniform,0,0,0,0,24,24,24,0,0,54,54,54,54,54,0,54,0,,,,,,0,,02-02-22,02-02-22,13:04:21,Wed Mar 02 2022 13:04:21 GMT+0100 (közép-európai téli idő),The main experiment item,yes,0,0,C:/Users/rrics/Documents/!!ResearchBMECOGSCI/gnet,0,0,0,prototype1.png,no,mono,no,18,no,black,no,no,768,1164,3.5.6,legacy,xpyriment,osweb,1.3.13,0,space,space,space,,28048,14929,28048,,2,legacy,728,1366,24,768,24,0,0,1366,1646222721483,1024,2,48000,-16,experiment,p2sarrcol2.png,0,even,Win32,422,127246,124230,422,422,515037,516554,510039,128766,510038,422,,,,,,visual_patterns,0,0,0,yes,1366
undefined,undefined,undefined,undefined,white,no,Mozilla,Netscape,"5.0 (Windows NT 10.0; Win64; x64) AppleWebKit/537.36 (KHTML, like Gecko) Chrome/98.0.4758.102 Safari/537.36",xpyriment,legacy,legacy,0,uniform,0,0,0,0,24,24,24,0,0,55,55,55,55,55,0,55,0,,,,,,0,,02-02-22,02-02-22,13:04:21,Wed Mar 02 2022 13:04:21 GMT+0100 (közép-európai téli idő),The main experiment item,yes,0,0,C:/Users/rrics/Documents/!!ResearchBMECOGSCI/gnet,0,0,0,prototype1.png,no,mono,no,18,no,black,no,no,768,1164,3.5.6,legacy,xpyriment,osweb,1.3.13,0,space,space,space,,28048,14929,28048,,2,legacy,728,1366,24,768,24,0,0,1366,1646222721483,1024,2,48000,-16,experiment,prototype4.png,0,even,Win32,422,127246,124230,422,422,521573,523090,516567,128766,516566,422,,,,,,visual_patterns,0,0,0,yes,1366
undefined,undefined,undefined,undefined,white,no,Mozilla,Netscape,"5.0 (Windows NT 10.0; Win64; x64) AppleWebKit/537.36 (KHTML, like Gecko) Chrome/98.0.4758.102 Safari/537.36",xpyriment,legacy,legacy,0,uniform,0,0,0,0,24,24,24,0,0,56,56,56,56,56,0,56,0,,,,,,0,,02-02-22,02-02-22,13:04:21,Wed Mar 02 2022 13:04:21 GMT+0100 (közép-európai téli idő),The main experiment item,yes,0,0,C:/Users/rrics/Documents/!!ResearchBMECOGSCI/gnet,0,0,0,prototype1.png,no,mono,no,18,no,black,no,no,768,1164,3.5.6,legacy,xpyriment,osweb,1.3.13,0,space,space,space,,28048,14929,28048,,2,legacy,728,1366,24,768,24,0,0,1366,1646222721483,1024,2,48000,-16,experiment,p2sarrshacol1.png,0,even,Win32,422,127246,124230,422,422,528108,529610,523111,128766,523110,422,,,,,,visual_patterns,0,0,0,yes,1366
undefined,undefined,undefined,undefined,white,no,Mozilla,Netscape,"5.0 (Windows NT 10.0; Win64; x64) AppleWebKit/537.36 (KHTML, like Gecko) Chrome/98.0.4758.102 Safari/537.36",xpyriment,legacy,legacy,0,uniform,0,0,0,0,24,24,24,0,0,57,57,57,57,57,0,57,0,,,,,,0,,02-02-22,02-02-22,13:04:21,Wed Mar 02 2022 13:04:21 GMT+0100 (közép-európai téli idő),The main experiment item,yes,0,0,C:/Users/rrics/Documents/!!ResearchBMECOGSCI/gnet,0,0,0,prototype1.png,no,mono,no,18,no,black,no,no,768,1164,3.5.6,legacy,xpyriment,osweb,1.3.13,0,space,space,space,,28048,14929,28048,,2,legacy,728,1366,24,768,24,0,0,1366,1646222721483,1024,2,48000,-16,experiment,prototype5.png,0,even,Win32,422,127246,124230,422,422,534629,536146,529624,128766,529624,422,,,,,,visual_patterns,0,0,0,yes,1366
undefined,undefined,undefined,undefined,white,no,Mozilla,Netscape,"5.0 (Windows NT 10.0; Win64; x64) AppleWebKit/537.36 (KHTML, like Gecko) Chrome/98.0.4758.102 Safari/537.36",xpyriment,legacy,legacy,0,uniform,0,0,0,0,24,24,24,0,0,58,58,58,58,58,0,58,0,,,,,,0,,02-02-22,02-02-22,13:04:21,Wed Mar 02 2022 13:04:21 GMT+0100 (közép-európai téli idő),The main experiment item,yes,0,0,C:/Users/rrics/Documents/!!ResearchBMECOGSCI/gnet,0,0,0,prototype1.png,no,mono,no,18,no,black,no,no,768,1164,3.5.6,legacy,xpyriment,osweb,1.3.13,0,space,space,space,,28048,14929,28048,,2,legacy,728,1366,24,768,24,0,0,1366,1646222721483,1024,2,48000,-16,experiment,prototype2.png,0,even,Win32,422,127246,124230,422,422,541159,542665,536159,128766,536159,422,,,,,,visual_patterns,0,0,0,yes,1366
undefined,undefined,undefined,undefined,white,no,Mozilla,Netscape,"5.0 (Windows NT 10.0; Win64; x64) AppleWebKit/537.36 (KHTML, like Gecko) Chrome/98.0.4758.102 Safari/537.36",xpyriment,legacy,legacy,0,uniform,0,0,0,0,24,24,24,0,0,59,59,59,59,59,0,59,0,,,,,,0,,02-02-22,02-02-22,13:04:21,Wed Mar 02 2022 13:04:21 GMT+0100 (közép-európai téli idő),The main experiment item,yes,0,0,C:/Users/rrics/Documents/!!ResearchBMECOGSCI/gnet,0,0,0,prototype1.png,no,mono,no,18,no,black,no,no,768,1164,3.5.6,legacy,xpyriment,osweb,1.3.13,0,space,space,space,,28048,14929,28048,,2,legacy,728,1366,24,768,24,0,0,1366,1646222721483,1024,2,48000,-16,experiment,prototype5.png,0,even,Win32,422,127246,124230,422,422,547678,549185,542679,128766,542679,422,,,,,,visual_patterns,0,0,0,yes,1366
undefined,undefined,undefined,undefined,white,no,Mozilla,Netscape,"5.0 (Windows NT 10.0; Win64; x64) AppleWebKit/537.36 (KHTML, like Gecko) Chrome/98.0.4758.102 Safari/537.36",xpyriment,legacy,legacy,0,uniform,0,0,0,0,24,24,24,0,0,60,60,60,60,60,0,60,0,,,,,,0,,02-02-22,02-02-22,13:04:21,Wed Mar 02 2022 13:04:21 GMT+0100 (közép-európai téli idő),The main experiment item,yes,0,0,C:/Users/rrics/Documents/!!ResearchBMECOGSCI/gnet,0,0,0,prototype1.png,no,mono,no,18,no,black,no,no,768,1164,3.5.6,legacy,xpyriment,osweb,1.3.13,0,space,space,space,,28048,14929,28048,,2,legacy,728,1366,24,768,24,0,0,1366,1646222721483,1024,2,48000,-16,experiment,p1sarrshacol2.png,0,even,Win32,422,127246,124230,422,422,554205,555721,549203,128766,549203,422,,,,,,visual_patterns,0,0,0,yes,1366
undefined,undefined,undefined,undefined,white,no,Mozilla,Netscape,"5.0 (Windows NT 10.0; Win64; x64) AppleWebKit/537.36 (KHTML, like Gecko) Chrome/98.0.4758.102 Safari/537.36",xpyriment,legacy,legacy,0,uniform,0,0,0,0,24,24,24,0,0,61,61,61,61,61,0,61,0,,,,,,0,,02-02-22,02-02-22,13:04:21,Wed Mar 02 2022 13:04:21 GMT+0100 (közép-európai téli idő),The main experiment item,yes,0,0,C:/Users/rrics/Documents/!!ResearchBMECOGSCI/gnet,0,0,0,prototype1.png,no,mono,no,18,no,black,no,no,768,1164,3.5.6,legacy,xpyriment,osweb,1.3.13,0,space,space,space,,28048,14929,28048,,2,legacy,728,1366,24,768,24,0,0,1366,1646222721483,1024,2,48000,-16,experiment,p2sarrcol1.png,0,even,Win32,422,127246,124230,422,422,560740,562241,555742,128766,555742,422,,,,,,visual_patterns,0,0,0,yes,1366
undefined,undefined,undefined,undefined,white,no,Mozilla,Netscape,"5.0 (Windows NT 10.0; Win64; x64) AppleWebKit/537.36 (KHTML, like Gecko) Chrome/98.0.4758.102 Safari/537.36",xpyriment,legacy,legacy,0,uniform,0,0,0,0,24,24,24,0,0,62,62,62,62,62,0,62,0,,,,,,0,,02-02-22,02-02-22,13:04:21,Wed Mar 02 2022 13:04:21 GMT+0100 (közép-európai téli idő),The main experiment item,yes,0,0,C:/Users/rrics/Documents/!!ResearchBMECOGSCI/gnet,0,0,0,prototype1.png,no,mono,no,18,no,black,no,no,768,1164,3.5.6,legacy,xpyriment,osweb,1.3.13,0,space,space,space,,28048,14929,28048,,2,legacy,728,1366,24,768,24,0,0,1366,1646222721483,1024,2,48000,-16,experiment,p5sarr2.png,0,even,Win32,422,127246,124230,422,422,567256,568760,562261,128766,562261,422,,,,,,visual_patterns,0,0,0,yes,1366
undefined,undefined,undefined,undefined,white,no,Mozilla,Netscape,"5.0 (Windows NT 10.0; Win64; x64) AppleWebKit/537.36 (KHTML, like Gecko) Chrome/98.0.4758.102 Safari/537.36",xpyriment,legacy,legacy,0,uniform,0,0,0,0,24,24,24,0,0,63,63,63,63,63,0,63,0,,,,,,0,,02-02-22,02-02-22,13:04:21,Wed Mar 02 2022 13:04:21 GMT+0100 (közép-európai téli idő),The main experiment item,yes,0,0,C:/Users/rrics/Documents/!!ResearchBMECOGSCI/gnet,0,0,0,prototype1.png,no,mono,no,18,no,black,no,no,768,1164,3.5.6,legacy,xpyriment,osweb,1.3.13,0,space,space,space,,28048,14929,28048,,2,legacy,728,1366,24,768,24,0,0,1366,1646222721483,1024,2,48000,-16,experiment,p10sarr2.png,0,even,Win32,422,127246,124230,422,422,573777,575280,568780,128766,568780,422,,,,,,visual_patterns,0,0,0,yes,1366
undefined,undefined,undefined,undefined,white,no,Mozilla,Netscape,"5.0 (Windows NT 10.0; Win64; x64) AppleWebKit/537.36 (KHTML, like Gecko) Chrome/98.0.4758.102 Safari/537.36",xpyriment,legacy,legacy,0,uniform,0,0,0,0,24,24,24,0,0,64,64,64,64,64,0,64,0,,,,,,0,,02-02-22,02-02-22,13:04:21,Wed Mar 02 2022 13:04:21 GMT+0100 (közép-európai téli idő),The main experiment item,yes,0,0,C:/Users/rrics/Documents/!!ResearchBMECOGSCI/gnet,0,0,0,prototype1.png,no,mono,no,18,no,black,no,no,768,1164,3.5.6,legacy,xpyriment,osweb,1.3.13,0,space,space,space,,28048,14929,28048,,2,legacy,728,1366,24,768,24,0,0,1366,1646222721483,1024,2,48000,-16,experiment,prototype1.png,0,even,Win32,422,127246,124230,422,422,580300,581816,575295,128766,575295,422,,,,,,visual_patterns,0,0,0,yes,1366
undefined,undefined,undefined,undefined,white,no,Mozilla,Netscape,"5.0 (Windows NT 10.0; Win64; x64) AppleWebKit/537.36 (KHTML, like Gecko) Chrome/98.0.4758.102 Safari/537.36",xpyriment,legacy,legacy,0,uniform,0,0,0,0,24,24,24,0,0,65,65,65,65,65,0,65,0,,,,,,0,,02-02-22,02-02-22,13:04:21,Wed Mar 02 2022 13:04:21 GMT+0100 (közép-európai téli idő),The main experiment item,yes,0,0,C:/Users/rrics/Documents/!!ResearchBMECOGSCI/gnet,0,0,0,prototype1.png,no,mono,no,18,no,black,no,no,768,1164,3.5.6,legacy,xpyriment,osweb,1.3.13,0,space,space,space,,28048,14929,28048,,2,legacy,728,1366,24,768,24,0,0,1366,1646222721483,1024,2,48000,-16,experiment,prototype4.png,0,even,Win32,422,127246,124230,422,422,586832,588336,581834,128766,581834,422,,,,,,visual_patterns,0,0,0,yes,1366
undefined,undefined,undefined,undefined,white,no,Mozilla,Netscape,"5.0 (Windows NT 10.0; Win64; x64) AppleWebKit/537.36 (KHTML, like Gecko) Chrome/98.0.4758.102 Safari/537.36",xpyriment,legacy,legacy,0,uniform,0,0,0,0,24,24,24,0,0,66,66,66,66,66,0,66,0,,,,,,0,,02-02-22,02-02-22,13:04:21,Wed Mar 02 2022 13:04:21 GMT+0100 (közép-európai téli idő),The main experiment item,yes,0,0,C:/Users/rrics/Documents/!!ResearchBMECOGSCI/gnet,0,0,0,prototype1.png,no,mono,no,18,no,black,no,no,768,1164,3.5.6,legacy,xpyriment,osweb,1.3.13,0,space,space,space,,28048,14929,28048,,2,legacy,728,1366,24,768,24,0,0,1366,1646222721483,1024,2,48000,-16,experiment,p2sarrshacol2.png,0,even,Win32,422,127246,124230,422,422,593349,594855,588355,128766,588355,422,,,,,,visual_patterns,0,0,0,yes,1366
undefined,undefined,undefined,undefined,white,no,Mozilla,Netscape,"5.0 (Windows NT 10.0; Win64; x64) AppleWebKit/537.36 (KHTML, like Gecko) Chrome/98.0.4758.102 Safari/537.36",xpyriment,legacy,legacy,0,uniform,0,0,0,0,24,24,24,0,0,67,67,67,67,67,0,67,0,,,,,,0,,02-02-22,02-02-22,13:04:21,Wed Mar 02 2022 13:04:21 GMT+0100 (közép-európai téli idő),The main experiment item,yes,0,0,C:/Users/rrics/Documents/!!ResearchBMECOGSCI/gnet,0,0,0,prototype1.png,no,mono,no,18,no,black,no,no,768,1164,3.5.6,legacy,xpyriment,osweb,1.3.13,0,space,space,space,,28048,14929,28048,,2,legacy,728,1366,24,768,24,0,0,1366,1646222721483,1024,2,48000,-16,experiment,p1sarr2.png,0,even,Win32,422,127246,124230,422,422,599875,601392,594875,128766,594875,422,,,,,,visual_patterns,0,0,0,yes,1366
undefined,undefined,undefined,undefined,white,no,Mozilla,Netscape,"5.0 (Windows NT 10.0; Win64; x64) AppleWebKit/537.36 (KHTML, like Gecko) Chrome/98.0.4758.102 Safari/537.36",xpyriment,legacy,legacy,0,uniform,0,0,0,0,24,24,24,0,0,68,68,68,68,68,0,68,0,,,,,,0,,02-02-22,02-02-22,13:04:21,Wed Mar 02 2022 13:04:21 GMT+0100 (közép-európai téli idő),The main experiment item,yes,0,0,C:/Users/rrics/Documents/!!ResearchBMECOGSCI/gnet,0,0,0,prototype1.png,no,mono,no,18,no,black,no,no,768,1164,3.5.6,legacy,xpyriment,osweb,1.3.13,0,space,space,space,,28048,14929,28048,,2,legacy,728,1366,24,768,24,0,0,1366,1646222721483,1024,2,48000,-16,experiment,p6sarr2.png,0,even,Win32,422,127246,124230,422,422,606409,607912,601412,128766,601412,422,,,,,,visual_patterns,0,0,0,yes,1366
undefined,undefined,undefined,undefined,white,no,Mozilla,Netscape,"5.0 (Windows NT 10.0; Win64; x64) AppleWebKit/537.36 (KHTML, like Gecko) Chrome/98.0.4758.102 Safari/537.36",xpyriment,legacy,legacy,0,uniform,0,0,0,0,24,24,24,0,0,69,69,69,69,69,0,69,0,,,,,,0,,02-02-22,02-02-22,13:04:21,Wed Mar 02 2022 13:04:21 GMT+0100 (közép-európai téli idő),The main experiment item,yes,0,0,C:/Users/rrics/Documents/!!ResearchBMECOGSCI/gnet,0,0,0,prototype1.png,no,mono,no,18,no,black,no,no,768,1164,3.5.6,legacy,xpyriment,osweb,1.3.13,0,space,space,space,,28048,14929,28048,,2,legacy,728,1366,24,768,24,0,0,1366,1646222721483,1024,2,48000,-16,experiment,prototype2.png,0,even,Win32,422,127246,124230,422,422,612925,614431,607928,128766,607927,422,,,,,,visual_patterns,0,0,0,yes,1366
undefined,undefined,undefined,undefined,white,no,Mozilla,Netscape,"5.0 (Windows NT 10.0; Win64; x64) AppleWebKit/537.36 (KHTML, like Gecko) Chrome/98.0.4758.102 Safari/537.36",xpyriment,legacy,legacy,0,uniform,0,0,0,0,24,24,24,0,0,70,70,70,70,70,0,70,0,,,,,,0,,02-02-22,02-02-22,13:04:21,Wed Mar 02 2022 13:04:21 GMT+0100 (közép-európai téli idő),The main experiment item,yes,0,0,C:/Users/rrics/Documents/!!ResearchBMECOGSCI/gnet,0,0,0,prototype1.png,no,mono,no,18,no,black,no,no,768,1164,3.5.6,legacy,xpyriment,osweb,1.3.13,0,space,space,space,,28048,14929,28048,,2,legacy,728,1366,24,768,24,0,0,1366,1646222721483,1024,2,48000,-16,experiment,p1sarrshacol1.png,0,even,Win32,422,127246,124230,422,422,619474,620984,614476,128766,614476,422,,,,,,visual_patterns,0,0,0,yes,1366
undefined,undefined,undefined,undefined,white,no,Mozilla,Netscape,"5.0 (Windows NT 10.0; Win64; x64) AppleWebKit/537.36 (KHTML, like Gecko) Chrome/98.0.4758.102 Safari/537.36",xpyriment,legacy,legacy,0,uniform,0,0,0,0,24,24,24,0,0,71,71,71,71,71,0,71,0,,,,,,0,,02-02-22,02-02-22,13:04:21,Wed Mar 02 2022 13:04:21 GMT+0100 (közép-európai téli idő),The main experiment item,yes,0,0,C:/Users/rrics/Documents/!!ResearchBMECOGSCI/gnet,0,0,0,prototype1.png,no,mono,no,18,no,black,no,no,768,1164,3.5.6,legacy,xpyriment,osweb,1.3.13,0,space,space,space,,28048,14929,28048,,2,legacy,728,1366,24,768,24,0,0,1366,1646222721483,1024,2,48000,-16,experiment,prototype1.png,0,even,Win32,422,127246,124230,422,422,625998,627503,620999,128766,620999,422,,,,,,visual_patterns,0,0,0,yes,1366
undefined,undefined,undefined,undefined,white,no,Mozilla,Netscape,"5.0 (Windows NT 10.0; Win64; x64) AppleWebKit/537.36 (KHTML, like Gecko) Chrome/98.0.4758.102 Safari/537.36",xpyriment,legacy,legacy,0,uniform,0,0,0,0,24,24,24,0,0,72,72,72,72,72,0,72,0,,,,,,0,,02-02-22,02-02-22,13:04:21,Wed Mar 02 2022 13:04:21 GMT+0100 (közép-európai téli idő),The main experiment item,yes,0,0,C:/Users/rrics/Documents/!!ResearchBMECOGSCI/gnet,0,0,0,prototype1.png,no,mono,no,18,no,black,no,no,768,1164,3.5.6,legacy,xpyriment,osweb,1.3.13,0,space,space,space,,28048,14929,28048,,2,legacy,728,1366,24,768,24,0,0,1366,1646222721483,1024,2,48000,-16,experiment,prototype5.png,0,even,Win32,422,127246,124230,422,422,632517,634023,627518,128766,627518,422,,,,,,visual_patterns,0,0,0,yes,1366
undefined,undefined,undefined,undefined,white,no,Mozilla,Netscape,"5.0 (Windows NT 10.0; Win64; x64) AppleWebKit/537.36 (KHTML, like Gecko) Chrome/98.0.4758.102 Safari/537.36",xpyriment,legacy,legacy,0,uniform,0,0,0,0,24,24,24,0,0,73,73,73,73,73,0,73,0,,,,,,0,,02-02-22,02-02-22,13:04:21,Wed Mar 02 2022 13:04:21 GMT+0100 (közép-európai téli idő),The main experiment item,yes,0,0,C:/Users/rrics/Documents/!!ResearchBMECOGSCI/gnet,0,0,0,prototype1.png,no,mono,no,18,no,black,no,no,768,1164,3.5.6,legacy,xpyriment,osweb,1.3.13,0,space,space,space,,28048,14929,28048,,2,legacy,728,1366,24,768,24,0,0,1366,1646222721483,1024,2,48000,-16,experiment,prototype3.png,0,even,Win32,422,127246,124230,422,422,639041,640543,634037,128766,634037,422,,,,,,visual_patterns,0,0,0,yes,1366
undefined,undefined,undefined,undefined,white,no,Mozilla,Netscape,"5.0 (Windows NT 10.0; Win64; x64) AppleWebKit/537.36 (KHTML, like Gecko) Chrome/98.0.4758.102 Safari/537.36",xpyriment,legacy,legacy,0,uniform,0,0,0,0,24,24,24,0,0,74,74,74,74,74,0,74,0,,,,,,0,,02-02-22,02-02-22,13:04:21,Wed Mar 02 2022 13:04:21 GMT+0100 (közép-európai téli idő),The main experiment item,yes,0,0,C:/Users/rrics/Documents/!!ResearchBMECOGSCI/gnet,0,0,0,prototype1.png,no,mono,no,18,no,black,no,no,768,1164,3.5.6,legacy,xpyriment,osweb,1.3.13,0,space,space,space,,28048,14929,28048,,2,legacy,728,1366,24,768,24,0,0,1366,1646222721483,1024,2,48000,-16,experiment,prototype2.png,0,even,Win32,422,127246,124230,422,422,645560,647062,640558,128766,640558,422,,,,,,visual_patterns,0,0,0,yes,1366
undefined,undefined,undefined,undefined,white,no,Mozilla,Netscape,"5.0 (Windows NT 10.0; Win64; x64) AppleWebKit/537.36 (KHTML, like Gecko) Chrome/98.0.4758.102 Safari/537.36",xpyriment,legacy,legacy,0,uniform,0,0,0,0,24,24,24,0,0,74,74,74,74,74,0,74,0,0,0,0,0,0,0,0,02-02-22,02-02-22,13:04:21,Wed Mar 02 2022 13:04:21 GMT+0100 (közép-európai téli idő),The main experiment item,yes,0,0,C:/Users/rrics/Documents/!!ResearchBMECOGSCI/gnet,0,0,0,prototype1.png,no,mono,no,18,no,black,no,no,768,1164,3.5.6,legacy,xpyriment,osweb,1.3.13,0,space,space,space,space,26512,14929,28048,26512,2,legacy,728,1366,24,768,24,0,0,1366,1646222721483,1024,2,48000,-16,experiment,p5sarrsha3.png,0,even,Win32,422,127246,124230,422,422,645560,647062,640558,128766,640558,422,676640,678143,673643,647071,673643,visual_patterns,0,0,0,yes,1366
undefined,undefined,undefined,undefined,white,no,Mozilla,Netscape,"5.0 (Windows NT 10.0; Win64; x64) AppleWebKit/537.36 (KHTML, like Gecko) Chrome/98.0.4758.102 Safari/537.36",xpyriment,legacy,legacy,0,uniform,0,0,0,0,24,24,24,0,0,74,74,74,74,74,0,74,0,1,1,1,1,1,0,1,02-02-22,02-02-22,13:04:21,Wed Mar 02 2022 13:04:21 GMT+0100 (közép-európai téli idő),The main experiment item,yes,0,0,C:/Users/rrics/Documents/!!ResearchBMECOGSCI/gnet,0,0,0,prototype1.png,no,mono,no,18,no,black,no,no,768,1164,3.5.6,legacy,xpyriment,osweb,1.3.13,0,space,space,space,space,26512,14929,28048,26512,2,legacy,728,1366,24,768,24,0,0,1366,1646222721483,1024,2,48000,-16,experiment,p2sarrshacol1.png,0,even,Win32,422,127246,124230,422,422,645560,647062,640558,128766,640558,422,681171,682678,678165,647071,678165,visual_patterns,0,0,0,yes,1366
undefined,undefined,undefined,undefined,white,no,Mozilla,Netscape,"5.0 (Windows NT 10.0; Win64; x64) AppleWebKit/537.36 (KHTML, like Gecko) Chrome/98.0.4758.102 Safari/537.36",xpyriment,legacy,legacy,0,uniform,0,0,0,0,24,24,24,0,0,74,74,74,74,74,0,74,0,2,2,2,2,2,0,2,02-02-22,02-02-22,13:04:21,Wed Mar 02 2022 13:04:21 GMT+0100 (közép-európai téli idő),The main experiment item,yes,0,0,C:/Users/rrics/Documents/!!ResearchBMECOGSCI/gnet,0,0,0,prototype1.png,no,mono,no,18,no,black,no,no,768,1164,3.5.6,legacy,xpyriment,osweb,1.3.13,0,space,space,space,space,26512,14929,28048,26512,2,legacy,728,1366,24,768,24,0,0,1366,1646222721483,1024,2,48000,-16,experiment,p4sarr4.png,0,even,Win32,422,127246,124230,422,422,645560,647062,640558,128766,640558,422,685697,687214,682700,647071,682700,visual_patterns,0,0,0,yes,1366
undefined,undefined,undefined,undefined,white,no,Mozilla,Netscape,"5.0 (Windows NT 10.0; Win64; x64) AppleWebKit/537.36 (KHTML, like Gecko) Chrome/98.0.4758.102 Safari/537.36",xpyriment,legacy,legacy,0,uniform,0,0,0,0,24,24,24,0,0,74,74,74,74,74,0,74,0,3,3,3,3,3,0,3,02-02-22,02-02-22,13:04:21,Wed Mar 02 2022 13:04:21 GMT+0100 (közép-európai téli idő),The main experiment item,yes,0,0,C:/Users/rrics/Documents/!!ResearchBMECOGSCI/gnet,0,0,0,prototype1.png,no,mono,no,18,no,black,no,no,768,1164,3.5.6,legacy,xpyriment,osweb,1.3.13,0,space,space,space,space,26512,14929,28048,26512,2,legacy,728,1366,24,768,24,0,0,1366,1646222721483,1024,2,48000,-16,experiment,p5sarrsha2.png,0,even,Win32,422,127246,124230,422,422,645560,647062,640558,128766,640558,422,690237,691749,687236,647071,687236,visual_patterns,0,0,0,yes,1366
undefined,undefined,undefined,undefined,white,no,Mozilla,Netscape,"5.0 (Windows NT 10.0; Win64; x64) AppleWebKit/537.36 (KHTML, like Gecko) Chrome/98.0.4758.102 Safari/537.36",xpyriment,legacy,legacy,0,uniform,0,0,0,0,24,24,24,0,0,74,74,74,74,74,0,74,0,4,4,4,4,4,0,4,02-02-22,02-02-22,13:04:21,Wed Mar 02 2022 13:04:21 GMT+0100 (közép-európai téli idő),The main experiment item,yes,0,0,C:/Users/rrics/Documents/!!ResearchBMECOGSCI/gnet,0,0,0,prototype1.png,no,mono,no,18,no,black,no,no,768,1164,3.5.6,legacy,xpyriment,osweb,1.3.13,0,space,space,space,space,26512,14929,28048,26512,2,legacy,728,1366,24,768,24,0,0,1366,1646222721483,1024,2,48000,-16,experiment,p7sarr2.png,0,even,Win32,422,127246,124230,422,422,645560,647062,640558,128766,640558,422,694773,696285,691776,647071,691776,visual_patterns,0,0,0,yes,1366
undefined,undefined,undefined,undefined,white,no,Mozilla,Netscape,"5.0 (Windows NT 10.0; Win64; x64) AppleWebKit/537.36 (KHTML, like Gecko) Chrome/98.0.4758.102 Safari/537.36",xpyriment,legacy,legacy,0,uniform,0,0,0,0,24,24,24,0,0,74,74,74,74,74,0,74,0,5,5,5,5,5,0,5,02-02-22,02-02-22,13:04:21,Wed Mar 02 2022 13:04:21 GMT+0100 (közép-európai téli idő),The main experiment item,yes,0,0,C:/Users/rrics/Documents/!!ResearchBMECOGSCI/gnet,0,0,0,prototype1.png,no,mono,no,18,no,black,no,no,768,1164,3.5.6,legacy,xpyriment,osweb,1.3.13,0,space,space,space,space,26512,14929,28048,26512,2,legacy,728,1366,24,768,24,0,0,1366,1646222721483,1024,2,48000,-16,experiment,p1sarrsha4.png,0,even,Win32,422,127246,124230,422,422,645560,647062,640558,128766,640558,422,699310,700820,696308,647071,696308,visual_patterns,0,0,0,yes,1366
undefined,undefined,undefined,undefined,white,no,Mozilla,Netscape,"5.0 (Windows NT 10.0; Win64; x64) AppleWebKit/537.36 (KHTML, like Gecko) Chrome/98.0.4758.102 Safari/537.36",xpyriment,legacy,legacy,0,uniform,0,0,0,0,24,24,24,0,0,74,74,74,74,74,0,74,0,6,6,6,6,6,0,6,02-02-22,02-02-22,13:04:21,Wed Mar 02 2022 13:04:21 GMT+0100 (közép-európai téli idő),The main experiment item,yes,0,0,C:/Users/rrics/Documents/!!ResearchBMECOGSCI/gnet,0,0,0,prototype1.png,no,mono,no,18,no,black,no,no,768,1164,3.5.6,legacy,xpyriment,osweb,1.3.13,0,space,space,space,space,26512,14929,28048,26512,2,legacy,728,1366,24,768,24,0,0,1366,1646222721483,1024,2,48000,-16,experiment,p3sarrcol2.png,0,even,Win32,422,127246,124230,422,422,645560,647062,640558,128766,640558,422,703839,705355,700839,647071,700839,visual_patterns,0,0,0,yes,1366
undefined,undefined,undefined,undefined,white,no,Mozilla,Netscape,"5.0 (Windows NT 10.0; Win64; x64) AppleWebKit/537.36 (KHTML, like Gecko) Chrome/98.0.4758.102 Safari/537.36",xpyriment,legacy,legacy,0,uniform,0,0,0,0,24,24,24,0,0,74,74,74,74,74,0,74,0,7,7,7,7,7,0,7,02-02-22,02-02-22,13:04:21,Wed Mar 02 2022 13:04:21 GMT+0100 (közép-európai téli idő),The main experiment item,yes,0,0,C:/Users/rrics/Documents/!!ResearchBMECOGSCI/gnet,0,0,0,prototype1.png,no,mono,no,18,no,black,no,no,768,1164,3.5.6,legacy,xpyriment,osweb,1.3.13,0,space,space,space,space,26512,14929,28048,26512,2,legacy,728,1366,24,768,24,0,0,1366,1646222721483,1024,2,48000,-16,experiment,p3sarrcol3.png,0,even,Win32,422,127246,124230,422,422,645560,647062,640558,128766,640558,422,708379,709891,705380,647071,705380,visual_patterns,0,0,0,yes,1366
undefined,undefined,undefined,undefined,white,no,Mozilla,Netscape,"5.0 (Windows NT 10.0; Win64; x64) AppleWebKit/537.36 (KHTML, like Gecko) Chrome/98.0.4758.102 Safari/537.36",xpyriment,legacy,legacy,0,uniform,0,0,0,0,24,24,24,0,0,74,74,74,74,74,0,74,0,8,8,8,8,8,0,8,02-02-22,02-02-22,13:04:21,Wed Mar 02 2022 13:04:21 GMT+0100 (közép-európai téli idő),The main experiment item,yes,0,0,C:/Users/rrics/Documents/!!ResearchBMECOGSCI/gnet,0,0,0,prototype1.png,no,mono,no,18,no,black,no,no,768,1164,3.5.6,legacy,xpyriment,osweb,1.3.13,0,space,space,space,space,26512,14929,28048,26512,2,legacy,728,1366,24,768,24,0,0,1366,1646222721483,1024,2,48000,-16,experiment,p1sarrsha1.png,0,even,Win32,422,127246,124230,422,422,645560,647062,640558,128766,640558,422,712915,714426,709910,647071,709910,visual_patterns,0,0,0,yes,1366
undefined,undefined,undefined,undefined,white,no,Mozilla,Netscape,"5.0 (Windows NT 10.0; Win64; x64) AppleWebKit/537.36 (KHTML, like Gecko) Chrome/98.0.4758.102 Safari/537.36",xpyriment,legacy,legacy,0,uniform,0,0,0,0,24,24,24,0,0,74,74,74,74,74,0,74,0,9,9,9,9,9,0,9,02-02-22,02-02-22,13:04:21,Wed Mar 02 2022 13:04:21 GMT+0100 (közép-európai téli idő),The main experiment item,yes,0,0,C:/Users/rrics/Documents/!!ResearchBMECOGSCI/gnet,0,0,0,prototype1.png,no,mono,no,18,no,black,no,no,768,1164,3.5.6,legacy,xpyriment,osweb,1.3.13,0,space,space,space,space,26512,14929,28048,26512,2,legacy,728,1366,24,768,24,0,0,1366,1646222721483,1024,2,48000,-16,experiment,p4sarr1.png,0,even,Win32,422,127246,124230,422,422,645560,647062,640558,128766,640558,422,717445,718962,714444,647071,714444,visual_patterns,0,0,0,yes,1366
undefined,undefined,undefined,undefined,white,no,Mozilla,Netscape,"5.0 (Windows NT 10.0; Win64; x64) AppleWebKit/537.36 (KHTML, like Gecko) Chrome/98.0.4758.102 Safari/537.36",xpyriment,legacy,legacy,0,uniform,0,0,0,0,24,24,24,0,0,74,74,74,74,74,0,74,0,10,10,10,10,10,0,10,02-02-22,02-02-22,13:04:21,Wed Mar 02 2022 13:04:21 GMT+0100 (közép-európai téli idő),The main experiment item,yes,0,0,C:/Users/rrics/Documents/!!ResearchBMECOGSCI/gnet,0,0,0,prototype1.png,no,mono,no,18,no,black,no,no,768,1164,3.5.6,legacy,xpyriment,osweb,1.3.13,0,space,space,space,space,26512,14929,28048,26512,2,legacy,728,1366,24,768,24,0,0,1366,1646222721483,1024,2,48000,-16,experiment,p9sarr2.png,0,even,Win32,422,127246,124230,422,422,645560,647062,640558,128766,640558,422,722021,723530,719021,647071,719021,visual_patterns,0,0,0,yes,1366
undefined,undefined,undefined,undefined,white,no,Mozilla,Netscape,"5.0 (Windows NT 10.0; Win64; x64) AppleWebKit/537.36 (KHTML, like Gecko) Chrome/98.0.4758.102 Safari/537.36",xpyriment,legacy,legacy,0,uniform,0,0,0,0,24,24,24,0,0,74,74,74,74,74,0,74,0,11,11,11,11,11,0,11,02-02-22,02-02-22,13:04:21,Wed Mar 02 2022 13:04:21 GMT+0100 (közép-európai téli idő),The main experiment item,yes,0,0,C:/Users/rrics/Documents/!!ResearchBMECOGSCI/gnet,0,0,0,prototype1.png,no,mono,no,18,no,black,no,no,768,1164,3.5.6,legacy,xpyriment,osweb,1.3.13,0,space,space,space,space,26512,14929,28048,26512,2,legacy,728,1366,24,768,24,0,0,1366,1646222721483,1024,2,48000,-16,experiment,p1sarr2.png,0,even,Win32,422,127246,124230,422,422,645560,647062,640558,128766,640558,422,726555,728066,723550,647071,723550,visual_patterns,0,0,0,yes,1366
undefined,undefined,undefined,undefined,white,no,Mozilla,Netscape,"5.0 (Windows NT 10.0; Win64; x64) AppleWebKit/537.36 (KHTML, like Gecko) Chrome/98.0.4758.102 Safari/537.36",xpyriment,legacy,legacy,0,uniform,0,0,0,0,24,24,24,0,0,74,74,74,74,74,0,74,0,12,12,12,12,12,0,12,02-02-22,02-02-22,13:04:21,Wed Mar 02 2022 13:04:21 GMT+0100 (közép-európai téli idő),The main experiment item,yes,0,0,C:/Users/rrics/Documents/!!ResearchBMECOGSCI/gnet,0,0,0,prototype1.png,no,mono,no,18,no,black,no,no,768,1164,3.5.6,legacy,xpyriment,osweb,1.3.13,0,space,space,space,space,26512,14929,28048,26512,2,legacy,728,1366,24,768,24,0,0,1366,1646222721483,1024,2,48000,-16,experiment,p3sarrcol4.png,0,even,Win32,422,127246,124230,422,422,645560,647062,640558,128766,640558,422,731084,732601,728089,647071,728089,visual_patterns,0,0,0,yes,1366
undefined,undefined,undefined,undefined,white,no,Mozilla,Netscape,"5.0 (Windows NT 10.0; Win64; x64) AppleWebKit/537.36 (KHTML, like Gecko) Chrome/98.0.4758.102 Safari/537.36",xpyriment,legacy,legacy,0,uniform,0,0,0,0,24,24,24,0,0,74,74,74,74,74,0,74,0,13,13,13,13,13,0,13,02-02-22,02-02-22,13:04:21,Wed Mar 02 2022 13:04:21 GMT+0100 (közép-európai téli idő),The main experiment item,yes,0,0,C:/Users/rrics/Documents/!!ResearchBMECOGSCI/gnet,0,0,0,prototype1.png,no,mono,no,18,no,black,no,no,768,1164,3.5.6,legacy,xpyriment,osweb,1.3.13,0,space,space,space,space,26512,14929,28048,26512,2,legacy,728,1366,24,768,24,0,0,1366,1646222721483,1024,2,48000,-16,experiment,p2sarrshacol2.png,0,even,Win32,422,127246,124230,422,422,645560,647062,640558,128766,640558,422,735617,737120,732620,647071,732620,visual_patterns,0,0,0,yes,1366
undefined,undefined,undefined,undefined,white,no,Mozilla,Netscape,"5.0 (Windows NT 10.0; Win64; x64) AppleWebKit/537.36 (KHTML, like Gecko) Chrome/98.0.4758.102 Safari/537.36",xpyriment,legacy,legacy,0,uniform,0,0,0,0,24,24,24,0,0,74,74,74,74,74,0,74,0,14,14,14,14,14,0,14,02-02-22,02-02-22,13:04:21,Wed Mar 02 2022 13:04:21 GMT+0100 (közép-európai téli idő),The main experiment item,yes,0,0,C:/Users/rrics/Documents/!!ResearchBMECOGSCI/gnet,0,0,0,prototype1.png,no,mono,no,18,no,black,no,no,768,1164,3.5.6,legacy,xpyriment,osweb,1.3.13,0,space,space,space,space,26512,14929,28048,26512,2,legacy,728,1366,24,768,24,0,0,1366,1646222721483,1024,2,48000,-16,experiment,p6sarr1.png,0,even,Win32,422,127246,124230,422,422,645560,647062,640558,128766,640558,422,740138,741655,737145,647071,737145,visual_patterns,0,0,0,yes,1366
undefined,undefined,undefined,undefined,white,no,Mozilla,Netscape,"5.0 (Windows NT 10.0; Win64; x64) AppleWebKit/537.36 (KHTML, like Gecko) Chrome/98.0.4758.102 Safari/537.36",xpyriment,legacy,legacy,0,uniform,0,0,0,0,24,24,24,0,0,74,74,74,74,74,0,74,0,15,15,15,15,15,0,15,02-02-22,02-02-22,13:04:21,Wed Mar 02 2022 13:04:21 GMT+0100 (közép-európai téli idő),The main experiment item,yes,0,0,C:/Users/rrics/Documents/!!ResearchBMECOGSCI/gnet,0,0,0,prototype1.png,no,mono,no,18,no,black,no,no,768,1164,3.5.6,legacy,xpyriment,osweb,1.3.13,0,space,space,space,space,26512,14929,28048,26512,2,legacy,728,1366,24,768,24,0,0,1366,1646222721483,1024,2,48000,-16,experiment,p4sarrshacol3.png,0,even,Win32,422,127246,124230,422,422,645560,647062,640558,128766,640558,422,744674,746190,741682,647071,741682,visual_patterns,0,0,0,yes,1366
undefined,undefined,undefined,undefined,white,no,Mozilla,Netscape,"5.0 (Windows NT 10.0; Win64; x64) AppleWebKit/537.36 (KHTML, like Gecko) Chrome/98.0.4758.102 Safari/537.36",xpyriment,legacy,legacy,0,uniform,0,0,0,0,24,24,24,0,0,74,74,74,74,74,0,74,0,16,16,16,16,16,0,16,02-02-22,02-02-22,13:04:21,Wed Mar 02 2022 13:04:21 GMT+0100 (közép-európai téli idő),The main experiment item,yes,0,0,C:/Users/rrics/Documents/!!ResearchBMECOGSCI/gnet,0,0,0,prototype1.png,no,mono,no,18,no,black,no,no,768,1164,3.5.6,legacy,xpyriment,osweb,1.3.13,0,space,space,space,space,26512,14929,28048,26512,2,legacy,728,1366,24,768,24,0,0,1366,1646222721483,1024,2,48000,-16,experiment,p4sarrshacol4.png,0,even,Win32,422,127246,124230,422,422,645560,647062,640558,128766,640558,422,749214,750726,746214,647071,746214,visual_patterns,0,0,0,yes,1366
undefined,undefined,undefined,undefined,white,no,Mozilla,Netscape,"5.0 (Windows NT 10.0; Win64; x64) AppleWebKit/537.36 (KHTML, like Gecko) Chrome/98.0.4758.102 Safari/537.36",xpyriment,legacy,legacy,0,uniform,0,0,0,0,24,24,24,0,0,74,74,74,74,74,0,74,0,17,17,17,17,17,0,17,02-02-22,02-02-22,13:04:21,Wed Mar 02 2022 13:04:21 GMT+0100 (közép-európai téli idő),The main experiment item,yes,0,0,C:/Users/rrics/Documents/!!ResearchBMECOGSCI/gnet,0,0,0,prototype1.png,no,mono,no,18,no,black,no,no,768,1164,3.5.6,legacy,xpyriment,osweb,1.3.13,0,space,space,space,space,26512,14929,28048,26512,2,legacy,728,1366,24,768,24,0,0,1366,1646222721483,1024,2,48000,-16,experiment,p2sarrcol1.png,0,even,Win32,422,127246,124230,422,422,645560,647062,640558,128766,640558,422,753745,755261,750744,647071,750744,visual_patterns,0,0,0,yes,1366
undefined,undefined,undefined,undefined,white,no,Mozilla,Netscape,"5.0 (Windows NT 10.0; Win64; x64) AppleWebKit/537.36 (KHTML, like Gecko) Chrome/98.0.4758.102 Safari/537.36",xpyriment,legacy,legacy,0,uniform,0,0,0,0,24,24,24,0,0,74,74,74,74,74,0,74,0,18,18,18,18,18,0,18,02-02-22,02-02-22,13:04:21,Wed Mar 02 2022 13:04:21 GMT+0100 (közép-európai téli idő),The main experiment item,yes,0,0,C:/Users/rrics/Documents/!!ResearchBMECOGSCI/gnet,0,0,0,prototype1.png,no,mono,no,18,no,black,no,no,768,1164,3.5.6,legacy,xpyriment,osweb,1.3.13,0,space,space,space,space,26512,14929,28048,26512,2,legacy,728,1366,24,768,24,0,0,1366,1646222721483,1024,2,48000,-16,experiment,p1sarr4.png,0,even,Win32,422,127246,124230,422,422,645560,647062,640558,128766,640558,422,758280,759797,755285,647071,755285,visual_patterns,0,0,0,yes,1366
undefined,undefined,undefined,undefined,white,no,Mozilla,Netscape,"5.0 (Windows NT 10.0; Win64; x64) AppleWebKit/537.36 (KHTML, like Gecko) Chrome/98.0.4758.102 Safari/537.36",xpyriment,legacy,legacy,0,uniform,0,0,0,0,24,24,24,0,0,74,74,74,74,74,0,74,0,19,19,19,19,19,0,19,02-02-22,02-02-22,13:04:21,Wed Mar 02 2022 13:04:21 GMT+0100 (közép-európai téli idő),The main experiment item,yes,0,0,C:/Users/rrics/Documents/!!ResearchBMECOGSCI/gnet,0,0,0,prototype1.png,no,mono,no,18,no,black,no,no,768,1164,3.5.6,legacy,xpyriment,osweb,1.3.13,0,space,space,space,space,26512,14929,28048,26512,2,legacy,728,1366,24,768,24,0,0,1366,1646222721483,1024,2,48000,-16,experiment,p10sarr1.png,0,even,Win32,422,127246,124230,422,422,645560,647062,640558,128766,640558,422,762815,764332,759814,647071,759814,visual_patterns,0,0,0,yes,1366
undefined,undefined,undefined,undefined,white,no,Mozilla,Netscape,"5.0 (Windows NT 10.0; Win64; x64) AppleWebKit/537.36 (KHTML, like Gecko) Chrome/98.0.4758.102 Safari/537.36",xpyriment,legacy,legacy,0,uniform,0,0,0,0,24,24,24,0,0,74,74,74,74,74,0,74,0,20,20,20,20,20,0,20,02-02-22,02-02-22,13:04:21,Wed Mar 02 2022 13:04:21 GMT+0100 (közép-európai téli idő),The main experiment item,yes,0,0,C:/Users/rrics/Documents/!!ResearchBMECOGSCI/gnet,0,0,0,prototype1.png,no,mono,no,18,no,black,no,no,768,1164,3.5.6,legacy,xpyriment,osweb,1.3.13,0,space,space,space,space,26512,14929,28048,26512,2,legacy,728,1366,24,768,24,0,0,1366,1646222721483,1024,2,48000,-16,experiment,p8sarr3.png,0,even,Win32,422,127246,124230,422,422,645560,647062,640558,128766,640558,422,767383,768884,764387,647071,764387,visual_patterns,0,0,0,yes,1366
undefined,undefined,undefined,undefined,white,no,Mozilla,Netscape,"5.0 (Windows NT 10.0; Win64; x64) AppleWebKit/537.36 (KHTML, like Gecko) Chrome/98.0.4758.102 Safari/537.36",xpyriment,legacy,legacy,0,uniform,0,0,0,0,24,24,24,0,0,74,74,74,74,74,0,74,0,21,21,21,21,21,0,21,02-02-22,02-02-22,13:04:21,Wed Mar 02 2022 13:04:21 GMT+0100 (közép-európai téli idő),The main experiment item,yes,0,0,C:/Users/rrics/Documents/!!ResearchBMECOGSCI/gnet,0,0,0,prototype1.png,no,mono,no,18,no,black,no,no,768,1164,3.5.6,legacy,xpyriment,osweb,1.3.13,0,space,space,space,space,26512,14929,28048,26512,2,legacy,728,1366,24,768,24,0,0,1366,1646222721483,1024,2,48000,-16,experiment,p9sarr4.png,0,even,Win32,422,127246,124230,422,422,645560,647062,640558,128766,640558,422,771907,773419,768911,647071,768911,visual_patterns,0,0,0,yes,1366
undefined,undefined,undefined,undefined,white,no,Mozilla,Netscape,"5.0 (Windows NT 10.0; Win64; x64) AppleWebKit/537.36 (KHTML, like Gecko) Chrome/98.0.4758.102 Safari/537.36",xpyriment,legacy,legacy,0,uniform,0,0,0,0,24,24,24,0,0,74,74,74,74,74,0,74,0,22,22,22,22,22,0,22,02-02-22,02-02-22,13:04:21,Wed Mar 02 2022 13:04:21 GMT+0100 (közép-európai téli idő),The main experiment item,yes,0,0,C:/Users/rrics/Documents/!!ResearchBMECOGSCI/gnet,0,0,0,prototype1.png,no,mono,no,18,no,black,no,no,768,1164,3.5.6,legacy,xpyriment,osweb,1.3.13,0,space,space,space,space,26512,14929,28048,26512,2,legacy,728,1366,24,768,24,0,0,1366,1646222721483,1024,2,48000,-16,experiment,p5sarrcol2.png,0,even,Win32,422,127246,124230,422,422,645560,647062,640558,128766,640558,422,776438,777955,773438,647071,773437,visual_patterns,0,0,0,yes,1366
undefined,undefined,undefined,undefined,white,no,Mozilla,Netscape,"5.0 (Windows NT 10.0; Win64; x64) AppleWebKit/537.36 (KHTML, like Gecko) Chrome/98.0.4758.102 Safari/537.36",xpyriment,legacy,legacy,0,uniform,0,0,0,0,24,24,24,0,0,74,74,74,74,74,0,74,0,23,23,23,23,23,0,23,02-02-22,02-02-22,13:04:21,Wed Mar 02 2022 13:04:21 GMT+0100 (közép-európai téli idő),The main experiment item,yes,0,0,C:/Users/rrics/Documents/!!ResearchBMECOGSCI/gnet,0,0,0,prototype1.png,no,mono,no,18,no,black,no,no,768,1164,3.5.6,legacy,xpyriment,osweb,1.3.13,0,space,space,space,space,26512,14929,28048,26512,2,legacy,728,1366,24,768,24,0,0,1366,1646222721483,1024,2,48000,-16,experiment,p7sarr4.png,0,even,Win32,422,127246,124230,422,422,645560,647062,640558,128766,640558,422,780970,782473,777976,647071,777976,visual_patterns,0,0,0,yes,1366
undefined,undefined,undefined,undefined,white,no,Mozilla,Netscape,"5.0 (Windows NT 10.0; Win64; x64) AppleWebKit/537.36 (KHTML, like Gecko) Chrome/98.0.4758.102 Safari/537.36",xpyriment,legacy,legacy,0,uniform,0,0,0,0,24,24,24,0,0,74,74,74,74,74,0,74,0,24,24,24,24,24,0,24,02-02-22,02-02-22,13:04:21,Wed Mar 02 2022 13:04:21 GMT+0100 (közép-európai téli idő),The main experiment item,yes,0,0,C:/Users/rrics/Documents/!!ResearchBMECOGSCI/gnet,0,0,0,prototype1.png,no,mono,no,18,no,black,no,no,768,1164,3.5.6,legacy,xpyriment,osweb,1.3.13,0,space,space,space,space,26512,14929,28048,26512,2,legacy,728,1366,24,768,24,0,0,1366,1646222721483,1024,2,48000,-16,experiment,p3sarrsha3.png,0,even,Win32,422,127246,124230,422,422,645560,647062,640558,128766,640558,422,785492,787009,782497,647071,782497,visual_patterns,0,0,0,yes,1366
undefined,undefined,undefined,undefined,white,no,Mozilla,Netscape,"5.0 (Windows NT 10.0; Win64; x64) AppleWebKit/537.36 (KHTML, like Gecko) Chrome/98.0.4758.102 Safari/537.36",xpyriment,legacy,legacy,0,uniform,0,0,0,0,24,24,24,0,0,74,74,74,74,74,0,74,0,25,25,25,25,25,0,25,02-02-22,02-02-22,13:04:21,Wed Mar 02 2022 13:04:21 GMT+0100 (közép-európai téli idő),The main experiment item,yes,0,0,C:/Users/rrics/Documents/!!ResearchBMECOGSCI/gnet,0,0,0,prototype1.png,no,mono,no,18,no,black,no,no,768,1164,3.5.6,legacy,xpyriment,osweb,1.3.13,0,space,space,space,space,26512,14929,28048,26512,2,legacy,728,1366,24,768,24,0,0,1366,1646222721483,1024,2,48000,-16,experiment,p8sarr4.png,0,even,Win32,422,127246,124230,422,422,645560,647062,640558,128766,640558,422,790066,791578,787062,647071,787062,visual_patterns,0,0,0,yes,1366
undefined,undefined,undefined,undefined,white,no,Mozilla,Netscape,"5.0 (Windows NT 10.0; Win64; x64) AppleWebKit/537.36 (KHTML, like Gecko) Chrome/98.0.4758.102 Safari/537.36",xpyriment,legacy,legacy,0,uniform,0,0,0,0,24,24,24,0,0,74,74,74,74,74,0,74,0,26,26,26,26,26,0,26,02-02-22,02-02-22,13:04:21,Wed Mar 02 2022 13:04:21 GMT+0100 (közép-európai téli idő),The main experiment item,yes,0,0,C:/Users/rrics/Documents/!!ResearchBMECOGSCI/gnet,0,0,0,prototype1.png,no,mono,no,18,no,black,no,no,768,1164,3.5.6,legacy,xpyriment,osweb,1.3.13,0,space,space,space,space,26512,14929,28048,26512,2,legacy,728,1366,24,768,24,0,0,1366,1646222721483,1024,2,48000,-16,experiment,p2sarrshacol4.png,0,even,Win32,422,127246,124230,422,422,645560,647062,640558,128766,640558,422,794594,796096,791600,647071,791600,visual_patterns,0,0,0,yes,1366
undefined,undefined,undefined,undefined,white,no,Mozilla,Netscape,"5.0 (Windows NT 10.0; Win64; x64) AppleWebKit/537.36 (KHTML, like Gecko) Chrome/98.0.4758.102 Safari/537.36",xpyriment,legacy,legacy,0,uniform,0,0,0,0,24,24,24,0,0,74,74,74,74,74,0,74,0,27,27,27,27,27,0,27,02-02-22,02-02-22,13:04:21,Wed Mar 02 2022 13:04:21 GMT+0100 (közép-európai téli idő),The main experiment item,yes,0,0,C:/Users/rrics/Documents/!!ResearchBMECOGSCI/gnet,0,0,0,prototype1.png,no,mono,no,18,no,black,no,no,768,1164,3.5.6,legacy,xpyriment,osweb,1.3.13,0,space,space,space,space,26512,14929,28048,26512,2,legacy,728,1366,24,768,24,0,0,1366,1646222721483,1024,2,48000,-16,experiment,p4sarrshacol1.png,0,even,Win32,422,127246,124230,422,422,645560,647062,640558,128766,640558,422,799119,800632,796116,647071,796116,visual_patterns,0,0,0,yes,1366
undefined,undefined,undefined,undefined,white,no,Mozilla,Netscape,"5.0 (Windows NT 10.0; Win64; x64) AppleWebKit/537.36 (KHTML, like Gecko) Chrome/98.0.4758.102 Safari/537.36",xpyriment,legacy,legacy,0,uniform,0,0,0,0,24,24,24,0,0,74,74,74,74,74,0,74,0,28,28,28,28,28,0,28,02-02-22,02-02-22,13:04:21,Wed Mar 02 2022 13:04:21 GMT+0100 (közép-európai téli idő),The main experiment item,yes,0,0,C:/Users/rrics/Documents/!!ResearchBMECOGSCI/gnet,0,0,0,prototype1.png,no,mono,no,18,no,black,no,no,768,1164,3.5.6,legacy,xpyriment,osweb,1.3.13,0,space,space,space,space,26512,14929,28048,26512,2,legacy,728,1366,24,768,24,0,0,1366,1646222721483,1024,2,48000,-16,experiment,p1sarrshacol3.png,0,even,Win32,422,127246,124230,422,422,645560,647062,640558,128766,640558,422,803648,805150,800658,647071,800658,visual_patterns,0,0,0,yes,1366
undefined,undefined,undefined,undefined,white,no,Mozilla,Netscape,"5.0 (Windows NT 10.0; Win64; x64) AppleWebKit/537.36 (KHTML, like Gecko) Chrome/98.0.4758.102 Safari/537.36",xpyriment,legacy,legacy,0,uniform,0,0,0,0,24,24,24,0,0,74,74,74,74,74,0,74,0,29,29,29,29,29,0,29,02-02-22,02-02-22,13:04:21,Wed Mar 02 2022 13:04:21 GMT+0100 (közép-európai téli idő),The main experiment item,yes,0,0,C:/Users/rrics/Documents/!!ResearchBMECOGSCI/gnet,0,0,0,prototype1.png,no,mono,no,18,no,black,no,no,768,1164,3.5.6,legacy,xpyriment,osweb,1.3.13,0,space,space,space,space,26512,14929,28048,26512,2,legacy,728,1366,24,768,24,0,0,1366,1646222721483,1024,2,48000,-16,experiment,p2sarrsha1.png,0,even,Win32,422,127246,124230,422,422,645560,647062,640558,128766,640558,422,808173,809686,805170,647071,805170,visual_patterns,0,0,0,yes,1366
undefined,undefined,undefined,undefined,white,no,Mozilla,Netscape,"5.0 (Windows NT 10.0; Win64; x64) AppleWebKit/537.36 (KHTML, like Gecko) Chrome/98.0.4758.102 Safari/537.36",xpyriment,legacy,legacy,0,uniform,0,0,0,0,24,24,24,0,0,74,74,74,74,74,0,74,0,30,30,30,30,30,0,30,02-02-22,02-02-22,13:04:21,Wed Mar 02 2022 13:04:21 GMT+0100 (közép-európai téli idő),The main experiment item,yes,0,0,C:/Users/rrics/Documents/!!ResearchBMECOGSCI/gnet,0,0,0,prototype1.png,no,mono,no,18,no,black,no,no,768,1164,3.5.6,legacy,xpyriment,osweb,1.3.13,0,space,space,space,space,26512,14929,28048,26512,2,legacy,728,1366,24,768,24,0,0,1366,1646222721483,1024,2,48000,-16,experiment,p3sarr2.png,0,even,Win32,422,127246,124230,422,422,645560,647062,640558,128766,640558,422,812713,814221,809709,647071,809708,visual_patterns,0,0,0,yes,1366
undefined,undefined,undefined,undefined,white,no,Mozilla,Netscape,"5.0 (Windows NT 10.0; Win64; x64) AppleWebKit/537.36 (KHTML, like Gecko) Chrome/98.0.4758.102 Safari/537.36",xpyriment,legacy,legacy,0,uniform,0,0,0,0,24,24,24,0,0,74,74,74,74,74,0,74,0,31,31,31,31,31,0,31,02-02-22,02-02-22,13:04:21,Wed Mar 02 2022 13:04:21 GMT+0100 (közép-európai téli idő),The main experiment item,yes,0,0,C:/Users/rrics/Documents/!!ResearchBMECOGSCI/gnet,0,0,0,prototype1.png,no,mono,no,18,no,black,no,no,768,1164,3.5.6,legacy,xpyriment,osweb,1.3.13,0,space,space,space,space,26512,14929,28048,26512,2,legacy,728,1366,24,768,24,0,0,1366,1646222721483,1024,2,48000,-16,experiment,p3sarrshacol3.png,0,even,Win32,422,127246,124230,422,422,645560,647062,640558,128766,640558,422,817246,818756,814245,647071,814245,visual_patterns,0,0,0,yes,1366
undefined,undefined,undefined,undefined,white,no,Mozilla,Netscape,"5.0 (Windows NT 10.0; Win64; x64) AppleWebKit/537.36 (KHTML, like Gecko) Chrome/98.0.4758.102 Safari/537.36",xpyriment,legacy,legacy,0,uniform,0,0,0,0,24,24,24,0,0,74,74,74,74,74,0,74,0,32,32,32,32,32,0,32,02-02-22,02-02-22,13:04:21,Wed Mar 02 2022 13:04:21 GMT+0100 (közép-európai téli idő),The main experiment item,yes,0,0,C:/Users/rrics/Documents/!!ResearchBMECOGSCI/gnet,0,0,0,prototype1.png,no,mono,no,18,no,black,no,no,768,1164,3.5.6,legacy,xpyriment,osweb,1.3.13,0,space,space,space,space,26512,14929,28048,26512,2,legacy,728,1366,24,768,24,0,0,1366,1646222721483,1024,2,48000,-16,experiment,p2sarrcol4.png,0,even,Win32,422,127246,124230,422,422,645560,647062,640558,128766,640558,422,821780,823292,818780,647071,818780,visual_patterns,0,0,0,yes,1366
undefined,undefined,undefined,undefined,white,no,Mozilla,Netscape,"5.0 (Windows NT 10.0; Win64; x64) AppleWebKit/537.36 (KHTML, like Gecko) Chrome/98.0.4758.102 Safari/537.36",xpyriment,legacy,legacy,0,uniform,0,0,0,0,24,24,24,0,0,74,74,74,74,74,0,74,0,33,33,33,33,33,0,33,02-02-22,02-02-22,13:04:21,Wed Mar 02 2022 13:04:21 GMT+0100 (közép-európai téli idő),The main experiment item,yes,0,0,C:/Users/rrics/Documents/!!ResearchBMECOGSCI/gnet,0,0,0,prototype1.png,no,mono,no,18,no,black,no,no,768,1164,3.5.6,legacy,xpyriment,osweb,1.3.13,0,space,space,space,space,26512,14929,28048,26512,2,legacy,728,1366,24,768,24,0,0,1366,1646222721483,1024,2,48000,-16,experiment,p5sarrcol1.png,0,even,Win32,422,127246,124230,422,422,645560,647062,640558,128766,640558,422,826319,827827,823327,647071,823327,visual_patterns,0,0,0,yes,1366
undefined,undefined,undefined,undefined,white,no,Mozilla,Netscape,"5.0 (Windows NT 10.0; Win64; x64) AppleWebKit/537.36 (KHTML, like Gecko) Chrome/98.0.4758.102 Safari/537.36",xpyriment,legacy,legacy,0,uniform,0,0,0,0,24,24,24,0,0,74,74,74,74,74,0,74,0,34,34,34,34,34,0,34,02-02-22,02-02-22,13:04:21,Wed Mar 02 2022 13:04:21 GMT+0100 (közép-európai téli idő),The main experiment item,yes,0,0,C:/Users/rrics/Documents/!!ResearchBMECOGSCI/gnet,0,0,0,prototype1.png,no,mono,no,18,no,black,no,no,768,1164,3.5.6,legacy,xpyriment,osweb,1.3.13,0,space,space,space,space,26512,14929,28048,26512,2,legacy,728,1366,24,768,24,0,0,1366,1646222721483,1024,2,48000,-16,experiment,p8sarr2.png,0,even,Win32,422,127246,124230,422,422,645560,647062,640558,128766,640558,422,830852,832362,827855,647071,827855,visual_patterns,0,0,0,yes,1366
undefined,undefined,undefined,undefined,white,no,Mozilla,Netscape,"5.0 (Windows NT 10.0; Win64; x64) AppleWebKit/537.36 (KHTML, like Gecko) Chrome/98.0.4758.102 Safari/537.36",xpyriment,legacy,legacy,0,uniform,0,0,0,0,24,24,24,0,0,74,74,74,74,74,0,74,0,35,35,35,35,35,0,35,02-02-22,02-02-22,13:04:21,Wed Mar 02 2022 13:04:21 GMT+0100 (közép-európai téli idő),The main experiment item,yes,0,0,C:/Users/rrics/Documents/!!ResearchBMECOGSCI/gnet,0,0,0,prototype1.png,no,mono,no,18,no,black,no,no,768,1164,3.5.6,legacy,xpyriment,osweb,1.3.13,0,space,space,space,space,26512,14929,28048,26512,2,legacy,728,1366,24,768,24,0,0,1366,1646222721483,1024,2,48000,-16,experiment,p5sarr3.png,0,even,Win32,422,127246,124230,422,422,645560,647062,640558,128766,640558,422,835391,836898,832389,647071,832389,visual_patterns,0,0,0,yes,1366
undefined,undefined,undefined,undefined,white,no,Mozilla,Netscape,"5.0 (Windows NT 10.0; Win64; x64) AppleWebKit/537.36 (KHTML, like Gecko) Chrome/98.0.4758.102 Safari/537.36",xpyriment,legacy,legacy,0,uniform,0,0,0,0,24,24,24,0,0,74,74,74,74,74,0,74,0,36,36,36,36,36,0,36,02-02-22,02-02-22,13:04:21,Wed Mar 02 2022 13:04:21 GMT+0100 (közép-európai téli idő),The main experiment item,yes,0,0,C:/Users/rrics/Documents/!!ResearchBMECOGSCI/gnet,0,0,0,prototype1.png,no,mono,no,18,no,black,no,no,768,1164,3.5.6,legacy,xpyriment,osweb,1.3.13,0,space,space,space,space,26512,14929,28048,26512,2,legacy,728,1366,24,768,24,0,0,1366,1646222721483,1024,2,48000,-16,experiment,p7sarr1.png,0,even,Win32,422,127246,124230,422,422,645560,647062,640558,128766,640558,422,839923,841433,836918,647071,836918,visual_patterns,0,0,0,yes,1366
undefined,undefined,undefined,undefined,white,no,Mozilla,Netscape,"5.0 (Windows NT 10.0; Win64; x64) AppleWebKit/537.36 (KHTML, like Gecko) Chrome/98.0.4758.102 Safari/537.36",xpyriment,legacy,legacy,0,uniform,0,0,0,0,24,24,24,0,0,74,74,74,74,74,0,74,0,37,37,37,37,37,0,37,02-02-22,02-02-22,13:04:21,Wed Mar 02 2022 13:04:21 GMT+0100 (közép-európai téli idő),The main experiment item,yes,0,0,C:/Users/rrics/Documents/!!ResearchBMECOGSCI/gnet,0,0,0,prototype1.png,no,mono,no,18,no,black,no,no,768,1164,3.5.6,legacy,xpyriment,osweb,1.3.13,0,space,space,space,space,26512,14929,28048,26512,2,legacy,728,1366,24,768,24,0,0,1366,1646222721483,1024,2,48000,-16,experiment,p1sarrcol4.png,0,even,Win32,422,127246,124230,422,422,645560,647062,640558,128766,640558,422,844450,845952,841454,647071,841454,visual_patterns,0,0,0,yes,1366
undefined,undefined,undefined,undefined,white,no,Mozilla,Netscape,"5.0 (Windows NT 10.0; Win64; x64) AppleWebKit/537.36 (KHTML, like Gecko) Chrome/98.0.4758.102 Safari/537.36",xpyriment,legacy,legacy,0,uniform,0,0,0,0,24,24,24,0,0,74,74,74,74,74,0,74,0,38,38,38,38,38,0,38,02-02-22,02-02-22,13:04:21,Wed Mar 02 2022 13:04:21 GMT+0100 (közép-európai téli idő),The main experiment item,yes,0,0,C:/Users/rrics/Documents/!!ResearchBMECOGSCI/gnet,0,0,0,prototype1.png,no,mono,no,18,no,black,no,no,768,1164,3.5.6,legacy,xpyriment,osweb,1.3.13,0,space,space,space,space,26512,14929,28048,26512,2,legacy,728,1366,24,768,24,0,0,1366,1646222721483,1024,2,48000,-16,experiment,p3sarrsha4.png,0,even,Win32,422,127246,124230,422,422,645560,647062,640558,128766,640558,422,848976,850488,845976,647071,845976,visual_patterns,0,0,0,yes,1366
undefined,undefined,undefined,undefined,white,no,Mozilla,Netscape,"5.0 (Windows NT 10.0; Win64; x64) AppleWebKit/537.36 (KHTML, like Gecko) Chrome/98.0.4758.102 Safari/537.36",xpyriment,legacy,legacy,0,uniform,0,0,0,0,24,24,24,0,0,74,74,74,74,74,0,74,0,39,39,39,39,39,0,39,02-02-22,02-02-22,13:04:21,Wed Mar 02 2022 13:04:21 GMT+0100 (közép-európai téli idő),The main experiment item,yes,0,0,C:/Users/rrics/Documents/!!ResearchBMECOGSCI/gnet,0,0,0,prototype1.png,no,mono,no,18,no,black,no,no,768,1164,3.5.6,legacy,xpyriment,osweb,1.3.13,0,space,space,space,space,26512,14929,28048,26512,2,legacy,728,1366,24,768,24,0,0,1366,1646222721483,1024,2,48000,-16,experiment,p3sarr1.png,0,even,Win32,422,127246,124230,422,422,645560,647062,640558,128766,640558,422,853506,855022,850511,647071,850511,visual_patterns,0,0,0,yes,1366
undefined,undefined,undefined,undefined,white,no,Mozilla,Netscape,"5.0 (Windows NT 10.0; Win64; x64) AppleWebKit/537.36 (KHTML, like Gecko) Chrome/98.0.4758.102 Safari/537.36",xpyriment,legacy,legacy,0,uniform,0,0,0,0,24,24,24,0,0,74,74,74,74,74,0,74,0,40,40,40,40,40,0,40,02-02-22,02-02-22,13:04:21,Wed Mar 02 2022 13:04:21 GMT+0100 (közép-európai téli idő),The main experiment item,yes,0,0,C:/Users/rrics/Documents/!!ResearchBMECOGSCI/gnet,0,0,0,prototype1.png,no,mono,no,18,no,black,no,no,768,1164,3.5.6,legacy,xpyriment,osweb,1.3.13,0,space,space,space,space,26512,14929,28048,26512,2,legacy,728,1366,24,768,24,0,0,1366,1646222721483,1024,2,48000,-16,experiment,p2sarrsha3.png,0,even,Win32,422,127246,124230,422,422,645560,647062,640558,128766,640558,422,858299,859808,855301,647071,855301,visual_patterns,0,0,0,yes,1366
undefined,undefined,undefined,undefined,white,no,Mozilla,Netscape,"5.0 (Windows NT 10.0; Win64; x64) AppleWebKit/537.36 (KHTML, like Gecko) Chrome/98.0.4758.102 Safari/537.36",xpyriment,legacy,legacy,0,uniform,0,0,0,0,24,24,24,0,0,74,74,74,74,74,0,74,0,41,41,41,41,41,0,41,02-02-22,02-02-22,13:04:21,Wed Mar 02 2022 13:04:21 GMT+0100 (közép-európai téli idő),The main experiment item,yes,0,0,C:/Users/rrics/Documents/!!ResearchBMECOGSCI/gnet,0,0,0,prototype1.png,no,mono,no,18,no,black,no,no,768,1164,3.5.6,legacy,xpyriment,osweb,1.3.13,0,space,space,space,space,26512,14929,28048,26512,2,legacy,728,1366,24,768,24,0,0,1366,1646222721483,1024,2,48000,-16,experiment,p9sarr3.png,0,even,Win32,422,127246,124230,422,422,645560,647062,640558,128766,640558,422,862834,864343,859835,647071,859835,visual_patterns,0,0,0,yes,1366
undefined,undefined,undefined,undefined,white,no,Mozilla,Netscape,"5.0 (Windows NT 10.0; Win64; x64) AppleWebKit/537.36 (KHTML, like Gecko) Chrome/98.0.4758.102 Safari/537.36",xpyriment,legacy,legacy,0,uniform,0,0,0,0,24,24,24,0,0,74,74,74,74,74,0,74,0,42,42,42,42,42,0,42,02-02-22,02-02-22,13:04:21,Wed Mar 02 2022 13:04:21 GMT+0100 (közép-európai téli idő),The main experiment item,yes,0,0,C:/Users/rrics/Documents/!!ResearchBMECOGSCI/gnet,0,0,0,prototype1.png,no,mono,no,18,no,black,no,no,768,1164,3.5.6,legacy,xpyriment,osweb,1.3.13,0,space,space,space,space,26512,14929,28048,26512,2,legacy,728,1366,24,768,24,0,0,1366,1646222721483,1024,2,48000,-16,experiment,p10sarr4.png,0,even,Win32,422,127246,124230,422,422,645560,647062,640558,128766,640558,422,867362,868879,864370,647071,864370,visual_patterns,0,0,0,yes,1366
undefined,undefined,undefined,undefined,white,no,Mozilla,Netscape,"5.0 (Windows NT 10.0; Win64; x64) AppleWebKit/537.36 (KHTML, like Gecko) Chrome/98.0.4758.102 Safari/537.36",xpyriment,legacy,legacy,0,uniform,0,0,0,0,24,24,24,0,0,74,74,74,74,74,0,74,0,43,43,43,43,43,0,43,02-02-22,02-02-22,13:04:21,Wed Mar 02 2022 13:04:21 GMT+0100 (közép-európai téli idő),The main experiment item,yes,0,0,C:/Users/rrics/Documents/!!ResearchBMECOGSCI/gnet,0,0,0,prototype1.png,no,mono,no,18,no,black,no,no,768,1164,3.5.6,legacy,xpyriment,osweb,1.3.13,0,space,space,space,space,26512,14929,28048,26512,2,legacy,728,1366,24,768,24,0,0,1366,1646222721483,1024,2,48000,-16,experiment,p4sarrcol1.png,0,even,Win32,422,127246,124230,422,422,645560,647062,640558,128766,640558,422,871904,873414,868906,647071,868905,visual_patterns,0,0,0,yes,1366
undefined,undefined,undefined,undefined,white,no,Mozilla,Netscape,"5.0 (Windows NT 10.0; Win64; x64) AppleWebKit/537.36 (KHTML, like Gecko) Chrome/98.0.4758.102 Safari/537.36",xpyriment,legacy,legacy,0,uniform,0,0,0,0,24,24,24,0,0,74,74,74,74,74,0,74,0,44,44,44,44,44,0,44,02-02-22,02-02-22,13:04:21,Wed Mar 02 2022 13:04:21 GMT+0100 (közép-európai téli idő),The main experiment item,yes,0,0,C:/Users/rrics/Documents/!!ResearchBMECOGSCI/gnet,0,0,0,prototype1.png,no,mono,no,18,no,black,no,no,768,1164,3.5.6,legacy,xpyriment,osweb,1.3.13,0,space,space,space,space,26512,14929,28048,26512,2,legacy,728,1366,24,768,24,0,0,1366,1646222721483,1024,2,48000,-16,experiment,p5sarrshacol4.png,0,even,Win32,422,127246,124230,422,422,645560,647062,640558,128766,640558,422,876438,877950,873441,647071,873441,visual_patterns,0,0,0,yes,1366
undefined,undefined,undefined,undefined,white,no,Mozilla,Netscape,"5.0 (Windows NT 10.0; Win64; x64) AppleWebKit/537.36 (KHTML, like Gecko) Chrome/98.0.4758.102 Safari/537.36",xpyriment,legacy,legacy,0,uniform,0,0,0,0,24,24,24,0,0,74,74,74,74,74,0,74,0,45,45,45,45,45,0,45,02-02-22,02-02-22,13:04:21,Wed Mar 02 2022 13:04:21 GMT+0100 (közép-európai téli idő),The main experiment item,yes,0,0,C:/Users/rrics/Documents/!!ResearchBMECOGSCI/gnet,0,0,0,prototype1.png,no,mono,no,18,no,black,no,no,768,1164,3.5.6,legacy,xpyriment,osweb,1.3.13,0,space,space,space,space,26512,14929,28048,26512,2,legacy,728,1366,24,768,24,0,0,1366,1646222721483,1024,2,48000,-16,experiment,p3sarr3.png,0,even,Win32,422,127246,124230,422,422,645560,647062,640558,128766,640558,422,880969,882473,877972,647071,877972,visual_patterns,0,0,0,yes,1366
undefined,undefined,undefined,undefined,white,no,Mozilla,Netscape,"5.0 (Windows NT 10.0; Win64; x64) AppleWebKit/537.36 (KHTML, like Gecko) Chrome/98.0.4758.102 Safari/537.36",xpyriment,legacy,legacy,0,uniform,0,0,0,0,24,24,24,0,0,74,74,74,74,74,0,74,0,46,46,46,46,46,0,46,02-02-22,02-02-22,13:04:21,Wed Mar 02 2022 13:04:21 GMT+0100 (közép-európai téli idő),The main experiment item,yes,0,0,C:/Users/rrics/Documents/!!ResearchBMECOGSCI/gnet,0,0,0,prototype1.png,no,mono,no,18,no,black,no,no,768,1164,3.5.6,legacy,xpyriment,osweb,1.3.13,0,space,space,space,space,26512,14929,28048,26512,2,legacy,728,1366,24,768,24,0,0,1366,1646222721483,1024,2,48000,-16,experiment,p2sarr3.png,0,even,Win32,422,127246,124230,422,422,645560,647062,640558,128766,640558,422,885494,887004,882496,647071,882496,visual_patterns,0,0,0,yes,1366
undefined,undefined,undefined,undefined,white,no,Mozilla,Netscape,"5.0 (Windows NT 10.0; Win64; x64) AppleWebKit/537.36 (KHTML, like Gecko) Chrome/98.0.4758.102 Safari/537.36",xpyriment,legacy,legacy,0,uniform,0,0,0,0,24,24,24,0,0,74,74,74,74,74,0,74,0,47,47,47,47,47,0,47,02-02-22,02-02-22,13:04:21,Wed Mar 02 2022 13:04:21 GMT+0100 (közép-európai téli idő),The main experiment item,yes,0,0,C:/Users/rrics/Documents/!!ResearchBMECOGSCI/gnet,0,0,0,prototype1.png,no,mono,no,18,no,black,no,no,768,1164,3.5.6,legacy,xpyriment,osweb,1.3.13,0,space,space,space,space,26512,14929,28048,26512,2,legacy,728,1366,24,768,24,0,0,1366,1646222721483,1024,2,48000,-16,experiment,p4sarr2.png,0,even,Win32,422,127246,124230,422,422,645560,647062,640558,128766,640558,422,890023,891539,887027,647071,887027,visual_patterns,0,0,0,yes,1366
