acc,accuracy,average_response_time,avg_rt,background,bidi,browser_codename,browser_name,browser_version,canvas_backend,clock_backend,color_backend,compensation,coordinates,count_end,count_experiment,count_osweb,count_prestudy,count_prestudy_isi,count_prestudy_sequence,count_prestudy_stimpres,count_start,count_study,count_study_coroutines,count_study_isi,count_study_logger,count_study_response,count_study_sequence,count_study_start,count_study_stimpres,count_test,count_test_coroutines,count_test_isi,count_test_logger,count_test_response,count_test_sequence,count_test_start,count_test_stimpres,date_startdate,date_startdateUTC,date_starttime,datetime,description,disable_garbage_collection,experiment_debug,experiment_parameters,experiment_path,experiment_pilot,experiment_taskname,experiment_taskversion,fampict,font_bold,font_family,font_italic,font_size,font_underline,foreground,form_clicks,fullscreen,height,jatosStudyResultId,jatosVersion,keyboard_backend,mouse_backend,opensesame_codename,opensesame_version,repeat_cycle,response,response_start,response_study_start,response_test_start,response_time,response_time_start,response_time_study_start,response_time_test_start,round_decimals,sampler_backend,screen_availableHeight,screen_availableWidth,screen_colorDepth,screen_height,screen_pixelDepth,screen_screenX,screen_screenY,screen_width,sessionid,sound_buf_size,sound_channels,sound_freq,sound_sample_size,start,stim,subject_nr,subject_parity,system_os,time_prestudy,time_prestudy_isi,time_prestudy_stimpres,time_start,time_study,time_study_isi,time_study_logger,time_study_response,time_study_start,time_study_stimpres,time_test,time_test_isi,time_test_logger,time_test_response,time_test_start,time_test_stimpres,title,total_correct,total_response_time,total_responses,uniform_coordinates,width
undefined,undefined,undefined,undefined,white,no,Mozilla,Netscape,"5.0 (Windows NT 10.0; Win64; x64) AppleWebKit/537.36 (KHTML, like Gecko) Chrome/98.0.4758.102 Safari/537.36",xpyriment,legacy,legacy,0,uniform,0,0,0,0,24,24,24,0,0,0,0,0,0,0,0,0,0,,,,,,0,,02-02-22,02-02-22,13:41:43,Wed Mar 02 2022 13:41:43 GMT+0100 (Central European Standard Time),The main experiment item,yes,0,0,C:/Users/rrics/Documents/!!ResearchBMECOGSCI/gnet,0,0,0,prototype2.png,no,mono,no,18,no,black,no,no,768,1166,3.5.6,legacy,xpyriment,osweb,1.3.13,0,space,space,space,,44364,10609,44364,,2,legacy,824,1536,24,864,24,0,0,1536,1646224924457,1024,2,48000,-16,experiment,p6sarr1.png,0,even,Win32,144,122525,119510,144,144,173459,174963,168463,124042,168463,144,,,,,,visual_patterns,0,0,0,yes,1366
undefined,undefined,undefined,undefined,white,no,Mozilla,Netscape,"5.0 (Windows NT 10.0; Win64; x64) AppleWebKit/537.36 (KHTML, like Gecko) Chrome/98.0.4758.102 Safari/537.36",xpyriment,legacy,legacy,0,uniform,0,0,0,0,24,24,24,0,0,1,1,1,1,1,0,1,0,,,,,,0,,02-02-22,02-02-22,13:41:43,Wed Mar 02 2022 13:41:43 GMT+0100 (Central European Standard Time),The main experiment item,yes,0,0,C:/Users/rrics/Documents/!!ResearchBMECOGSCI/gnet,0,0,0,prototype2.png,no,mono,no,18,no,black,no,no,768,1166,3.5.6,legacy,xpyriment,osweb,1.3.13,0,space,space,space,,44364,10609,44364,,2,legacy,824,1536,24,864,24,0,0,1536,1646224924457,1024,2,48000,-16,experiment,prototype3.png,0,even,Win32,144,122525,119510,144,144,179985,181491,174977,124042,174977,144,,,,,,visual_patterns,0,0,0,yes,1366
undefined,undefined,undefined,undefined,white,no,Mozilla,Netscape,"5.0 (Windows NT 10.0; Win64; x64) AppleWebKit/537.36 (KHTML, like Gecko) Chrome/98.0.4758.102 Safari/537.36",xpyriment,legacy,legacy,0,uniform,0,0,0,0,24,24,24,0,0,2,2,2,2,2,0,2,0,,,,,,0,,02-02-22,02-02-22,13:41:43,Wed Mar 02 2022 13:41:43 GMT+0100 (Central European Standard Time),The main experiment item,yes,0,0,C:/Users/rrics/Documents/!!ResearchBMECOGSCI/gnet,0,0,0,prototype2.png,no,mono,no,18,no,black,no,no,768,1166,3.5.6,legacy,xpyriment,osweb,1.3.13,0,space,space,space,,44364,10609,44364,,2,legacy,824,1536,24,864,24,0,0,1536,1646224924457,1024,2,48000,-16,experiment,p3sarr1.png,0,even,Win32,144,122525,119510,144,144,186506,188021,181506,124042,181506,144,,,,,,visual_patterns,0,0,0,yes,1366
undefined,undefined,undefined,undefined,white,no,Mozilla,Netscape,"5.0 (Windows NT 10.0; Win64; x64) AppleWebKit/537.36 (KHTML, like Gecko) Chrome/98.0.4758.102 Safari/537.36",xpyriment,legacy,legacy,0,uniform,0,0,0,0,24,24,24,0,0,3,3,3,3,3,0,3,0,,,,,,0,,02-02-22,02-02-22,13:41:43,Wed Mar 02 2022 13:41:43 GMT+0100 (Central European Standard Time),The main experiment item,yes,0,0,C:/Users/rrics/Documents/!!ResearchBMECOGSCI/gnet,0,0,0,prototype2.png,no,mono,no,18,no,black,no,no,768,1166,3.5.6,legacy,xpyriment,osweb,1.3.13,0,space,space,space,,44364,10609,44364,,2,legacy,824,1536,24,864,24,0,0,1536,1646224924457,1024,2,48000,-16,experiment,p9sarr2.png,0,even,Win32,144,122525,119510,144,144,193035,194551,188038,124042,188038,144,,,,,,visual_patterns,0,0,0,yes,1366
undefined,undefined,undefined,undefined,white,no,Mozilla,Netscape,"5.0 (Windows NT 10.0; Win64; x64) AppleWebKit/537.36 (KHTML, like Gecko) Chrome/98.0.4758.102 Safari/537.36",xpyriment,legacy,legacy,0,uniform,0,0,0,0,24,24,24,0,0,4,4,4,4,4,0,4,0,,,,,,0,,02-02-22,02-02-22,13:41:43,Wed Mar 02 2022 13:41:43 GMT+0100 (Central European Standard Time),The main experiment item,yes,0,0,C:/Users/rrics/Documents/!!ResearchBMECOGSCI/gnet,0,0,0,prototype2.png,no,mono,no,18,no,black,no,no,768,1166,3.5.6,legacy,xpyriment,osweb,1.3.13,0,space,space,space,,44364,10609,44364,,2,legacy,824,1536,24,864,24,0,0,1536,1646224924457,1024,2,48000,-16,experiment,p4sarr2.png,0,even,Win32,144,122525,119510,144,144,199569,201081,194573,124042,194573,144,,,,,,visual_patterns,0,0,0,yes,1366
undefined,undefined,undefined,undefined,white,no,Mozilla,Netscape,"5.0 (Windows NT 10.0; Win64; x64) AppleWebKit/537.36 (KHTML, like Gecko) Chrome/98.0.4758.102 Safari/537.36",xpyriment,legacy,legacy,0,uniform,0,0,0,0,24,24,24,0,0,5,5,5,5,5,0,5,0,,,,,,0,,02-02-22,02-02-22,13:41:43,Wed Mar 02 2022 13:41:43 GMT+0100 (Central European Standard Time),The main experiment item,yes,0,0,C:/Users/rrics/Documents/!!ResearchBMECOGSCI/gnet,0,0,0,prototype2.png,no,mono,no,18,no,black,no,no,768,1166,3.5.6,legacy,xpyriment,osweb,1.3.13,0,space,space,space,,44364,10609,44364,,2,legacy,824,1536,24,864,24,0,0,1536,1646224924457,1024,2,48000,-16,experiment,p4sarrshacol2.png,0,even,Win32,144,122525,119510,144,144,206095,207610,201098,124042,201098,144,,,,,,visual_patterns,0,0,0,yes,1366
undefined,undefined,undefined,undefined,white,no,Mozilla,Netscape,"5.0 (Windows NT 10.0; Win64; x64) AppleWebKit/537.36 (KHTML, like Gecko) Chrome/98.0.4758.102 Safari/537.36",xpyriment,legacy,legacy,0,uniform,0,0,0,0,24,24,24,0,0,6,6,6,6,6,0,6,0,,,,,,0,,02-02-22,02-02-22,13:41:43,Wed Mar 02 2022 13:41:43 GMT+0100 (Central European Standard Time),The main experiment item,yes,0,0,C:/Users/rrics/Documents/!!ResearchBMECOGSCI/gnet,0,0,0,prototype2.png,no,mono,no,18,no,black,no,no,768,1166,3.5.6,legacy,xpyriment,osweb,1.3.13,0,space,space,space,,44364,10609,44364,,2,legacy,824,1536,24,864,24,0,0,1536,1646224924457,1024,2,48000,-16,experiment,p5sarrsha2.png,0,even,Win32,144,122525,119510,144,144,212625,214130,207623,124042,207623,144,,,,,,visual_patterns,0,0,0,yes,1366
undefined,undefined,undefined,undefined,white,no,Mozilla,Netscape,"5.0 (Windows NT 10.0; Win64; x64) AppleWebKit/537.36 (KHTML, like Gecko) Chrome/98.0.4758.102 Safari/537.36",xpyriment,legacy,legacy,0,uniform,0,0,0,0,24,24,24,0,0,7,7,7,7,7,0,7,0,,,,,,0,,02-02-22,02-02-22,13:41:43,Wed Mar 02 2022 13:41:43 GMT+0100 (Central European Standard Time),The main experiment item,yes,0,0,C:/Users/rrics/Documents/!!ResearchBMECOGSCI/gnet,0,0,0,prototype2.png,no,mono,no,18,no,black,no,no,768,1166,3.5.6,legacy,xpyriment,osweb,1.3.13,0,space,space,space,,44364,10609,44364,,2,legacy,824,1536,24,864,24,0,0,1536,1646224924457,1024,2,48000,-16,experiment,p2sarr1.png,0,even,Win32,144,122525,119510,144,144,219147,220653,214143,124042,214143,144,,,,,,visual_patterns,0,0,0,yes,1366
undefined,undefined,undefined,undefined,white,no,Mozilla,Netscape,"5.0 (Windows NT 10.0; Win64; x64) AppleWebKit/537.36 (KHTML, like Gecko) Chrome/98.0.4758.102 Safari/537.36",xpyriment,legacy,legacy,0,uniform,0,0,0,0,24,24,24,0,0,8,8,8,8,8,0,8,0,,,,,,0,,02-02-22,02-02-22,13:41:43,Wed Mar 02 2022 13:41:43 GMT+0100 (Central European Standard Time),The main experiment item,yes,0,0,C:/Users/rrics/Documents/!!ResearchBMECOGSCI/gnet,0,0,0,prototype2.png,no,mono,no,18,no,black,no,no,768,1166,3.5.6,legacy,xpyriment,osweb,1.3.13,0,space,space,space,,44364,10609,44364,,2,legacy,824,1536,24,864,24,0,0,1536,1646224924457,1024,2,48000,-16,experiment,prototype4.png,0,even,Win32,144,122525,119510,144,144,225663,227166,220663,124042,220663,144,,,,,,visual_patterns,0,0,0,yes,1366
undefined,undefined,undefined,undefined,white,no,Mozilla,Netscape,"5.0 (Windows NT 10.0; Win64; x64) AppleWebKit/537.36 (KHTML, like Gecko) Chrome/98.0.4758.102 Safari/537.36",xpyriment,legacy,legacy,0,uniform,0,0,0,0,24,24,24,0,0,9,9,9,9,9,0,9,0,,,,,,0,,02-02-22,02-02-22,13:41:43,Wed Mar 02 2022 13:41:43 GMT+0100 (Central European Standard Time),The main experiment item,yes,0,0,C:/Users/rrics/Documents/!!ResearchBMECOGSCI/gnet,0,0,0,prototype2.png,no,mono,no,18,no,black,no,no,768,1166,3.5.6,legacy,xpyriment,osweb,1.3.13,0,space,space,space,,44364,10609,44364,,2,legacy,824,1536,24,864,24,0,0,1536,1646224924457,1024,2,48000,-16,experiment,p5sarrsha1.png,0,even,Win32,144,122525,119510,144,144,232185,233696,227189,124042,227189,144,,,,,,visual_patterns,0,0,0,yes,1366
undefined,undefined,undefined,undefined,white,no,Mozilla,Netscape,"5.0 (Windows NT 10.0; Win64; x64) AppleWebKit/537.36 (KHTML, like Gecko) Chrome/98.0.4758.102 Safari/537.36",xpyriment,legacy,legacy,0,uniform,0,0,0,0,24,24,24,0,0,10,10,10,10,10,0,10,0,,,,,,0,,02-02-22,02-02-22,13:41:43,Wed Mar 02 2022 13:41:43 GMT+0100 (Central European Standard Time),The main experiment item,yes,0,0,C:/Users/rrics/Documents/!!ResearchBMECOGSCI/gnet,0,0,0,prototype2.png,no,mono,no,18,no,black,no,no,768,1166,3.5.6,legacy,xpyriment,osweb,1.3.13,0,space,space,space,,44364,10609,44364,,2,legacy,824,1536,24,864,24,0,0,1536,1646224924457,1024,2,48000,-16,experiment,p5sarrcol1.png,0,even,Win32,144,122525,119510,144,144,238710,240225,233710,124042,233710,144,,,,,,visual_patterns,0,0,0,yes,1366
undefined,undefined,undefined,undefined,white,no,Mozilla,Netscape,"5.0 (Windows NT 10.0; Win64; x64) AppleWebKit/537.36 (KHTML, like Gecko) Chrome/98.0.4758.102 Safari/537.36",xpyriment,legacy,legacy,0,uniform,0,0,0,0,24,24,24,0,0,11,11,11,11,11,0,11,0,,,,,,0,,02-02-22,02-02-22,13:41:43,Wed Mar 02 2022 13:41:43 GMT+0100 (Central European Standard Time),The main experiment item,yes,0,0,C:/Users/rrics/Documents/!!ResearchBMECOGSCI/gnet,0,0,0,prototype2.png,no,mono,no,18,no,black,no,no,768,1166,3.5.6,legacy,xpyriment,osweb,1.3.13,0,space,space,space,,44364,10609,44364,,2,legacy,824,1536,24,864,24,0,0,1536,1646224924457,1024,2,48000,-16,experiment,p8sarr2.png,0,even,Win32,144,122525,119510,144,144,245240,246755,240239,124042,240238,144,,,,,,visual_patterns,0,0,0,yes,1366
undefined,undefined,undefined,undefined,white,no,Mozilla,Netscape,"5.0 (Windows NT 10.0; Win64; x64) AppleWebKit/537.36 (KHTML, like Gecko) Chrome/98.0.4758.102 Safari/537.36",xpyriment,legacy,legacy,0,uniform,0,0,0,0,24,24,24,0,0,12,12,12,12,12,0,12,0,,,,,,0,,02-02-22,02-02-22,13:41:43,Wed Mar 02 2022 13:41:43 GMT+0100 (Central European Standard Time),The main experiment item,yes,0,0,C:/Users/rrics/Documents/!!ResearchBMECOGSCI/gnet,0,0,0,prototype2.png,no,mono,no,18,no,black,no,no,768,1166,3.5.6,legacy,xpyriment,osweb,1.3.13,0,space,space,space,,44364,10609,44364,,2,legacy,824,1536,24,864,24,0,0,1536,1646224924457,1024,2,48000,-16,experiment,p5sarrshacol2.png,0,even,Win32,144,122525,119510,144,144,251766,253268,246769,124042,246769,144,,,,,,visual_patterns,0,0,0,yes,1366
undefined,undefined,undefined,undefined,white,no,Mozilla,Netscape,"5.0 (Windows NT 10.0; Win64; x64) AppleWebKit/537.36 (KHTML, like Gecko) Chrome/98.0.4758.102 Safari/537.36",xpyriment,legacy,legacy,0,uniform,0,0,0,0,24,24,24,0,0,13,13,13,13,13,0,13,0,,,,,,0,,02-02-22,02-02-22,13:41:43,Wed Mar 02 2022 13:41:43 GMT+0100 (Central European Standard Time),The main experiment item,yes,0,0,C:/Users/rrics/Documents/!!ResearchBMECOGSCI/gnet,0,0,0,prototype2.png,no,mono,no,18,no,black,no,no,768,1166,3.5.6,legacy,xpyriment,osweb,1.3.13,0,space,space,space,,44364,10609,44364,,2,legacy,824,1536,24,864,24,0,0,1536,1646224924457,1024,2,48000,-16,experiment,p8sarr1.png,0,even,Win32,144,122525,119510,144,144,258279,259782,253281,124042,253281,144,,,,,,visual_patterns,0,0,0,yes,1366
undefined,undefined,undefined,undefined,white,no,Mozilla,Netscape,"5.0 (Windows NT 10.0; Win64; x64) AppleWebKit/537.36 (KHTML, like Gecko) Chrome/98.0.4758.102 Safari/537.36",xpyriment,legacy,legacy,0,uniform,0,0,0,0,24,24,24,0,0,14,14,14,14,14,0,14,0,,,,,,0,,02-02-22,02-02-22,13:41:43,Wed Mar 02 2022 13:41:43 GMT+0100 (Central European Standard Time),The main experiment item,yes,0,0,C:/Users/rrics/Documents/!!ResearchBMECOGSCI/gnet,0,0,0,prototype2.png,no,mono,no,18,no,black,no,no,768,1166,3.5.6,legacy,xpyriment,osweb,1.3.13,0,space,space,space,,44364,10609,44364,,2,legacy,824,1536,24,864,24,0,0,1536,1646224924457,1024,2,48000,-16,experiment,p3sarrcol1.png,0,even,Win32,144,122525,119510,144,144,264796,266311,259795,124042,259795,144,,,,,,visual_patterns,0,0,0,yes,1366
undefined,undefined,undefined,undefined,white,no,Mozilla,Netscape,"5.0 (Windows NT 10.0; Win64; x64) AppleWebKit/537.36 (KHTML, like Gecko) Chrome/98.0.4758.102 Safari/537.36",xpyriment,legacy,legacy,0,uniform,0,0,0,0,24,24,24,0,0,15,15,15,15,15,0,15,0,,,,,,0,,02-02-22,02-02-22,13:41:43,Wed Mar 02 2022 13:41:43 GMT+0100 (Central European Standard Time),The main experiment item,yes,0,0,C:/Users/rrics/Documents/!!ResearchBMECOGSCI/gnet,0,0,0,prototype2.png,no,mono,no,18,no,black,no,no,768,1166,3.5.6,legacy,xpyriment,osweb,1.3.13,0,space,space,space,,44364,10609,44364,,2,legacy,824,1536,24,864,24,0,0,1536,1646224924457,1024,2,48000,-16,experiment,prototype1.png,0,even,Win32,144,122525,119510,144,144,271325,272841,266323,124042,266323,144,,,,,,visual_patterns,0,0,0,yes,1366
undefined,undefined,undefined,undefined,white,no,Mozilla,Netscape,"5.0 (Windows NT 10.0; Win64; x64) AppleWebKit/537.36 (KHTML, like Gecko) Chrome/98.0.4758.102 Safari/537.36",xpyriment,legacy,legacy,0,uniform,0,0,0,0,24,24,24,0,0,16,16,16,16,16,0,16,0,,,,,,0,,02-02-22,02-02-22,13:41:43,Wed Mar 02 2022 13:41:43 GMT+0100 (Central European Standard Time),The main experiment item,yes,0,0,C:/Users/rrics/Documents/!!ResearchBMECOGSCI/gnet,0,0,0,prototype2.png,no,mono,no,18,no,black,no,no,768,1166,3.5.6,legacy,xpyriment,osweb,1.3.13,0,space,space,space,,44364,10609,44364,,2,legacy,824,1536,24,864,24,0,0,1536,1646224924457,1024,2,48000,-16,experiment,p2sarr2.png,0,even,Win32,144,122525,119510,144,144,277856,279371,272859,124042,272859,144,,,,,,visual_patterns,0,0,0,yes,1366
undefined,undefined,undefined,undefined,white,no,Mozilla,Netscape,"5.0 (Windows NT 10.0; Win64; x64) AppleWebKit/537.36 (KHTML, like Gecko) Chrome/98.0.4758.102 Safari/537.36",xpyriment,legacy,legacy,0,uniform,0,0,0,0,24,24,24,0,0,17,17,17,17,17,0,17,0,,,,,,0,,02-02-22,02-02-22,13:41:43,Wed Mar 02 2022 13:41:43 GMT+0100 (Central European Standard Time),The main experiment item,yes,0,0,C:/Users/rrics/Documents/!!ResearchBMECOGSCI/gnet,0,0,0,prototype2.png,no,mono,no,18,no,black,no,no,768,1166,3.5.6,legacy,xpyriment,osweb,1.3.13,0,space,space,space,,44364,10609,44364,,2,legacy,824,1536,24,864,24,0,0,1536,1646224924457,1024,2,48000,-16,experiment,p3sarrsha2.png,0,even,Win32,144,122525,119510,144,144,284384,285892,279386,124042,279386,144,,,,,,visual_patterns,0,0,0,yes,1366
undefined,undefined,undefined,undefined,white,no,Mozilla,Netscape,"5.0 (Windows NT 10.0; Win64; x64) AppleWebKit/537.36 (KHTML, like Gecko) Chrome/98.0.4758.102 Safari/537.36",xpyriment,legacy,legacy,0,uniform,0,0,0,0,24,24,24,0,0,18,18,18,18,18,0,18,0,,,,,,0,,02-02-22,02-02-22,13:41:43,Wed Mar 02 2022 13:41:43 GMT+0100 (Central European Standard Time),The main experiment item,yes,0,0,C:/Users/rrics/Documents/!!ResearchBMECOGSCI/gnet,0,0,0,prototype2.png,no,mono,no,18,no,black,no,no,768,1166,3.5.6,legacy,xpyriment,osweb,1.3.13,0,space,space,space,,44364,10609,44364,,2,legacy,824,1536,24,864,24,0,0,1536,1646224924457,1024,2,48000,-16,experiment,prototype4.png,0,even,Win32,144,122525,119510,144,144,290904,292414,285902,124042,285902,144,,,,,,visual_patterns,0,0,0,yes,1366
undefined,undefined,undefined,undefined,white,no,Mozilla,Netscape,"5.0 (Windows NT 10.0; Win64; x64) AppleWebKit/537.36 (KHTML, like Gecko) Chrome/98.0.4758.102 Safari/537.36",xpyriment,legacy,legacy,0,uniform,0,0,0,0,24,24,24,0,0,19,19,19,19,19,0,19,0,,,,,,0,,02-02-22,02-02-22,13:41:43,Wed Mar 02 2022 13:41:43 GMT+0100 (Central European Standard Time),The main experiment item,yes,0,0,C:/Users/rrics/Documents/!!ResearchBMECOGSCI/gnet,0,0,0,prototype2.png,no,mono,no,18,no,black,no,no,768,1166,3.5.6,legacy,xpyriment,osweb,1.3.13,0,space,space,space,,44364,10609,44364,,2,legacy,824,1536,24,864,24,0,0,1536,1646224924457,1024,2,48000,-16,experiment,p3sarrsha1.png,0,even,Win32,144,122525,119510,144,144,297429,298943,292429,124042,292429,144,,,,,,visual_patterns,0,0,0,yes,1366
undefined,undefined,undefined,undefined,white,no,Mozilla,Netscape,"5.0 (Windows NT 10.0; Win64; x64) AppleWebKit/537.36 (KHTML, like Gecko) Chrome/98.0.4758.102 Safari/537.36",xpyriment,legacy,legacy,0,uniform,0,0,0,0,24,24,24,0,0,20,20,20,20,20,0,20,0,,,,,,0,,02-02-22,02-02-22,13:41:43,Wed Mar 02 2022 13:41:43 GMT+0100 (Central European Standard Time),The main experiment item,yes,0,0,C:/Users/rrics/Documents/!!ResearchBMECOGSCI/gnet,0,0,0,prototype2.png,no,mono,no,18,no,black,no,no,768,1166,3.5.6,legacy,xpyriment,osweb,1.3.13,0,space,space,space,,44364,10609,44364,,2,legacy,824,1536,24,864,24,0,0,1536,1646224924457,1024,2,48000,-16,experiment,prototype2.png,0,even,Win32,144,122525,119510,144,144,303975,305490,298970,124042,298969,144,,,,,,visual_patterns,0,0,0,yes,1366
undefined,undefined,undefined,undefined,white,no,Mozilla,Netscape,"5.0 (Windows NT 10.0; Win64; x64) AppleWebKit/537.36 (KHTML, like Gecko) Chrome/98.0.4758.102 Safari/537.36",xpyriment,legacy,legacy,0,uniform,0,0,0,0,24,24,24,0,0,21,21,21,21,21,0,21,0,,,,,,0,,02-02-22,02-02-22,13:41:43,Wed Mar 02 2022 13:41:43 GMT+0100 (Central European Standard Time),The main experiment item,yes,0,0,C:/Users/rrics/Documents/!!ResearchBMECOGSCI/gnet,0,0,0,prototype2.png,no,mono,no,18,no,black,no,no,768,1166,3.5.6,legacy,xpyriment,osweb,1.3.13,0,space,space,space,,44364,10609,44364,,2,legacy,824,1536,24,864,24,0,0,1536,1646224924457,1024,2,48000,-16,experiment,p4sarrcol2.png,0,even,Win32,144,122525,119510,144,144,310504,312019,305508,124042,305508,144,,,,,,visual_patterns,0,0,0,yes,1366
undefined,undefined,undefined,undefined,white,no,Mozilla,Netscape,"5.0 (Windows NT 10.0; Win64; x64) AppleWebKit/537.36 (KHTML, like Gecko) Chrome/98.0.4758.102 Safari/537.36",xpyriment,legacy,legacy,0,uniform,0,0,0,0,24,24,24,0,0,22,22,22,22,22,0,22,0,,,,,,0,,02-02-22,02-02-22,13:41:43,Wed Mar 02 2022 13:41:43 GMT+0100 (Central European Standard Time),The main experiment item,yes,0,0,C:/Users/rrics/Documents/!!ResearchBMECOGSCI/gnet,0,0,0,prototype2.png,no,mono,no,18,no,black,no,no,768,1166,3.5.6,legacy,xpyriment,osweb,1.3.13,0,space,space,space,,44364,10609,44364,,2,legacy,824,1536,24,864,24,0,0,1536,1646224924457,1024,2,48000,-16,experiment,p5sarrshacol1.png,0,even,Win32,144,122525,119510,144,144,317031,318533,312033,124042,312033,144,,,,,,visual_patterns,0,0,0,yes,1366
undefined,undefined,undefined,undefined,white,no,Mozilla,Netscape,"5.0 (Windows NT 10.0; Win64; x64) AppleWebKit/537.36 (KHTML, like Gecko) Chrome/98.0.4758.102 Safari/537.36",xpyriment,legacy,legacy,0,uniform,0,0,0,0,24,24,24,0,0,23,23,23,23,23,0,23,0,,,,,,0,,02-02-22,02-02-22,13:41:43,Wed Mar 02 2022 13:41:43 GMT+0100 (Central European Standard Time),The main experiment item,yes,0,0,C:/Users/rrics/Documents/!!ResearchBMECOGSCI/gnet,0,0,0,prototype2.png,no,mono,no,18,no,black,no,no,768,1166,3.5.6,legacy,xpyriment,osweb,1.3.13,0,space,space,space,,44364,10609,44364,,2,legacy,824,1536,24,864,24,0,0,1536,1646224924457,1024,2,48000,-16,experiment,prototype2.png,0,even,Win32,144,122525,119510,144,144,323546,325069,318544,124042,318544,144,,,,,,visual_patterns,0,0,0,yes,1366
undefined,undefined,undefined,undefined,white,no,Mozilla,Netscape,"5.0 (Windows NT 10.0; Win64; x64) AppleWebKit/537.36 (KHTML, like Gecko) Chrome/98.0.4758.102 Safari/537.36",xpyriment,legacy,legacy,0,uniform,0,0,0,0,24,24,24,0,0,24,24,24,24,24,0,24,0,,,,,,0,,02-02-22,02-02-22,13:41:43,Wed Mar 02 2022 13:41:43 GMT+0100 (Central European Standard Time),The main experiment item,yes,0,0,C:/Users/rrics/Documents/!!ResearchBMECOGSCI/gnet,0,0,0,prototype2.png,no,mono,no,18,no,black,no,no,768,1166,3.5.6,legacy,xpyriment,osweb,1.3.13,0,space,space,space,,44364,10609,44364,,2,legacy,824,1536,24,864,24,0,0,1536,1646224924457,1024,2,48000,-16,experiment,p4sarrsha2.png,0,even,Win32,144,122525,119510,144,144,330082,331592,325084,124042,325084,144,,,,,,visual_patterns,0,0,0,yes,1366
undefined,undefined,undefined,undefined,white,no,Mozilla,Netscape,"5.0 (Windows NT 10.0; Win64; x64) AppleWebKit/537.36 (KHTML, like Gecko) Chrome/98.0.4758.102 Safari/537.36",xpyriment,legacy,legacy,0,uniform,0,0,0,0,24,24,24,0,0,25,25,25,25,25,0,25,0,,,,,,0,,02-02-22,02-02-22,13:41:43,Wed Mar 02 2022 13:41:43 GMT+0100 (Central European Standard Time),The main experiment item,yes,0,0,C:/Users/rrics/Documents/!!ResearchBMECOGSCI/gnet,0,0,0,prototype2.png,no,mono,no,18,no,black,no,no,768,1166,3.5.6,legacy,xpyriment,osweb,1.3.13,0,space,space,space,,44364,10609,44364,,2,legacy,824,1536,24,864,24,0,0,1536,1646224924457,1024,2,48000,-16,experiment,p9sarr1.png,0,even,Win32,144,122525,119510,144,144,336623,338129,331625,124042,331624,144,,,,,,visual_patterns,0,0,0,yes,1366
undefined,undefined,undefined,undefined,white,no,Mozilla,Netscape,"5.0 (Windows NT 10.0; Win64; x64) AppleWebKit/537.36 (KHTML, like Gecko) Chrome/98.0.4758.102 Safari/537.36",xpyriment,legacy,legacy,0,uniform,0,0,0,0,24,24,24,0,0,26,26,26,26,26,0,26,0,,,,,,0,,02-02-22,02-02-22,13:41:43,Wed Mar 02 2022 13:41:43 GMT+0100 (Central European Standard Time),The main experiment item,yes,0,0,C:/Users/rrics/Documents/!!ResearchBMECOGSCI/gnet,0,0,0,prototype2.png,no,mono,no,18,no,black,no,no,768,1166,3.5.6,legacy,xpyriment,osweb,1.3.13,0,space,space,space,,44364,10609,44364,,2,legacy,824,1536,24,864,24,0,0,1536,1646224924457,1024,2,48000,-16,experiment,prototype1.png,0,even,Win32,144,122525,119510,144,144,343141,344655,338140,124042,338140,144,,,,,,visual_patterns,0,0,0,yes,1366
undefined,undefined,undefined,undefined,white,no,Mozilla,Netscape,"5.0 (Windows NT 10.0; Win64; x64) AppleWebKit/537.36 (KHTML, like Gecko) Chrome/98.0.4758.102 Safari/537.36",xpyriment,legacy,legacy,0,uniform,0,0,0,0,24,24,24,0,0,27,27,27,27,27,0,27,0,,,,,,0,,02-02-22,02-02-22,13:41:43,Wed Mar 02 2022 13:41:43 GMT+0100 (Central European Standard Time),The main experiment item,yes,0,0,C:/Users/rrics/Documents/!!ResearchBMECOGSCI/gnet,0,0,0,prototype2.png,no,mono,no,18,no,black,no,no,768,1166,3.5.6,legacy,xpyriment,osweb,1.3.13,0,space,space,space,,44364,10609,44364,,2,legacy,824,1536,24,864,24,0,0,1536,1646224924457,1024,2,48000,-16,experiment,p4sarrcol1.png,0,even,Win32,144,122525,119510,144,144,349665,351181,344671,124042,344671,144,,,,,,visual_patterns,0,0,0,yes,1366
undefined,undefined,undefined,undefined,white,no,Mozilla,Netscape,"5.0 (Windows NT 10.0; Win64; x64) AppleWebKit/537.36 (KHTML, like Gecko) Chrome/98.0.4758.102 Safari/537.36",xpyriment,legacy,legacy,0,uniform,0,0,0,0,24,24,24,0,0,28,28,28,28,28,0,28,0,,,,,,0,,02-02-22,02-02-22,13:41:43,Wed Mar 02 2022 13:41:43 GMT+0100 (Central European Standard Time),The main experiment item,yes,0,0,C:/Users/rrics/Documents/!!ResearchBMECOGSCI/gnet,0,0,0,prototype2.png,no,mono,no,18,no,black,no,no,768,1166,3.5.6,legacy,xpyriment,osweb,1.3.13,0,space,space,space,,44364,10609,44364,,2,legacy,824,1536,24,864,24,0,0,1536,1646224924457,1024,2,48000,-16,experiment,prototype4.png,0,even,Win32,144,122525,119510,144,144,356193,357695,351192,124042,351192,144,,,,,,visual_patterns,0,0,0,yes,1366
undefined,undefined,undefined,undefined,white,no,Mozilla,Netscape,"5.0 (Windows NT 10.0; Win64; x64) AppleWebKit/537.36 (KHTML, like Gecko) Chrome/98.0.4758.102 Safari/537.36",xpyriment,legacy,legacy,0,uniform,0,0,0,0,24,24,24,0,0,29,29,29,29,29,0,29,0,,,,,,0,,02-02-22,02-02-22,13:41:43,Wed Mar 02 2022 13:41:43 GMT+0100 (Central European Standard Time),The main experiment item,yes,0,0,C:/Users/rrics/Documents/!!ResearchBMECOGSCI/gnet,0,0,0,prototype2.png,no,mono,no,18,no,black,no,no,768,1166,3.5.6,legacy,xpyriment,osweb,1.3.13,0,space,space,space,,44364,10609,44364,,2,legacy,824,1536,24,864,24,0,0,1536,1646224924457,1024,2,48000,-16,experiment,prototype5.png,0,even,Win32,144,122525,119510,144,144,362713,364224,357710,124042,357710,144,,,,,,visual_patterns,0,0,0,yes,1366
undefined,undefined,undefined,undefined,white,no,Mozilla,Netscape,"5.0 (Windows NT 10.0; Win64; x64) AppleWebKit/537.36 (KHTML, like Gecko) Chrome/98.0.4758.102 Safari/537.36",xpyriment,legacy,legacy,0,uniform,0,0,0,0,24,24,24,0,0,30,30,30,30,30,0,30,0,,,,,,0,,02-02-22,02-02-22,13:41:43,Wed Mar 02 2022 13:41:43 GMT+0100 (Central European Standard Time),The main experiment item,yes,0,0,C:/Users/rrics/Documents/!!ResearchBMECOGSCI/gnet,0,0,0,prototype2.png,no,mono,no,18,no,black,no,no,768,1166,3.5.6,legacy,xpyriment,osweb,1.3.13,0,space,space,space,,44364,10609,44364,,2,legacy,824,1536,24,864,24,0,0,1536,1646224924457,1024,2,48000,-16,experiment,p5sarrcol2.png,0,even,Win32,144,122525,119510,144,144,369250,370757,364252,124042,364252,144,,,,,,visual_patterns,0,0,0,yes,1366
undefined,undefined,undefined,undefined,white,no,Mozilla,Netscape,"5.0 (Windows NT 10.0; Win64; x64) AppleWebKit/537.36 (KHTML, like Gecko) Chrome/98.0.4758.102 Safari/537.36",xpyriment,legacy,legacy,0,uniform,0,0,0,0,24,24,24,0,0,31,31,31,31,31,0,31,0,,,,,,0,,02-02-22,02-02-22,13:41:43,Wed Mar 02 2022 13:41:43 GMT+0100 (Central European Standard Time),The main experiment item,yes,0,0,C:/Users/rrics/Documents/!!ResearchBMECOGSCI/gnet,0,0,0,prototype2.png,no,mono,no,18,no,black,no,no,768,1166,3.5.6,legacy,xpyriment,osweb,1.3.13,0,space,space,space,,44364,10609,44364,,2,legacy,824,1536,24,864,24,0,0,1536,1646224924457,1024,2,48000,-16,experiment,p2sarrsha2.png,0,even,Win32,144,122525,119510,144,144,375768,377284,370769,124042,370769,144,,,,,,visual_patterns,0,0,0,yes,1366
undefined,undefined,undefined,undefined,white,no,Mozilla,Netscape,"5.0 (Windows NT 10.0; Win64; x64) AppleWebKit/537.36 (KHTML, like Gecko) Chrome/98.0.4758.102 Safari/537.36",xpyriment,legacy,legacy,0,uniform,0,0,0,0,24,24,24,0,0,32,32,32,32,32,0,32,0,,,,,,0,,02-02-22,02-02-22,13:41:43,Wed Mar 02 2022 13:41:43 GMT+0100 (Central European Standard Time),The main experiment item,yes,0,0,C:/Users/rrics/Documents/!!ResearchBMECOGSCI/gnet,0,0,0,prototype2.png,no,mono,no,18,no,black,no,no,768,1166,3.5.6,legacy,xpyriment,osweb,1.3.13,0,space,space,space,,44364,10609,44364,,2,legacy,824,1536,24,864,24,0,0,1536,1646224924457,1024,2,48000,-16,experiment,p5sarr1.png,0,even,Win32,144,122525,119510,144,144,382297,383814,377297,124042,377297,144,,,,,,visual_patterns,0,0,0,yes,1366
undefined,undefined,undefined,undefined,white,no,Mozilla,Netscape,"5.0 (Windows NT 10.0; Win64; x64) AppleWebKit/537.36 (KHTML, like Gecko) Chrome/98.0.4758.102 Safari/537.36",xpyriment,legacy,legacy,0,uniform,0,0,0,0,24,24,24,0,0,33,33,33,33,33,0,33,0,,,,,,0,,02-02-22,02-02-22,13:41:43,Wed Mar 02 2022 13:41:43 GMT+0100 (Central European Standard Time),The main experiment item,yes,0,0,C:/Users/rrics/Documents/!!ResearchBMECOGSCI/gnet,0,0,0,prototype2.png,no,mono,no,18,no,black,no,no,768,1166,3.5.6,legacy,xpyriment,osweb,1.3.13,0,space,space,space,,44364,10609,44364,,2,legacy,824,1536,24,864,24,0,0,1536,1646224924457,1024,2,48000,-16,experiment,p3sarrshacol1.png,0,even,Win32,144,122525,119510,144,144,388827,390343,383831,124042,383831,144,,,,,,visual_patterns,0,0,0,yes,1366
undefined,undefined,undefined,undefined,white,no,Mozilla,Netscape,"5.0 (Windows NT 10.0; Win64; x64) AppleWebKit/537.36 (KHTML, like Gecko) Chrome/98.0.4758.102 Safari/537.36",xpyriment,legacy,legacy,0,uniform,0,0,0,0,24,24,24,0,0,34,34,34,34,34,0,34,0,,,,,,0,,02-02-22,02-02-22,13:41:43,Wed Mar 02 2022 13:41:43 GMT+0100 (Central European Standard Time),The main experiment item,yes,0,0,C:/Users/rrics/Documents/!!ResearchBMECOGSCI/gnet,0,0,0,prototype2.png,no,mono,no,18,no,black,no,no,768,1166,3.5.6,legacy,xpyriment,osweb,1.3.13,0,space,space,space,,44364,10609,44364,,2,legacy,824,1536,24,864,24,0,0,1536,1646224924457,1024,2,48000,-16,experiment,prototype1.png,0,even,Win32,144,122525,119510,144,144,395356,396872,390353,124042,390353,144,,,,,,visual_patterns,0,0,0,yes,1366
undefined,undefined,undefined,undefined,white,no,Mozilla,Netscape,"5.0 (Windows NT 10.0; Win64; x64) AppleWebKit/537.36 (KHTML, like Gecko) Chrome/98.0.4758.102 Safari/537.36",xpyriment,legacy,legacy,0,uniform,0,0,0,0,24,24,24,0,0,35,35,35,35,35,0,35,0,,,,,,0,,02-02-22,02-02-22,13:41:43,Wed Mar 02 2022 13:41:43 GMT+0100 (Central European Standard Time),The main experiment item,yes,0,0,C:/Users/rrics/Documents/!!ResearchBMECOGSCI/gnet,0,0,0,prototype2.png,no,mono,no,18,no,black,no,no,768,1166,3.5.6,legacy,xpyriment,osweb,1.3.13,0,space,space,space,,44364,10609,44364,,2,legacy,824,1536,24,864,24,0,0,1536,1646224924457,1024,2,48000,-16,experiment,p4sarrshacol1.png,0,even,Win32,144,122525,119510,144,144,401899,403403,396901,124042,396901,144,,,,,,visual_patterns,0,0,0,yes,1366
undefined,undefined,undefined,undefined,white,no,Mozilla,Netscape,"5.0 (Windows NT 10.0; Win64; x64) AppleWebKit/537.36 (KHTML, like Gecko) Chrome/98.0.4758.102 Safari/537.36",xpyriment,legacy,legacy,0,uniform,0,0,0,0,24,24,24,0,0,36,36,36,36,36,0,36,0,,,,,,0,,02-02-22,02-02-22,13:41:43,Wed Mar 02 2022 13:41:43 GMT+0100 (Central European Standard Time),The main experiment item,yes,0,0,C:/Users/rrics/Documents/!!ResearchBMECOGSCI/gnet,0,0,0,prototype2.png,no,mono,no,18,no,black,no,no,768,1166,3.5.6,legacy,xpyriment,osweb,1.3.13,0,space,space,space,,44364,10609,44364,,2,legacy,824,1536,24,864,24,0,0,1536,1646224924457,1024,2,48000,-16,experiment,prototype3.png,0,even,Win32,144,122525,119510,144,144,408417,409932,403413,124042,403413,144,,,,,,visual_patterns,0,0,0,yes,1366
undefined,undefined,undefined,undefined,white,no,Mozilla,Netscape,"5.0 (Windows NT 10.0; Win64; x64) AppleWebKit/537.36 (KHTML, like Gecko) Chrome/98.0.4758.102 Safari/537.36",xpyriment,legacy,legacy,0,uniform,0,0,0,0,24,24,24,0,0,37,37,37,37,37,0,37,0,,,,,,0,,02-02-22,02-02-22,13:41:43,Wed Mar 02 2022 13:41:43 GMT+0100 (Central European Standard Time),The main experiment item,yes,0,0,C:/Users/rrics/Documents/!!ResearchBMECOGSCI/gnet,0,0,0,prototype2.png,no,mono,no,18,no,black,no,no,768,1166,3.5.6,legacy,xpyriment,osweb,1.3.13,0,space,space,space,,44364,10609,44364,,2,legacy,824,1536,24,864,24,0,0,1536,1646224924457,1024,2,48000,-16,experiment,prototype3.png,0,even,Win32,144,122525,119510,144,144,414946,416462,409947,124042,409946,144,,,,,,visual_patterns,0,0,0,yes,1366
undefined,undefined,undefined,undefined,white,no,Mozilla,Netscape,"5.0 (Windows NT 10.0; Win64; x64) AppleWebKit/537.36 (KHTML, like Gecko) Chrome/98.0.4758.102 Safari/537.36",xpyriment,legacy,legacy,0,uniform,0,0,0,0,24,24,24,0,0,38,38,38,38,38,0,38,0,,,,,,0,,02-02-22,02-02-22,13:41:43,Wed Mar 02 2022 13:41:43 GMT+0100 (Central European Standard Time),The main experiment item,yes,0,0,C:/Users/rrics/Documents/!!ResearchBMECOGSCI/gnet,0,0,0,prototype2.png,no,mono,no,18,no,black,no,no,768,1166,3.5.6,legacy,xpyriment,osweb,1.3.13,0,space,space,space,,44364,10609,44364,,2,legacy,824,1536,24,864,24,0,0,1536,1646224924457,1024,2,48000,-16,experiment,p7sarr1.png,0,even,Win32,144,122525,119510,144,144,421469,422975,416472,124042,416472,144,,,,,,visual_patterns,0,0,0,yes,1366
undefined,undefined,undefined,undefined,white,no,Mozilla,Netscape,"5.0 (Windows NT 10.0; Win64; x64) AppleWebKit/537.36 (KHTML, like Gecko) Chrome/98.0.4758.102 Safari/537.36",xpyriment,legacy,legacy,0,uniform,0,0,0,0,24,24,24,0,0,39,39,39,39,39,0,39,0,,,,,,0,,02-02-22,02-02-22,13:41:43,Wed Mar 02 2022 13:41:43 GMT+0100 (Central European Standard Time),The main experiment item,yes,0,0,C:/Users/rrics/Documents/!!ResearchBMECOGSCI/gnet,0,0,0,prototype2.png,no,mono,no,18,no,black,no,no,768,1166,3.5.6,legacy,xpyriment,osweb,1.3.13,0,space,space,space,,44364,10609,44364,,2,legacy,824,1536,24,864,24,0,0,1536,1646224924457,1024,2,48000,-16,experiment,p1sarrsha1.png,0,even,Win32,144,122525,119510,144,144,427994,429504,422990,124042,422990,144,,,,,,visual_patterns,0,0,0,yes,1366
undefined,undefined,undefined,undefined,white,no,Mozilla,Netscape,"5.0 (Windows NT 10.0; Win64; x64) AppleWebKit/537.36 (KHTML, like Gecko) Chrome/98.0.4758.102 Safari/537.36",xpyriment,legacy,legacy,0,uniform,0,0,0,0,24,24,24,0,0,40,40,40,40,40,0,40,0,,,,,,0,,02-02-22,02-02-22,13:41:43,Wed Mar 02 2022 13:41:43 GMT+0100 (Central European Standard Time),The main experiment item,yes,0,0,C:/Users/rrics/Documents/!!ResearchBMECOGSCI/gnet,0,0,0,prototype2.png,no,mono,no,18,no,black,no,no,768,1166,3.5.6,legacy,xpyriment,osweb,1.3.13,0,space,space,space,,44364,10609,44364,,2,legacy,824,1536,24,864,24,0,0,1536,1646224924457,1024,2,48000,-16,experiment,prototype5.png,0,even,Win32,144,122525,119510,144,144,434513,436017,429511,124042,429511,144,,,,,,visual_patterns,0,0,0,yes,1366
undefined,undefined,undefined,undefined,white,no,Mozilla,Netscape,"5.0 (Windows NT 10.0; Win64; x64) AppleWebKit/537.36 (KHTML, like Gecko) Chrome/98.0.4758.102 Safari/537.36",xpyriment,legacy,legacy,0,uniform,0,0,0,0,24,24,24,0,0,41,41,41,41,41,0,41,0,,,,,,0,,02-02-22,02-02-22,13:41:43,Wed Mar 02 2022 13:41:43 GMT+0100 (Central European Standard Time),The main experiment item,yes,0,0,C:/Users/rrics/Documents/!!ResearchBMECOGSCI/gnet,0,0,0,prototype2.png,no,mono,no,18,no,black,no,no,768,1166,3.5.6,legacy,xpyriment,osweb,1.3.13,0,space,space,space,,44364,10609,44364,,2,legacy,824,1536,24,864,24,0,0,1536,1646224924457,1024,2,48000,-16,experiment,p3sarrshacol2.png,0,even,Win32,144,122525,119510,144,144,441030,442531,436025,124042,436025,144,,,,,,visual_patterns,0,0,0,yes,1366
undefined,undefined,undefined,undefined,white,no,Mozilla,Netscape,"5.0 (Windows NT 10.0; Win64; x64) AppleWebKit/537.36 (KHTML, like Gecko) Chrome/98.0.4758.102 Safari/537.36",xpyriment,legacy,legacy,0,uniform,0,0,0,0,24,24,24,0,0,42,42,42,42,42,0,42,0,,,,,,0,,02-02-22,02-02-22,13:41:43,Wed Mar 02 2022 13:41:43 GMT+0100 (Central European Standard Time),The main experiment item,yes,0,0,C:/Users/rrics/Documents/!!ResearchBMECOGSCI/gnet,0,0,0,prototype2.png,no,mono,no,18,no,black,no,no,768,1166,3.5.6,legacy,xpyriment,osweb,1.3.13,0,space,space,space,,44364,10609,44364,,2,legacy,824,1536,24,864,24,0,0,1536,1646224924457,1024,2,48000,-16,experiment,p3sarrcol2.png,0,even,Win32,144,122525,119510,144,144,447541,449043,442540,124042,442540,144,,,,,,visual_patterns,0,0,0,yes,1366
undefined,undefined,undefined,undefined,white,no,Mozilla,Netscape,"5.0 (Windows NT 10.0; Win64; x64) AppleWebKit/537.36 (KHTML, like Gecko) Chrome/98.0.4758.102 Safari/537.36",xpyriment,legacy,legacy,0,uniform,0,0,0,0,24,24,24,0,0,43,43,43,43,43,0,43,0,,,,,,0,,02-02-22,02-02-22,13:41:43,Wed Mar 02 2022 13:41:43 GMT+0100 (Central European Standard Time),The main experiment item,yes,0,0,C:/Users/rrics/Documents/!!ResearchBMECOGSCI/gnet,0,0,0,prototype2.png,no,mono,no,18,no,black,no,no,768,1166,3.5.6,legacy,xpyriment,osweb,1.3.13,0,space,space,space,,44364,10609,44364,,2,legacy,824,1536,24,864,24,0,0,1536,1646224924457,1024,2,48000,-16,experiment,p3sarr2.png,0,even,Win32,144,122525,119510,144,144,454051,455557,449051,124042,449051,144,,,,,,visual_patterns,0,0,0,yes,1366
undefined,undefined,undefined,undefined,white,no,Mozilla,Netscape,"5.0 (Windows NT 10.0; Win64; x64) AppleWebKit/537.36 (KHTML, like Gecko) Chrome/98.0.4758.102 Safari/537.36",xpyriment,legacy,legacy,0,uniform,0,0,0,0,24,24,24,0,0,44,44,44,44,44,0,44,0,,,,,,0,,02-02-22,02-02-22,13:41:43,Wed Mar 02 2022 13:41:43 GMT+0100 (Central European Standard Time),The main experiment item,yes,0,0,C:/Users/rrics/Documents/!!ResearchBMECOGSCI/gnet,0,0,0,prototype2.png,no,mono,no,18,no,black,no,no,768,1166,3.5.6,legacy,xpyriment,osweb,1.3.13,0,space,space,space,,44364,10609,44364,,2,legacy,824,1536,24,864,24,0,0,1536,1646224924457,1024,2,48000,-16,experiment,p2sarrsha1.png,0,even,Win32,144,122525,119510,144,144,460564,462070,455566,124042,455566,144,,,,,,visual_patterns,0,0,0,yes,1366
undefined,undefined,undefined,undefined,white,no,Mozilla,Netscape,"5.0 (Windows NT 10.0; Win64; x64) AppleWebKit/537.36 (KHTML, like Gecko) Chrome/98.0.4758.102 Safari/537.36",xpyriment,legacy,legacy,0,uniform,0,0,0,0,24,24,24,0,0,45,45,45,45,45,0,45,0,,,,,,0,,02-02-22,02-02-22,13:41:43,Wed Mar 02 2022 13:41:43 GMT+0100 (Central European Standard Time),The main experiment item,yes,0,0,C:/Users/rrics/Documents/!!ResearchBMECOGSCI/gnet,0,0,0,prototype2.png,no,mono,no,18,no,black,no,no,768,1166,3.5.6,legacy,xpyriment,osweb,1.3.13,0,space,space,space,,44364,10609,44364,,2,legacy,824,1536,24,864,24,0,0,1536,1646224924457,1024,2,48000,-16,experiment,p4sarrsha1.png,0,even,Win32,144,122525,119510,144,144,467084,468600,462086,124042,462086,144,,,,,,visual_patterns,0,0,0,yes,1366
undefined,undefined,undefined,undefined,white,no,Mozilla,Netscape,"5.0 (Windows NT 10.0; Win64; x64) AppleWebKit/537.36 (KHTML, like Gecko) Chrome/98.0.4758.102 Safari/537.36",xpyriment,legacy,legacy,0,uniform,0,0,0,0,24,24,24,0,0,46,46,46,46,46,0,46,0,,,,,,0,,02-02-22,02-02-22,13:41:43,Wed Mar 02 2022 13:41:43 GMT+0100 (Central European Standard Time),The main experiment item,yes,0,0,C:/Users/rrics/Documents/!!ResearchBMECOGSCI/gnet,0,0,0,prototype2.png,no,mono,no,18,no,black,no,no,768,1166,3.5.6,legacy,xpyriment,osweb,1.3.13,0,space,space,space,,44364,10609,44364,,2,legacy,824,1536,24,864,24,0,0,1536,1646224924457,1024,2,48000,-16,experiment,p1sarrcol1.png,0,even,Win32,144,122525,119510,144,144,473615,475129,468612,124042,468612,144,,,,,,visual_patterns,0,0,0,yes,1366
undefined,undefined,undefined,undefined,white,no,Mozilla,Netscape,"5.0 (Windows NT 10.0; Win64; x64) AppleWebKit/537.36 (KHTML, like Gecko) Chrome/98.0.4758.102 Safari/537.36",xpyriment,legacy,legacy,0,uniform,0,0,0,0,24,24,24,0,0,47,47,47,47,47,0,47,0,,,,,,0,,02-02-22,02-02-22,13:41:43,Wed Mar 02 2022 13:41:43 GMT+0100 (Central European Standard Time),The main experiment item,yes,0,0,C:/Users/rrics/Documents/!!ResearchBMECOGSCI/gnet,0,0,0,prototype2.png,no,mono,no,18,no,black,no,no,768,1166,3.5.6,legacy,xpyriment,osweb,1.3.13,0,space,space,space,,44364,10609,44364,,2,legacy,824,1536,24,864,24,0,0,1536,1646224924457,1024,2,48000,-16,experiment,p1sarrsha2.png,0,even,Win32,144,122525,119510,144,144,480144,481667,475142,124042,475142,144,,,,,,visual_patterns,0,0,0,yes,1366
undefined,undefined,undefined,undefined,white,no,Mozilla,Netscape,"5.0 (Windows NT 10.0; Win64; x64) AppleWebKit/537.36 (KHTML, like Gecko) Chrome/98.0.4758.102 Safari/537.36",xpyriment,legacy,legacy,0,uniform,0,0,0,0,24,24,24,0,0,48,48,48,48,48,0,48,0,,,,,,0,,02-02-22,02-02-22,13:41:43,Wed Mar 02 2022 13:41:43 GMT+0100 (Central European Standard Time),The main experiment item,yes,0,0,C:/Users/rrics/Documents/!!ResearchBMECOGSCI/gnet,0,0,0,prototype2.png,no,mono,no,18,no,black,no,no,768,1166,3.5.6,legacy,xpyriment,osweb,1.3.13,0,space,space,space,,44364,10609,44364,,2,legacy,824,1536,24,864,24,0,0,1536,1646224924457,1024,2,48000,-16,experiment,p7sarr2.png,0,even,Win32,144,122525,119510,144,144,486679,488189,481680,124042,481680,144,,,,,,visual_patterns,0,0,0,yes,1366
undefined,undefined,undefined,undefined,white,no,Mozilla,Netscape,"5.0 (Windows NT 10.0; Win64; x64) AppleWebKit/537.36 (KHTML, like Gecko) Chrome/98.0.4758.102 Safari/537.36",xpyriment,legacy,legacy,0,uniform,0,0,0,0,24,24,24,0,0,49,49,49,49,49,0,49,0,,,,,,0,,02-02-22,02-02-22,13:41:43,Wed Mar 02 2022 13:41:43 GMT+0100 (Central European Standard Time),The main experiment item,yes,0,0,C:/Users/rrics/Documents/!!ResearchBMECOGSCI/gnet,0,0,0,prototype2.png,no,mono,no,18,no,black,no,no,768,1166,3.5.6,legacy,xpyriment,osweb,1.3.13,0,space,space,space,,44364,10609,44364,,2,legacy,824,1536,24,864,24,0,0,1536,1646224924457,1024,2,48000,-16,experiment,p4sarr1.png,0,even,Win32,144,122525,119510,144,144,493204,494719,488199,124042,488199,144,,,,,,visual_patterns,0,0,0,yes,1366
undefined,undefined,undefined,undefined,white,no,Mozilla,Netscape,"5.0 (Windows NT 10.0; Win64; x64) AppleWebKit/537.36 (KHTML, like Gecko) Chrome/98.0.4758.102 Safari/537.36",xpyriment,legacy,legacy,0,uniform,0,0,0,0,24,24,24,0,0,50,50,50,50,50,0,50,0,,,,,,0,,02-02-22,02-02-22,13:41:43,Wed Mar 02 2022 13:41:43 GMT+0100 (Central European Standard Time),The main experiment item,yes,0,0,C:/Users/rrics/Documents/!!ResearchBMECOGSCI/gnet,0,0,0,prototype2.png,no,mono,no,18,no,black,no,no,768,1166,3.5.6,legacy,xpyriment,osweb,1.3.13,0,space,space,space,,44364,10609,44364,,2,legacy,824,1536,24,864,24,0,0,1536,1646224924457,1024,2,48000,-16,experiment,p10sarr1.png,0,even,Win32,144,122525,119510,144,144,499750,501266,494751,124042,494751,144,,,,,,visual_patterns,0,0,0,yes,1366
undefined,undefined,undefined,undefined,white,no,Mozilla,Netscape,"5.0 (Windows NT 10.0; Win64; x64) AppleWebKit/537.36 (KHTML, like Gecko) Chrome/98.0.4758.102 Safari/537.36",xpyriment,legacy,legacy,0,uniform,0,0,0,0,24,24,24,0,0,51,51,51,51,51,0,51,0,,,,,,0,,02-02-22,02-02-22,13:41:43,Wed Mar 02 2022 13:41:43 GMT+0100 (Central European Standard Time),The main experiment item,yes,0,0,C:/Users/rrics/Documents/!!ResearchBMECOGSCI/gnet,0,0,0,prototype2.png,no,mono,no,18,no,black,no,no,768,1166,3.5.6,legacy,xpyriment,osweb,1.3.13,0,space,space,space,,44364,10609,44364,,2,legacy,824,1536,24,864,24,0,0,1536,1646224924457,1024,2,48000,-16,experiment,prototype3.png,0,even,Win32,144,122525,119510,144,144,506279,507795,501279,124042,501279,144,,,,,,visual_patterns,0,0,0,yes,1366
undefined,undefined,undefined,undefined,white,no,Mozilla,Netscape,"5.0 (Windows NT 10.0; Win64; x64) AppleWebKit/537.36 (KHTML, like Gecko) Chrome/98.0.4758.102 Safari/537.36",xpyriment,legacy,legacy,0,uniform,0,0,0,0,24,24,24,0,0,52,52,52,52,52,0,52,0,,,,,,0,,02-02-22,02-02-22,13:41:43,Wed Mar 02 2022 13:41:43 GMT+0100 (Central European Standard Time),The main experiment item,yes,0,0,C:/Users/rrics/Documents/!!ResearchBMECOGSCI/gnet,0,0,0,prototype2.png,no,mono,no,18,no,black,no,no,768,1166,3.5.6,legacy,xpyriment,osweb,1.3.13,0,space,space,space,,44364,10609,44364,,2,legacy,824,1536,24,864,24,0,0,1536,1646224924457,1024,2,48000,-16,experiment,p1sarr1.png,0,even,Win32,144,122525,119510,144,144,512810,514325,507809,124042,507809,144,,,,,,visual_patterns,0,0,0,yes,1366
undefined,undefined,undefined,undefined,white,no,Mozilla,Netscape,"5.0 (Windows NT 10.0; Win64; x64) AppleWebKit/537.36 (KHTML, like Gecko) Chrome/98.0.4758.102 Safari/537.36",xpyriment,legacy,legacy,0,uniform,0,0,0,0,24,24,24,0,0,53,53,53,53,53,0,53,0,,,,,,0,,02-02-22,02-02-22,13:41:43,Wed Mar 02 2022 13:41:43 GMT+0100 (Central European Standard Time),The main experiment item,yes,0,0,C:/Users/rrics/Documents/!!ResearchBMECOGSCI/gnet,0,0,0,prototype2.png,no,mono,no,18,no,black,no,no,768,1166,3.5.6,legacy,xpyriment,osweb,1.3.13,0,space,space,space,,44364,10609,44364,,2,legacy,824,1536,24,864,24,0,0,1536,1646224924457,1024,2,48000,-16,experiment,p1sarrcol2.png,0,even,Win32,144,122525,119510,144,144,519339,520855,514339,124042,514339,144,,,,,,visual_patterns,0,0,0,yes,1366
undefined,undefined,undefined,undefined,white,no,Mozilla,Netscape,"5.0 (Windows NT 10.0; Win64; x64) AppleWebKit/537.36 (KHTML, like Gecko) Chrome/98.0.4758.102 Safari/537.36",xpyriment,legacy,legacy,0,uniform,0,0,0,0,24,24,24,0,0,54,54,54,54,54,0,54,0,,,,,,0,,02-02-22,02-02-22,13:41:43,Wed Mar 02 2022 13:41:43 GMT+0100 (Central European Standard Time),The main experiment item,yes,0,0,C:/Users/rrics/Documents/!!ResearchBMECOGSCI/gnet,0,0,0,prototype2.png,no,mono,no,18,no,black,no,no,768,1166,3.5.6,legacy,xpyriment,osweb,1.3.13,0,space,space,space,,44364,10609,44364,,2,legacy,824,1536,24,864,24,0,0,1536,1646224924457,1024,2,48000,-16,experiment,p2sarrcol2.png,0,even,Win32,144,122525,119510,144,144,525873,527385,520869,124042,520869,144,,,,,,visual_patterns,0,0,0,yes,1366
undefined,undefined,undefined,undefined,white,no,Mozilla,Netscape,"5.0 (Windows NT 10.0; Win64; x64) AppleWebKit/537.36 (KHTML, like Gecko) Chrome/98.0.4758.102 Safari/537.36",xpyriment,legacy,legacy,0,uniform,0,0,0,0,24,24,24,0,0,55,55,55,55,55,0,55,0,,,,,,0,,02-02-22,02-02-22,13:41:43,Wed Mar 02 2022 13:41:43 GMT+0100 (Central European Standard Time),The main experiment item,yes,0,0,C:/Users/rrics/Documents/!!ResearchBMECOGSCI/gnet,0,0,0,prototype2.png,no,mono,no,18,no,black,no,no,768,1166,3.5.6,legacy,xpyriment,osweb,1.3.13,0,space,space,space,,44364,10609,44364,,2,legacy,824,1536,24,864,24,0,0,1536,1646224924457,1024,2,48000,-16,experiment,prototype4.png,0,even,Win32,144,122525,119510,144,144,532420,533931,527415,124042,527415,144,,,,,,visual_patterns,0,0,0,yes,1366
undefined,undefined,undefined,undefined,white,no,Mozilla,Netscape,"5.0 (Windows NT 10.0; Win64; x64) AppleWebKit/537.36 (KHTML, like Gecko) Chrome/98.0.4758.102 Safari/537.36",xpyriment,legacy,legacy,0,uniform,0,0,0,0,24,24,24,0,0,56,56,56,56,56,0,56,0,,,,,,0,,02-02-22,02-02-22,13:41:43,Wed Mar 02 2022 13:41:43 GMT+0100 (Central European Standard Time),The main experiment item,yes,0,0,C:/Users/rrics/Documents/!!ResearchBMECOGSCI/gnet,0,0,0,prototype2.png,no,mono,no,18,no,black,no,no,768,1166,3.5.6,legacy,xpyriment,osweb,1.3.13,0,space,space,space,,44364,10609,44364,,2,legacy,824,1536,24,864,24,0,0,1536,1646224924457,1024,2,48000,-16,experiment,p2sarrshacol1.png,0,even,Win32,144,122525,119510,144,144,538945,540464,533944,124042,533944,144,,,,,,visual_patterns,0,0,0,yes,1366
undefined,undefined,undefined,undefined,white,no,Mozilla,Netscape,"5.0 (Windows NT 10.0; Win64; x64) AppleWebKit/537.36 (KHTML, like Gecko) Chrome/98.0.4758.102 Safari/537.36",xpyriment,legacy,legacy,0,uniform,0,0,0,0,24,24,24,0,0,57,57,57,57,57,0,57,0,,,,,,0,,02-02-22,02-02-22,13:41:43,Wed Mar 02 2022 13:41:43 GMT+0100 (Central European Standard Time),The main experiment item,yes,0,0,C:/Users/rrics/Documents/!!ResearchBMECOGSCI/gnet,0,0,0,prototype2.png,no,mono,no,18,no,black,no,no,768,1166,3.5.6,legacy,xpyriment,osweb,1.3.13,0,space,space,space,,44364,10609,44364,,2,legacy,824,1536,24,864,24,0,0,1536,1646224924457,1024,2,48000,-16,experiment,prototype5.png,0,even,Win32,144,122525,119510,144,144,545480,546991,540476,124042,540476,144,,,,,,visual_patterns,0,0,0,yes,1366
undefined,undefined,undefined,undefined,white,no,Mozilla,Netscape,"5.0 (Windows NT 10.0; Win64; x64) AppleWebKit/537.36 (KHTML, like Gecko) Chrome/98.0.4758.102 Safari/537.36",xpyriment,legacy,legacy,0,uniform,0,0,0,0,24,24,24,0,0,58,58,58,58,58,0,58,0,,,,,,0,,02-02-22,02-02-22,13:41:43,Wed Mar 02 2022 13:41:43 GMT+0100 (Central European Standard Time),The main experiment item,yes,0,0,C:/Users/rrics/Documents/!!ResearchBMECOGSCI/gnet,0,0,0,prototype2.png,no,mono,no,18,no,black,no,no,768,1166,3.5.6,legacy,xpyriment,osweb,1.3.13,0,space,space,space,,44364,10609,44364,,2,legacy,824,1536,24,864,24,0,0,1536,1646224924457,1024,2,48000,-16,experiment,prototype2.png,0,even,Win32,144,122525,119510,144,144,552005,553520,547002,124042,547002,144,,,,,,visual_patterns,0,0,0,yes,1366
undefined,undefined,undefined,undefined,white,no,Mozilla,Netscape,"5.0 (Windows NT 10.0; Win64; x64) AppleWebKit/537.36 (KHTML, like Gecko) Chrome/98.0.4758.102 Safari/537.36",xpyriment,legacy,legacy,0,uniform,0,0,0,0,24,24,24,0,0,59,59,59,59,59,0,59,0,,,,,,0,,02-02-22,02-02-22,13:41:43,Wed Mar 02 2022 13:41:43 GMT+0100 (Central European Standard Time),The main experiment item,yes,0,0,C:/Users/rrics/Documents/!!ResearchBMECOGSCI/gnet,0,0,0,prototype2.png,no,mono,no,18,no,black,no,no,768,1166,3.5.6,legacy,xpyriment,osweb,1.3.13,0,space,space,space,,44364,10609,44364,,2,legacy,824,1536,24,864,24,0,0,1536,1646224924457,1024,2,48000,-16,experiment,prototype5.png,0,even,Win32,144,122525,119510,144,144,558534,560050,553534,124042,553534,144,,,,,,visual_patterns,0,0,0,yes,1366
undefined,undefined,undefined,undefined,white,no,Mozilla,Netscape,"5.0 (Windows NT 10.0; Win64; x64) AppleWebKit/537.36 (KHTML, like Gecko) Chrome/98.0.4758.102 Safari/537.36",xpyriment,legacy,legacy,0,uniform,0,0,0,0,24,24,24,0,0,60,60,60,60,60,0,60,0,,,,,,0,,02-02-22,02-02-22,13:41:43,Wed Mar 02 2022 13:41:43 GMT+0100 (Central European Standard Time),The main experiment item,yes,0,0,C:/Users/rrics/Documents/!!ResearchBMECOGSCI/gnet,0,0,0,prototype2.png,no,mono,no,18,no,black,no,no,768,1166,3.5.6,legacy,xpyriment,osweb,1.3.13,0,space,space,space,,44364,10609,44364,,2,legacy,824,1536,24,864,24,0,0,1536,1646224924457,1024,2,48000,-16,experiment,p1sarrshacol2.png,0,even,Win32,144,122525,119510,144,144,565081,566603,560085,124042,560085,144,,,,,,visual_patterns,0,0,0,yes,1366
undefined,undefined,undefined,undefined,white,no,Mozilla,Netscape,"5.0 (Windows NT 10.0; Win64; x64) AppleWebKit/537.36 (KHTML, like Gecko) Chrome/98.0.4758.102 Safari/537.36",xpyriment,legacy,legacy,0,uniform,0,0,0,0,24,24,24,0,0,61,61,61,61,61,0,61,0,,,,,,0,,02-02-22,02-02-22,13:41:43,Wed Mar 02 2022 13:41:43 GMT+0100 (Central European Standard Time),The main experiment item,yes,0,0,C:/Users/rrics/Documents/!!ResearchBMECOGSCI/gnet,0,0,0,prototype2.png,no,mono,no,18,no,black,no,no,768,1166,3.5.6,legacy,xpyriment,osweb,1.3.13,0,space,space,space,,44364,10609,44364,,2,legacy,824,1536,24,864,24,0,0,1536,1646224924457,1024,2,48000,-16,experiment,p2sarrcol1.png,0,even,Win32,144,122525,119510,144,144,571618,573126,566620,124042,566620,144,,,,,,visual_patterns,0,0,0,yes,1366
undefined,undefined,undefined,undefined,white,no,Mozilla,Netscape,"5.0 (Windows NT 10.0; Win64; x64) AppleWebKit/537.36 (KHTML, like Gecko) Chrome/98.0.4758.102 Safari/537.36",xpyriment,legacy,legacy,0,uniform,0,0,0,0,24,24,24,0,0,62,62,62,62,62,0,62,0,,,,,,0,,02-02-22,02-02-22,13:41:43,Wed Mar 02 2022 13:41:43 GMT+0100 (Central European Standard Time),The main experiment item,yes,0,0,C:/Users/rrics/Documents/!!ResearchBMECOGSCI/gnet,0,0,0,prototype2.png,no,mono,no,18,no,black,no,no,768,1166,3.5.6,legacy,xpyriment,osweb,1.3.13,0,space,space,space,,44364,10609,44364,,2,legacy,824,1536,24,864,24,0,0,1536,1646224924457,1024,2,48000,-16,experiment,p5sarr2.png,0,even,Win32,144,122525,119510,144,144,578138,579639,573140,124042,573140,144,,,,,,visual_patterns,0,0,0,yes,1366
undefined,undefined,undefined,undefined,white,no,Mozilla,Netscape,"5.0 (Windows NT 10.0; Win64; x64) AppleWebKit/537.36 (KHTML, like Gecko) Chrome/98.0.4758.102 Safari/537.36",xpyriment,legacy,legacy,0,uniform,0,0,0,0,24,24,24,0,0,63,63,63,63,63,0,63,0,,,,,,0,,02-02-22,02-02-22,13:41:43,Wed Mar 02 2022 13:41:43 GMT+0100 (Central European Standard Time),The main experiment item,yes,0,0,C:/Users/rrics/Documents/!!ResearchBMECOGSCI/gnet,0,0,0,prototype2.png,no,mono,no,18,no,black,no,no,768,1166,3.5.6,legacy,xpyriment,osweb,1.3.13,0,space,space,space,,44364,10609,44364,,2,legacy,824,1536,24,864,24,0,0,1536,1646224924457,1024,2,48000,-16,experiment,p10sarr2.png,0,even,Win32,144,122525,119510,144,144,584649,586152,579652,124042,579651,144,,,,,,visual_patterns,0,0,0,yes,1366
undefined,undefined,undefined,undefined,white,no,Mozilla,Netscape,"5.0 (Windows NT 10.0; Win64; x64) AppleWebKit/537.36 (KHTML, like Gecko) Chrome/98.0.4758.102 Safari/537.36",xpyriment,legacy,legacy,0,uniform,0,0,0,0,24,24,24,0,0,64,64,64,64,64,0,64,0,,,,,,0,,02-02-22,02-02-22,13:41:43,Wed Mar 02 2022 13:41:43 GMT+0100 (Central European Standard Time),The main experiment item,yes,0,0,C:/Users/rrics/Documents/!!ResearchBMECOGSCI/gnet,0,0,0,prototype2.png,no,mono,no,18,no,black,no,no,768,1166,3.5.6,legacy,xpyriment,osweb,1.3.13,0,space,space,space,,44364,10609,44364,,2,legacy,824,1536,24,864,24,0,0,1536,1646224924457,1024,2,48000,-16,experiment,prototype1.png,0,even,Win32,144,122525,119510,144,144,591167,592682,586163,124042,586163,144,,,,,,visual_patterns,0,0,0,yes,1366
undefined,undefined,undefined,undefined,white,no,Mozilla,Netscape,"5.0 (Windows NT 10.0; Win64; x64) AppleWebKit/537.36 (KHTML, like Gecko) Chrome/98.0.4758.102 Safari/537.36",xpyriment,legacy,legacy,0,uniform,0,0,0,0,24,24,24,0,0,65,65,65,65,65,0,65,0,,,,,,0,,02-02-22,02-02-22,13:41:43,Wed Mar 02 2022 13:41:43 GMT+0100 (Central European Standard Time),The main experiment item,yes,0,0,C:/Users/rrics/Documents/!!ResearchBMECOGSCI/gnet,0,0,0,prototype2.png,no,mono,no,18,no,black,no,no,768,1166,3.5.6,legacy,xpyriment,osweb,1.3.13,0,space,space,space,,44364,10609,44364,,2,legacy,824,1536,24,864,24,0,0,1536,1646224924457,1024,2,48000,-16,experiment,prototype4.png,0,even,Win32,144,122525,119510,144,144,597720,599228,592714,124042,592714,144,,,,,,visual_patterns,0,0,0,yes,1366
undefined,undefined,undefined,undefined,white,no,Mozilla,Netscape,"5.0 (Windows NT 10.0; Win64; x64) AppleWebKit/537.36 (KHTML, like Gecko) Chrome/98.0.4758.102 Safari/537.36",xpyriment,legacy,legacy,0,uniform,0,0,0,0,24,24,24,0,0,66,66,66,66,66,0,66,0,,,,,,0,,02-02-22,02-02-22,13:41:43,Wed Mar 02 2022 13:41:43 GMT+0100 (Central European Standard Time),The main experiment item,yes,0,0,C:/Users/rrics/Documents/!!ResearchBMECOGSCI/gnet,0,0,0,prototype2.png,no,mono,no,18,no,black,no,no,768,1166,3.5.6,legacy,xpyriment,osweb,1.3.13,0,space,space,space,,44364,10609,44364,,2,legacy,824,1536,24,864,24,0,0,1536,1646224924457,1024,2,48000,-16,experiment,p2sarrshacol2.png,0,even,Win32,144,122525,119510,144,144,604240,605741,599240,124042,599240,144,,,,,,visual_patterns,0,0,0,yes,1366
undefined,undefined,undefined,undefined,white,no,Mozilla,Netscape,"5.0 (Windows NT 10.0; Win64; x64) AppleWebKit/537.36 (KHTML, like Gecko) Chrome/98.0.4758.102 Safari/537.36",xpyriment,legacy,legacy,0,uniform,0,0,0,0,24,24,24,0,0,67,67,67,67,67,0,67,0,,,,,,0,,02-02-22,02-02-22,13:41:43,Wed Mar 02 2022 13:41:43 GMT+0100 (Central European Standard Time),The main experiment item,yes,0,0,C:/Users/rrics/Documents/!!ResearchBMECOGSCI/gnet,0,0,0,prototype2.png,no,mono,no,18,no,black,no,no,768,1166,3.5.6,legacy,xpyriment,osweb,1.3.13,0,space,space,space,,44364,10609,44364,,2,legacy,824,1536,24,864,24,0,0,1536,1646224924457,1024,2,48000,-16,experiment,p1sarr2.png,0,even,Win32,144,122525,119510,144,144,610756,612271,605754,124042,605754,144,,,,,,visual_patterns,0,0,0,yes,1366
undefined,undefined,undefined,undefined,white,no,Mozilla,Netscape,"5.0 (Windows NT 10.0; Win64; x64) AppleWebKit/537.36 (KHTML, like Gecko) Chrome/98.0.4758.102 Safari/537.36",xpyriment,legacy,legacy,0,uniform,0,0,0,0,24,24,24,0,0,68,68,68,68,68,0,68,0,,,,,,0,,02-02-22,02-02-22,13:41:43,Wed Mar 02 2022 13:41:43 GMT+0100 (Central European Standard Time),The main experiment item,yes,0,0,C:/Users/rrics/Documents/!!ResearchBMECOGSCI/gnet,0,0,0,prototype2.png,no,mono,no,18,no,black,no,no,768,1166,3.5.6,legacy,xpyriment,osweb,1.3.13,0,space,space,space,,44364,10609,44364,,2,legacy,824,1536,24,864,24,0,0,1536,1646224924457,1024,2,48000,-16,experiment,p6sarr2.png,0,even,Win32,144,122525,119510,144,144,617282,618791,612281,124042,612281,144,,,,,,visual_patterns,0,0,0,yes,1366
undefined,undefined,undefined,undefined,white,no,Mozilla,Netscape,"5.0 (Windows NT 10.0; Win64; x64) AppleWebKit/537.36 (KHTML, like Gecko) Chrome/98.0.4758.102 Safari/537.36",xpyriment,legacy,legacy,0,uniform,0,0,0,0,24,24,24,0,0,69,69,69,69,69,0,69,0,,,,,,0,,02-02-22,02-02-22,13:41:43,Wed Mar 02 2022 13:41:43 GMT+0100 (Central European Standard Time),The main experiment item,yes,0,0,C:/Users/rrics/Documents/!!ResearchBMECOGSCI/gnet,0,0,0,prototype2.png,no,mono,no,18,no,black,no,no,768,1166,3.5.6,legacy,xpyriment,osweb,1.3.13,0,space,space,space,,44364,10609,44364,,2,legacy,824,1536,24,864,24,0,0,1536,1646224924457,1024,2,48000,-16,experiment,prototype2.png,0,even,Win32,144,122525,119510,144,144,623803,625314,618803,124042,618803,144,,,,,,visual_patterns,0,0,0,yes,1366
undefined,undefined,undefined,undefined,white,no,Mozilla,Netscape,"5.0 (Windows NT 10.0; Win64; x64) AppleWebKit/537.36 (KHTML, like Gecko) Chrome/98.0.4758.102 Safari/537.36",xpyriment,legacy,legacy,0,uniform,0,0,0,0,24,24,24,0,0,70,70,70,70,70,0,70,0,,,,,,0,,02-02-22,02-02-22,13:41:43,Wed Mar 02 2022 13:41:43 GMT+0100 (Central European Standard Time),The main experiment item,yes,0,0,C:/Users/rrics/Documents/!!ResearchBMECOGSCI/gnet,0,0,0,prototype2.png,no,mono,no,18,no,black,no,no,768,1166,3.5.6,legacy,xpyriment,osweb,1.3.13,0,space,space,space,,44364,10609,44364,,2,legacy,824,1536,24,864,24,0,0,1536,1646224924457,1024,2,48000,-16,experiment,p1sarrshacol1.png,0,even,Win32,144,122525,119510,144,144,630343,631844,625345,124042,625345,144,,,,,,visual_patterns,0,0,0,yes,1366
undefined,undefined,undefined,undefined,white,no,Mozilla,Netscape,"5.0 (Windows NT 10.0; Win64; x64) AppleWebKit/537.36 (KHTML, like Gecko) Chrome/98.0.4758.102 Safari/537.36",xpyriment,legacy,legacy,0,uniform,0,0,0,0,24,24,24,0,0,71,71,71,71,71,0,71,0,,,,,,0,,02-02-22,02-02-22,13:41:43,Wed Mar 02 2022 13:41:43 GMT+0100 (Central European Standard Time),The main experiment item,yes,0,0,C:/Users/rrics/Documents/!!ResearchBMECOGSCI/gnet,0,0,0,prototype2.png,no,mono,no,18,no,black,no,no,768,1166,3.5.6,legacy,xpyriment,osweb,1.3.13,0,space,space,space,,44364,10609,44364,,2,legacy,824,1536,24,864,24,0,0,1536,1646224924457,1024,2,48000,-16,experiment,prototype1.png,0,even,Win32,144,122525,119510,144,144,636858,638374,631859,124042,631859,144,,,,,,visual_patterns,0,0,0,yes,1366
undefined,undefined,undefined,undefined,white,no,Mozilla,Netscape,"5.0 (Windows NT 10.0; Win64; x64) AppleWebKit/537.36 (KHTML, like Gecko) Chrome/98.0.4758.102 Safari/537.36",xpyriment,legacy,legacy,0,uniform,0,0,0,0,24,24,24,0,0,72,72,72,72,72,0,72,0,,,,,,0,,02-02-22,02-02-22,13:41:43,Wed Mar 02 2022 13:41:43 GMT+0100 (Central European Standard Time),The main experiment item,yes,0,0,C:/Users/rrics/Documents/!!ResearchBMECOGSCI/gnet,0,0,0,prototype2.png,no,mono,no,18,no,black,no,no,768,1166,3.5.6,legacy,xpyriment,osweb,1.3.13,0,space,space,space,,44364,10609,44364,,2,legacy,824,1536,24,864,24,0,0,1536,1646224924457,1024,2,48000,-16,experiment,prototype5.png,0,even,Win32,144,122525,119510,144,144,643385,644887,638384,124042,638384,144,,,,,,visual_patterns,0,0,0,yes,1366
undefined,undefined,undefined,undefined,white,no,Mozilla,Netscape,"5.0 (Windows NT 10.0; Win64; x64) AppleWebKit/537.36 (KHTML, like Gecko) Chrome/98.0.4758.102 Safari/537.36",xpyriment,legacy,legacy,0,uniform,0,0,0,0,24,24,24,0,0,73,73,73,73,73,0,73,0,,,,,,0,,02-02-22,02-02-22,13:41:43,Wed Mar 02 2022 13:41:43 GMT+0100 (Central European Standard Time),The main experiment item,yes,0,0,C:/Users/rrics/Documents/!!ResearchBMECOGSCI/gnet,0,0,0,prototype2.png,no,mono,no,18,no,black,no,no,768,1166,3.5.6,legacy,xpyriment,osweb,1.3.13,0,space,space,space,,44364,10609,44364,,2,legacy,824,1536,24,864,24,0,0,1536,1646224924457,1024,2,48000,-16,experiment,prototype3.png,0,even,Win32,144,122525,119510,144,144,649901,651416,644901,124042,644901,144,,,,,,visual_patterns,0,0,0,yes,1366
undefined,undefined,undefined,undefined,white,no,Mozilla,Netscape,"5.0 (Windows NT 10.0; Win64; x64) AppleWebKit/537.36 (KHTML, like Gecko) Chrome/98.0.4758.102 Safari/537.36",xpyriment,legacy,legacy,0,uniform,0,0,0,0,24,24,24,0,0,74,74,74,74,74,0,74,0,,,,,,0,,02-02-22,02-02-22,13:41:43,Wed Mar 02 2022 13:41:43 GMT+0100 (Central European Standard Time),The main experiment item,yes,0,0,C:/Users/rrics/Documents/!!ResearchBMECOGSCI/gnet,0,0,0,prototype2.png,no,mono,no,18,no,black,no,no,768,1166,3.5.6,legacy,xpyriment,osweb,1.3.13,0,space,space,space,,44364,10609,44364,,2,legacy,824,1536,24,864,24,0,0,1536,1646224924457,1024,2,48000,-16,experiment,prototype2.png,0,even,Win32,144,122525,119510,144,144,656431,657946,651426,124042,651426,144,,,,,,visual_patterns,0,0,0,yes,1366
undefined,undefined,undefined,undefined,white,no,Mozilla,Netscape,"5.0 (Windows NT 10.0; Win64; x64) AppleWebKit/537.36 (KHTML, like Gecko) Chrome/98.0.4758.102 Safari/537.36",xpyriment,legacy,legacy,0,uniform,0,0,0,0,24,24,24,0,0,74,74,74,74,74,0,74,0,0,0,0,0,0,0,0,02-02-22,02-02-22,13:41:43,Wed Mar 02 2022 13:41:43 GMT+0100 (Central European Standard Time),The main experiment item,yes,0,0,C:/Users/rrics/Documents/!!ResearchBMECOGSCI/gnet,0,0,0,prototype2.png,no,mono,no,18,no,black,no,no,768,1166,3.5.6,legacy,xpyriment,osweb,1.3.13,0,space,space,space,space,31437,10609,44364,31437,2,legacy,824,1536,24,864,24,0,0,1536,1646224924457,1024,2,48000,-16,experiment,p5sarrsha3.png,0,even,Win32,144,122525,119510,144,144,656431,657946,651426,124042,651426,144,692424,693926,689429,657949,689429,visual_patterns,0,0,0,yes,1366
undefined,undefined,undefined,undefined,white,no,Mozilla,Netscape,"5.0 (Windows NT 10.0; Win64; x64) AppleWebKit/537.36 (KHTML, like Gecko) Chrome/98.0.4758.102 Safari/537.36",xpyriment,legacy,legacy,0,uniform,0,0,0,0,24,24,24,0,0,74,74,74,74,74,0,74,0,1,1,1,1,1,0,1,02-02-22,02-02-22,13:41:43,Wed Mar 02 2022 13:41:43 GMT+0100 (Central European Standard Time),The main experiment item,yes,0,0,C:/Users/rrics/Documents/!!ResearchBMECOGSCI/gnet,0,0,0,prototype2.png,no,mono,no,18,no,black,no,no,768,1166,3.5.6,legacy,xpyriment,osweb,1.3.13,0,space,space,space,space,31437,10609,44364,31437,2,legacy,824,1536,24,864,24,0,0,1536,1646224924457,1024,2,48000,-16,experiment,p2sarrshacol1.png,0,even,Win32,144,122525,119510,144,144,656431,657946,651426,124042,651426,144,696937,698440,693938,657949,693938,visual_patterns,0,0,0,yes,1366
undefined,undefined,undefined,undefined,white,no,Mozilla,Netscape,"5.0 (Windows NT 10.0; Win64; x64) AppleWebKit/537.36 (KHTML, like Gecko) Chrome/98.0.4758.102 Safari/537.36",xpyriment,legacy,legacy,0,uniform,0,0,0,0,24,24,24,0,0,74,74,74,74,74,0,74,0,2,2,2,2,2,0,2,02-02-22,02-02-22,13:41:43,Wed Mar 02 2022 13:41:43 GMT+0100 (Central European Standard Time),The main experiment item,yes,0,0,C:/Users/rrics/Documents/!!ResearchBMECOGSCI/gnet,0,0,0,prototype2.png,no,mono,no,18,no,black,no,no,768,1166,3.5.6,legacy,xpyriment,osweb,1.3.13,0,space,space,space,space,31437,10609,44364,31437,2,legacy,824,1536,24,864,24,0,0,1536,1646224924457,1024,2,48000,-16,experiment,p4sarr4.png,0,even,Win32,144,122525,119510,144,144,656431,657946,651426,124042,651426,144,701456,702973,698458,657949,698458,visual_patterns,0,0,0,yes,1366
undefined,undefined,undefined,undefined,white,no,Mozilla,Netscape,"5.0 (Windows NT 10.0; Win64; x64) AppleWebKit/537.36 (KHTML, like Gecko) Chrome/98.0.4758.102 Safari/537.36",xpyriment,legacy,legacy,0,uniform,0,0,0,0,24,24,24,0,0,74,74,74,74,74,0,74,0,3,3,3,3,3,0,3,02-02-22,02-02-22,13:41:43,Wed Mar 02 2022 13:41:43 GMT+0100 (Central European Standard Time),The main experiment item,yes,0,0,C:/Users/rrics/Documents/!!ResearchBMECOGSCI/gnet,0,0,0,prototype2.png,no,mono,no,18,no,black,no,no,768,1166,3.5.6,legacy,xpyriment,osweb,1.3.13,0,space,space,space,space,31437,10609,44364,31437,2,legacy,824,1536,24,864,24,0,0,1536,1646224924457,1024,2,48000,-16,experiment,p5sarrsha2.png,0,even,Win32,144,122525,119510,144,144,656431,657946,651426,124042,651426,144,705995,707502,702990,657949,702990,visual_patterns,0,0,0,yes,1366
undefined,undefined,undefined,undefined,white,no,Mozilla,Netscape,"5.0 (Windows NT 10.0; Win64; x64) AppleWebKit/537.36 (KHTML, like Gecko) Chrome/98.0.4758.102 Safari/537.36",xpyriment,legacy,legacy,0,uniform,0,0,0,0,24,24,24,0,0,74,74,74,74,74,0,74,0,4,4,4,4,4,0,4,02-02-22,02-02-22,13:41:43,Wed Mar 02 2022 13:41:43 GMT+0100 (Central European Standard Time),The main experiment item,yes,0,0,C:/Users/rrics/Documents/!!ResearchBMECOGSCI/gnet,0,0,0,prototype2.png,no,mono,no,18,no,black,no,no,768,1166,3.5.6,legacy,xpyriment,osweb,1.3.13,0,space,space,space,space,31437,10609,44364,31437,2,legacy,824,1536,24,864,24,0,0,1536,1646224924457,1024,2,48000,-16,experiment,p7sarr2.png,0,even,Win32,144,122525,119510,144,144,656431,657946,651426,124042,651426,144,710518,712033,707514,657949,707514,visual_patterns,0,0,0,yes,1366
undefined,undefined,undefined,undefined,white,no,Mozilla,Netscape,"5.0 (Windows NT 10.0; Win64; x64) AppleWebKit/537.36 (KHTML, like Gecko) Chrome/98.0.4758.102 Safari/537.36",xpyriment,legacy,legacy,0,uniform,0,0,0,0,24,24,24,0,0,74,74,74,74,74,0,74,0,5,5,5,5,5,0,5,02-02-22,02-02-22,13:41:43,Wed Mar 02 2022 13:41:43 GMT+0100 (Central European Standard Time),The main experiment item,yes,0,0,C:/Users/rrics/Documents/!!ResearchBMECOGSCI/gnet,0,0,0,prototype2.png,no,mono,no,18,no,black,no,no,768,1166,3.5.6,legacy,xpyriment,osweb,1.3.13,0,space,space,space,space,31437,10609,44364,31437,2,legacy,824,1536,24,864,24,0,0,1536,1646224924457,1024,2,48000,-16,experiment,p1sarrsha4.png,0,even,Win32,144,122525,119510,144,144,656431,657946,651426,124042,651426,144,715072,716580,712070,657949,712070,visual_patterns,0,0,0,yes,1366
undefined,undefined,undefined,undefined,white,no,Mozilla,Netscape,"5.0 (Windows NT 10.0; Win64; x64) AppleWebKit/537.36 (KHTML, like Gecko) Chrome/98.0.4758.102 Safari/537.36",xpyriment,legacy,legacy,0,uniform,0,0,0,0,24,24,24,0,0,74,74,74,74,74,0,74,0,6,6,6,6,6,0,6,02-02-22,02-02-22,13:41:43,Wed Mar 02 2022 13:41:43 GMT+0100 (Central European Standard Time),The main experiment item,yes,0,0,C:/Users/rrics/Documents/!!ResearchBMECOGSCI/gnet,0,0,0,prototype2.png,no,mono,no,18,no,black,no,no,768,1166,3.5.6,legacy,xpyriment,osweb,1.3.13,0,space,space,space,space,31437,10609,44364,31437,2,legacy,824,1536,24,864,24,0,0,1536,1646224924457,1024,2,48000,-16,experiment,p3sarrcol2.png,0,even,Win32,144,122525,119510,144,144,656431,657946,651426,124042,651426,144,719596,721111,716592,657949,716592,visual_patterns,0,0,0,yes,1366
undefined,undefined,undefined,undefined,white,no,Mozilla,Netscape,"5.0 (Windows NT 10.0; Win64; x64) AppleWebKit/537.36 (KHTML, like Gecko) Chrome/98.0.4758.102 Safari/537.36",xpyriment,legacy,legacy,0,uniform,0,0,0,0,24,24,24,0,0,74,74,74,74,74,0,74,0,7,7,7,7,7,0,7,02-02-22,02-02-22,13:41:43,Wed Mar 02 2022 13:41:43 GMT+0100 (Central European Standard Time),The main experiment item,yes,0,0,C:/Users/rrics/Documents/!!ResearchBMECOGSCI/gnet,0,0,0,prototype2.png,no,mono,no,18,no,black,no,no,768,1166,3.5.6,legacy,xpyriment,osweb,1.3.13,0,space,space,space,space,31437,10609,44364,31437,2,legacy,824,1536,24,864,24,0,0,1536,1646224924457,1024,2,48000,-16,experiment,p3sarrcol3.png,0,even,Win32,144,122525,119510,144,144,656431,657946,651426,124042,651426,144,724127,725642,721128,657949,721128,visual_patterns,0,0,0,yes,1366
undefined,undefined,undefined,undefined,white,no,Mozilla,Netscape,"5.0 (Windows NT 10.0; Win64; x64) AppleWebKit/537.36 (KHTML, like Gecko) Chrome/98.0.4758.102 Safari/537.36",xpyriment,legacy,legacy,0,uniform,0,0,0,0,24,24,24,0,0,74,74,74,74,74,0,74,0,8,8,8,8,8,0,8,02-02-22,02-02-22,13:41:43,Wed Mar 02 2022 13:41:43 GMT+0100 (Central European Standard Time),The main experiment item,yes,0,0,C:/Users/rrics/Documents/!!ResearchBMECOGSCI/gnet,0,0,0,prototype2.png,no,mono,no,18,no,black,no,no,768,1166,3.5.6,legacy,xpyriment,osweb,1.3.13,0,space,space,space,space,31437,10609,44364,31437,2,legacy,824,1536,24,864,24,0,0,1536,1646224924457,1024,2,48000,-16,experiment,p1sarrsha1.png,0,even,Win32,144,122525,119510,144,144,656431,657946,651426,124042,651426,144,728658,730173,725657,657949,725657,visual_patterns,0,0,0,yes,1366
undefined,undefined,undefined,undefined,white,no,Mozilla,Netscape,"5.0 (Windows NT 10.0; Win64; x64) AppleWebKit/537.36 (KHTML, like Gecko) Chrome/98.0.4758.102 Safari/537.36",xpyriment,legacy,legacy,0,uniform,0,0,0,0,24,24,24,0,0,74,74,74,74,74,0,74,0,9,9,9,9,9,0,9,02-02-22,02-02-22,13:41:43,Wed Mar 02 2022 13:41:43 GMT+0100 (Central European Standard Time),The main experiment item,yes,0,0,C:/Users/rrics/Documents/!!ResearchBMECOGSCI/gnet,0,0,0,prototype2.png,no,mono,no,18,no,black,no,no,768,1166,3.5.6,legacy,xpyriment,osweb,1.3.13,0,space,space,space,space,31437,10609,44364,31437,2,legacy,824,1536,24,864,24,0,0,1536,1646224924457,1024,2,48000,-16,experiment,p4sarr1.png,0,even,Win32,144,122525,119510,144,144,656431,657946,651426,124042,651426,144,733194,734703,730187,657949,730187,visual_patterns,0,0,0,yes,1366
undefined,undefined,undefined,undefined,white,no,Mozilla,Netscape,"5.0 (Windows NT 10.0; Win64; x64) AppleWebKit/537.36 (KHTML, like Gecko) Chrome/98.0.4758.102 Safari/537.36",xpyriment,legacy,legacy,0,uniform,0,0,0,0,24,24,24,0,0,74,74,74,74,74,0,74,0,10,10,10,10,10,0,10,02-02-22,02-02-22,13:41:43,Wed Mar 02 2022 13:41:43 GMT+0100 (Central European Standard Time),The main experiment item,yes,0,0,C:/Users/rrics/Documents/!!ResearchBMECOGSCI/gnet,0,0,0,prototype2.png,no,mono,no,18,no,black,no,no,768,1166,3.5.6,legacy,xpyriment,osweb,1.3.13,0,space,space,space,space,31437,10609,44364,31437,2,legacy,824,1536,24,864,24,0,0,1536,1646224924457,1024,2,48000,-16,experiment,p9sarr2.png,0,even,Win32,144,122525,119510,144,144,656431,657946,651426,124042,651426,144,737720,739235,734716,657949,734716,visual_patterns,0,0,0,yes,1366
undefined,undefined,undefined,undefined,white,no,Mozilla,Netscape,"5.0 (Windows NT 10.0; Win64; x64) AppleWebKit/537.36 (KHTML, like Gecko) Chrome/98.0.4758.102 Safari/537.36",xpyriment,legacy,legacy,0,uniform,0,0,0,0,24,24,24,0,0,74,74,74,74,74,0,74,0,11,11,11,11,11,0,11,02-02-22,02-02-22,13:41:43,Wed Mar 02 2022 13:41:43 GMT+0100 (Central European Standard Time),The main experiment item,yes,0,0,C:/Users/rrics/Documents/!!ResearchBMECOGSCI/gnet,0,0,0,prototype2.png,no,mono,no,18,no,black,no,no,768,1166,3.5.6,legacy,xpyriment,osweb,1.3.13,0,space,space,space,space,31437,10609,44364,31437,2,legacy,824,1536,24,864,24,0,0,1536,1646224924457,1024,2,48000,-16,experiment,p1sarr2.png,0,even,Win32,144,122525,119510,144,144,656431,657946,651426,124042,651426,144,742250,743765,739254,657949,739253,visual_patterns,0,0,0,yes,1366
undefined,undefined,undefined,undefined,white,no,Mozilla,Netscape,"5.0 (Windows NT 10.0; Win64; x64) AppleWebKit/537.36 (KHTML, like Gecko) Chrome/98.0.4758.102 Safari/537.36",xpyriment,legacy,legacy,0,uniform,0,0,0,0,24,24,24,0,0,74,74,74,74,74,0,74,0,12,12,12,12,12,0,12,02-02-22,02-02-22,13:41:43,Wed Mar 02 2022 13:41:43 GMT+0100 (Central European Standard Time),The main experiment item,yes,0,0,C:/Users/rrics/Documents/!!ResearchBMECOGSCI/gnet,0,0,0,prototype2.png,no,mono,no,18,no,black,no,no,768,1166,3.5.6,legacy,xpyriment,osweb,1.3.13,0,space,space,space,space,31437,10609,44364,31437,2,legacy,824,1536,24,864,24,0,0,1536,1646224924457,1024,2,48000,-16,experiment,p3sarrcol4.png,0,even,Win32,144,122525,119510,144,144,656431,657946,651426,124042,651426,144,746781,748296,743783,657949,743783,visual_patterns,0,0,0,yes,1366
undefined,undefined,undefined,undefined,white,no,Mozilla,Netscape,"5.0 (Windows NT 10.0; Win64; x64) AppleWebKit/537.36 (KHTML, like Gecko) Chrome/98.0.4758.102 Safari/537.36",xpyriment,legacy,legacy,0,uniform,0,0,0,0,24,24,24,0,0,74,74,74,74,74,0,74,0,13,13,13,13,13,0,13,02-02-22,02-02-22,13:41:43,Wed Mar 02 2022 13:41:43 GMT+0100 (Central European Standard Time),The main experiment item,yes,0,0,C:/Users/rrics/Documents/!!ResearchBMECOGSCI/gnet,0,0,0,prototype2.png,no,mono,no,18,no,black,no,no,768,1166,3.5.6,legacy,xpyriment,osweb,1.3.13,0,space,space,space,space,31437,10609,44364,31437,2,legacy,824,1536,24,864,24,0,0,1536,1646224924457,1024,2,48000,-16,experiment,p2sarrshacol2.png,0,even,Win32,144,122525,119510,144,144,656431,657946,651426,124042,651426,144,751312,752827,748314,657949,748314,visual_patterns,0,0,0,yes,1366
undefined,undefined,undefined,undefined,white,no,Mozilla,Netscape,"5.0 (Windows NT 10.0; Win64; x64) AppleWebKit/537.36 (KHTML, like Gecko) Chrome/98.0.4758.102 Safari/537.36",xpyriment,legacy,legacy,0,uniform,0,0,0,0,24,24,24,0,0,74,74,74,74,74,0,74,0,14,14,14,14,14,0,14,02-02-22,02-02-22,13:41:43,Wed Mar 02 2022 13:41:43 GMT+0100 (Central European Standard Time),The main experiment item,yes,0,0,C:/Users/rrics/Documents/!!ResearchBMECOGSCI/gnet,0,0,0,prototype2.png,no,mono,no,18,no,black,no,no,768,1166,3.5.6,legacy,xpyriment,osweb,1.3.13,0,space,space,space,space,31437,10609,44364,31437,2,legacy,824,1536,24,864,24,0,0,1536,1646224924457,1024,2,48000,-16,experiment,p6sarr1.png,0,even,Win32,144,122525,119510,144,144,656431,657946,651426,124042,651426,144,755847,757358,752844,657949,752844,visual_patterns,0,0,0,yes,1366
undefined,undefined,undefined,undefined,white,no,Mozilla,Netscape,"5.0 (Windows NT 10.0; Win64; x64) AppleWebKit/537.36 (KHTML, like Gecko) Chrome/98.0.4758.102 Safari/537.36",xpyriment,legacy,legacy,0,uniform,0,0,0,0,24,24,24,0,0,74,74,74,74,74,0,74,0,15,15,15,15,15,0,15,02-02-22,02-02-22,13:41:43,Wed Mar 02 2022 13:41:43 GMT+0100 (Central European Standard Time),The main experiment item,yes,0,0,C:/Users/rrics/Documents/!!ResearchBMECOGSCI/gnet,0,0,0,prototype2.png,no,mono,no,18,no,black,no,no,768,1166,3.5.6,legacy,xpyriment,osweb,1.3.13,0,space,space,space,space,31437,10609,44364,31437,2,legacy,824,1536,24,864,24,0,0,1536,1646224924457,1024,2,48000,-16,experiment,p4sarrshacol3.png,0,even,Win32,144,122525,119510,144,144,656431,657946,651426,124042,651426,144,760401,761905,757399,657949,757399,visual_patterns,0,0,0,yes,1366
undefined,undefined,undefined,undefined,white,no,Mozilla,Netscape,"5.0 (Windows NT 10.0; Win64; x64) AppleWebKit/537.36 (KHTML, like Gecko) Chrome/98.0.4758.102 Safari/537.36",xpyriment,legacy,legacy,0,uniform,0,0,0,0,24,24,24,0,0,74,74,74,74,74,0,74,0,16,16,16,16,16,0,16,02-02-22,02-02-22,13:41:43,Wed Mar 02 2022 13:41:43 GMT+0100 (Central European Standard Time),The main experiment item,yes,0,0,C:/Users/rrics/Documents/!!ResearchBMECOGSCI/gnet,0,0,0,prototype2.png,no,mono,no,18,no,black,no,no,768,1166,3.5.6,legacy,xpyriment,osweb,1.3.13,0,space,space,space,space,31437,10609,44364,31437,2,legacy,824,1536,24,864,24,0,0,1536,1646224924457,1024,2,48000,-16,experiment,p4sarrshacol4.png,0,even,Win32,144,122525,119510,144,144,656431,657946,651426,124042,651426,144,764918,766420,761921,657949,761921,visual_patterns,0,0,0,yes,1366
undefined,undefined,undefined,undefined,white,no,Mozilla,Netscape,"5.0 (Windows NT 10.0; Win64; x64) AppleWebKit/537.36 (KHTML, like Gecko) Chrome/98.0.4758.102 Safari/537.36",xpyriment,legacy,legacy,0,uniform,0,0,0,0,24,24,24,0,0,74,74,74,74,74,0,74,0,17,17,17,17,17,0,17,02-02-22,02-02-22,13:41:43,Wed Mar 02 2022 13:41:43 GMT+0100 (Central European Standard Time),The main experiment item,yes,0,0,C:/Users/rrics/Documents/!!ResearchBMECOGSCI/gnet,0,0,0,prototype2.png,no,mono,no,18,no,black,no,no,768,1166,3.5.6,legacy,xpyriment,osweb,1.3.13,0,space,space,space,space,31437,10609,44364,31437,2,legacy,824,1536,24,864,24,0,0,1536,1646224924457,1024,2,48000,-16,experiment,p2sarrcol1.png,0,even,Win32,144,122525,119510,144,144,656431,657946,651426,124042,651426,144,769435,770951,766439,657949,766439,visual_patterns,0,0,0,yes,1366
undefined,undefined,undefined,undefined,white,no,Mozilla,Netscape,"5.0 (Windows NT 10.0; Win64; x64) AppleWebKit/537.36 (KHTML, like Gecko) Chrome/98.0.4758.102 Safari/537.36",xpyriment,legacy,legacy,0,uniform,0,0,0,0,24,24,24,0,0,74,74,74,74,74,0,74,0,18,18,18,18,18,0,18,02-02-22,02-02-22,13:41:43,Wed Mar 02 2022 13:41:43 GMT+0100 (Central European Standard Time),The main experiment item,yes,0,0,C:/Users/rrics/Documents/!!ResearchBMECOGSCI/gnet,0,0,0,prototype2.png,no,mono,no,18,no,black,no,no,768,1166,3.5.6,legacy,xpyriment,osweb,1.3.13,0,space,space,space,space,31437,10609,44364,31437,2,legacy,824,1536,24,864,24,0,0,1536,1646224924457,1024,2,48000,-16,experiment,p1sarr4.png,0,even,Win32,144,122525,119510,144,144,656431,657946,651426,124042,651426,144,773966,775482,770968,657949,770968,visual_patterns,0,0,0,yes,1366
undefined,undefined,undefined,undefined,white,no,Mozilla,Netscape,"5.0 (Windows NT 10.0; Win64; x64) AppleWebKit/537.36 (KHTML, like Gecko) Chrome/98.0.4758.102 Safari/537.36",xpyriment,legacy,legacy,0,uniform,0,0,0,0,24,24,24,0,0,74,74,74,74,74,0,74,0,19,19,19,19,19,0,19,02-02-22,02-02-22,13:41:43,Wed Mar 02 2022 13:41:43 GMT+0100 (Central European Standard Time),The main experiment item,yes,0,0,C:/Users/rrics/Documents/!!ResearchBMECOGSCI/gnet,0,0,0,prototype2.png,no,mono,no,18,no,black,no,no,768,1166,3.5.6,legacy,xpyriment,osweb,1.3.13,0,space,space,space,space,31437,10609,44364,31437,2,legacy,824,1536,24,864,24,0,0,1536,1646224924457,1024,2,48000,-16,experiment,p10sarr1.png,0,even,Win32,144,122525,119510,144,144,656431,657946,651426,124042,651426,144,778497,780012,775495,657949,775495,visual_patterns,0,0,0,yes,1366
undefined,undefined,undefined,undefined,white,no,Mozilla,Netscape,"5.0 (Windows NT 10.0; Win64; x64) AppleWebKit/537.36 (KHTML, like Gecko) Chrome/98.0.4758.102 Safari/537.36",xpyriment,legacy,legacy,0,uniform,0,0,0,0,24,24,24,0,0,74,74,74,74,74,0,74,0,20,20,20,20,20,0,20,02-02-22,02-02-22,13:41:43,Wed Mar 02 2022 13:41:43 GMT+0100 (Central European Standard Time),The main experiment item,yes,0,0,C:/Users/rrics/Documents/!!ResearchBMECOGSCI/gnet,0,0,0,prototype2.png,no,mono,no,18,no,black,no,no,768,1166,3.5.6,legacy,xpyriment,osweb,1.3.13,0,space,space,space,space,31437,10609,44364,31437,2,legacy,824,1536,24,864,24,0,0,1536,1646224924457,1024,2,48000,-16,experiment,p8sarr3.png,0,even,Win32,144,122525,119510,144,144,656431,657946,651426,124042,651426,144,783051,784560,780049,657949,780049,visual_patterns,0,0,0,yes,1366
undefined,undefined,undefined,undefined,white,no,Mozilla,Netscape,"5.0 (Windows NT 10.0; Win64; x64) AppleWebKit/537.36 (KHTML, like Gecko) Chrome/98.0.4758.102 Safari/537.36",xpyriment,legacy,legacy,0,uniform,0,0,0,0,24,24,24,0,0,74,74,74,74,74,0,74,0,21,21,21,21,21,0,21,02-02-22,02-02-22,13:41:43,Wed Mar 02 2022 13:41:43 GMT+0100 (Central European Standard Time),The main experiment item,yes,0,0,C:/Users/rrics/Documents/!!ResearchBMECOGSCI/gnet,0,0,0,prototype2.png,no,mono,no,18,no,black,no,no,768,1166,3.5.6,legacy,xpyriment,osweb,1.3.13,0,space,space,space,space,31437,10609,44364,31437,2,legacy,824,1536,24,864,24,0,0,1536,1646224924457,1024,2,48000,-16,experiment,p9sarr4.png,0,even,Win32,144,122525,119510,144,144,656431,657946,651426,124042,651426,144,787574,789091,784578,657949,784578,visual_patterns,0,0,0,yes,1366
undefined,undefined,undefined,undefined,white,no,Mozilla,Netscape,"5.0 (Windows NT 10.0; Win64; x64) AppleWebKit/537.36 (KHTML, like Gecko) Chrome/98.0.4758.102 Safari/537.36",xpyriment,legacy,legacy,0,uniform,0,0,0,0,24,24,24,0,0,74,74,74,74,74,0,74,0,22,22,22,22,22,0,22,02-02-22,02-02-22,13:41:43,Wed Mar 02 2022 13:41:43 GMT+0100 (Central European Standard Time),The main experiment item,yes,0,0,C:/Users/rrics/Documents/!!ResearchBMECOGSCI/gnet,0,0,0,prototype2.png,no,mono,no,18,no,black,no,no,768,1166,3.5.6,legacy,xpyriment,osweb,1.3.13,0,space,space,space,space,31437,10609,44364,31437,2,legacy,824,1536,24,864,24,0,0,1536,1646224924457,1024,2,48000,-16,experiment,p5sarrcol2.png,0,even,Win32,144,122525,119510,144,144,656431,657946,651426,124042,651426,144,792111,793622,789105,657949,789105,visual_patterns,0,0,0,yes,1366
undefined,undefined,undefined,undefined,white,no,Mozilla,Netscape,"5.0 (Windows NT 10.0; Win64; x64) AppleWebKit/537.36 (KHTML, like Gecko) Chrome/98.0.4758.102 Safari/537.36",xpyriment,legacy,legacy,0,uniform,0,0,0,0,24,24,24,0,0,74,74,74,74,74,0,74,0,23,23,23,23,23,0,23,02-02-22,02-02-22,13:41:43,Wed Mar 02 2022 13:41:43 GMT+0100 (Central European Standard Time),The main experiment item,yes,0,0,C:/Users/rrics/Documents/!!ResearchBMECOGSCI/gnet,0,0,0,prototype2.png,no,mono,no,18,no,black,no,no,768,1166,3.5.6,legacy,xpyriment,osweb,1.3.13,0,space,space,space,space,31437,10609,44364,31437,2,legacy,824,1536,24,864,24,0,0,1536,1646224924457,1024,2,48000,-16,experiment,p7sarr4.png,0,even,Win32,144,122525,119510,144,144,656431,657946,651426,124042,651426,144,796642,798152,793641,657949,793641,visual_patterns,0,0,0,yes,1366
undefined,undefined,undefined,undefined,white,no,Mozilla,Netscape,"5.0 (Windows NT 10.0; Win64; x64) AppleWebKit/537.36 (KHTML, like Gecko) Chrome/98.0.4758.102 Safari/537.36",xpyriment,legacy,legacy,0,uniform,0,0,0,0,24,24,24,0,0,74,74,74,74,74,0,74,0,24,24,24,24,24,0,24,02-02-22,02-02-22,13:41:43,Wed Mar 02 2022 13:41:43 GMT+0100 (Central European Standard Time),The main experiment item,yes,0,0,C:/Users/rrics/Documents/!!ResearchBMECOGSCI/gnet,0,0,0,prototype2.png,no,mono,no,18,no,black,no,no,768,1166,3.5.6,legacy,xpyriment,osweb,1.3.13,0,space,space,space,space,31437,10609,44364,31437,2,legacy,824,1536,24,864,24,0,0,1536,1646224924457,1024,2,48000,-16,experiment,p3sarrsha3.png,0,even,Win32,144,122525,119510,144,144,656431,657946,651426,124042,651426,144,801165,802671,798167,657949,798167,visual_patterns,0,0,0,yes,1366
undefined,undefined,undefined,undefined,white,no,Mozilla,Netscape,"5.0 (Windows NT 10.0; Win64; x64) AppleWebKit/537.36 (KHTML, like Gecko) Chrome/98.0.4758.102 Safari/537.36",xpyriment,legacy,legacy,0,uniform,0,0,0,0,24,24,24,0,0,74,74,74,74,74,0,74,0,25,25,25,25,25,0,25,02-02-22,02-02-22,13:41:43,Wed Mar 02 2022 13:41:43 GMT+0100 (Central European Standard Time),The main experiment item,yes,0,0,C:/Users/rrics/Documents/!!ResearchBMECOGSCI/gnet,0,0,0,prototype2.png,no,mono,no,18,no,black,no,no,768,1166,3.5.6,legacy,xpyriment,osweb,1.3.13,0,space,space,space,space,31437,10609,44364,31437,2,legacy,824,1536,24,864,24,0,0,1536,1646224924457,1024,2,48000,-16,experiment,p8sarr4.png,0,even,Win32,144,122525,119510,144,144,656431,657946,651426,124042,651426,144,805707,807215,802706,657949,802706,visual_patterns,0,0,0,yes,1366
undefined,undefined,undefined,undefined,white,no,Mozilla,Netscape,"5.0 (Windows NT 10.0; Win64; x64) AppleWebKit/537.36 (KHTML, like Gecko) Chrome/98.0.4758.102 Safari/537.36",xpyriment,legacy,legacy,0,uniform,0,0,0,0,24,24,24,0,0,74,74,74,74,74,0,74,0,26,26,26,26,26,0,26,02-02-22,02-02-22,13:41:43,Wed Mar 02 2022 13:41:43 GMT+0100 (Central European Standard Time),The main experiment item,yes,0,0,C:/Users/rrics/Documents/!!ResearchBMECOGSCI/gnet,0,0,0,prototype2.png,no,mono,no,18,no,black,no,no,768,1166,3.5.6,legacy,xpyriment,osweb,1.3.13,0,space,space,space,space,31437,10609,44364,31437,2,legacy,824,1536,24,864,24,0,0,1536,1646224924457,1024,2,48000,-16,experiment,p2sarrshacol4.png,0,even,Win32,144,122525,119510,144,144,656431,657946,651426,124042,651426,144,810237,811745,807252,657949,807251,visual_patterns,0,0,0,yes,1366
undefined,undefined,undefined,undefined,white,no,Mozilla,Netscape,"5.0 (Windows NT 10.0; Win64; x64) AppleWebKit/537.36 (KHTML, like Gecko) Chrome/98.0.4758.102 Safari/537.36",xpyriment,legacy,legacy,0,uniform,0,0,0,0,24,24,24,0,0,74,74,74,74,74,0,74,0,27,27,27,27,27,0,27,02-02-22,02-02-22,13:41:43,Wed Mar 02 2022 13:41:43 GMT+0100 (Central European Standard Time),The main experiment item,yes,0,0,C:/Users/rrics/Documents/!!ResearchBMECOGSCI/gnet,0,0,0,prototype2.png,no,mono,no,18,no,black,no,no,768,1166,3.5.6,legacy,xpyriment,osweb,1.3.13,0,space,space,space,space,31437,10609,44364,31437,2,legacy,824,1536,24,864,24,0,0,1536,1646224924457,1024,2,48000,-16,experiment,p4sarrshacol1.png,0,even,Win32,144,122525,119510,144,144,656431,657946,651426,124042,651426,144,814761,816275,811757,657949,811757,visual_patterns,0,0,0,yes,1366
undefined,undefined,undefined,undefined,white,no,Mozilla,Netscape,"5.0 (Windows NT 10.0; Win64; x64) AppleWebKit/537.36 (KHTML, like Gecko) Chrome/98.0.4758.102 Safari/537.36",xpyriment,legacy,legacy,0,uniform,0,0,0,0,24,24,24,0,0,74,74,74,74,74,0,74,0,28,28,28,28,28,0,28,02-02-22,02-02-22,13:41:43,Wed Mar 02 2022 13:41:43 GMT+0100 (Central European Standard Time),The main experiment item,yes,0,0,C:/Users/rrics/Documents/!!ResearchBMECOGSCI/gnet,0,0,0,prototype2.png,no,mono,no,18,no,black,no,no,768,1166,3.5.6,legacy,xpyriment,osweb,1.3.13,0,space,space,space,space,31437,10609,44364,31437,2,legacy,824,1536,24,864,24,0,0,1536,1646224924457,1024,2,48000,-16,experiment,p1sarrshacol3.png,0,even,Win32,144,122525,119510,144,144,656431,657946,651426,124042,651426,144,819290,820807,816291,657949,816290,visual_patterns,0,0,0,yes,1366
undefined,undefined,undefined,undefined,white,no,Mozilla,Netscape,"5.0 (Windows NT 10.0; Win64; x64) AppleWebKit/537.36 (KHTML, like Gecko) Chrome/98.0.4758.102 Safari/537.36",xpyriment,legacy,legacy,0,uniform,0,0,0,0,24,24,24,0,0,74,74,74,74,74,0,74,0,29,29,29,29,29,0,29,02-02-22,02-02-22,13:41:43,Wed Mar 02 2022 13:41:43 GMT+0100 (Central European Standard Time),The main experiment item,yes,0,0,C:/Users/rrics/Documents/!!ResearchBMECOGSCI/gnet,0,0,0,prototype2.png,no,mono,no,18,no,black,no,no,768,1166,3.5.6,legacy,xpyriment,osweb,1.3.13,0,space,space,space,space,31437,10609,44364,31437,2,legacy,824,1536,24,864,24,0,0,1536,1646224924457,1024,2,48000,-16,experiment,p2sarrsha1.png,0,even,Win32,144,122525,119510,144,144,656431,657946,651426,124042,651426,144,823822,825337,820818,657949,820818,visual_patterns,0,0,0,yes,1366
undefined,undefined,undefined,undefined,white,no,Mozilla,Netscape,"5.0 (Windows NT 10.0; Win64; x64) AppleWebKit/537.36 (KHTML, like Gecko) Chrome/98.0.4758.102 Safari/537.36",xpyriment,legacy,legacy,0,uniform,0,0,0,0,24,24,24,0,0,74,74,74,74,74,0,74,0,30,30,30,30,30,0,30,02-02-22,02-02-22,13:41:43,Wed Mar 02 2022 13:41:43 GMT+0100 (Central European Standard Time),The main experiment item,yes,0,0,C:/Users/rrics/Documents/!!ResearchBMECOGSCI/gnet,0,0,0,prototype2.png,no,mono,no,18,no,black,no,no,768,1166,3.5.6,legacy,xpyriment,osweb,1.3.13,0,space,space,space,space,31437,10609,44364,31437,2,legacy,824,1536,24,864,24,0,0,1536,1646224924457,1024,2,48000,-16,experiment,p3sarr2.png,0,even,Win32,144,122525,119510,144,144,656431,657946,651426,124042,651426,144,828353,829868,825349,657949,825349,visual_patterns,0,0,0,yes,1366
undefined,undefined,undefined,undefined,white,no,Mozilla,Netscape,"5.0 (Windows NT 10.0; Win64; x64) AppleWebKit/537.36 (KHTML, like Gecko) Chrome/98.0.4758.102 Safari/537.36",xpyriment,legacy,legacy,0,uniform,0,0,0,0,24,24,24,0,0,74,74,74,74,74,0,74,0,31,31,31,31,31,0,31,02-02-22,02-02-22,13:41:43,Wed Mar 02 2022 13:41:43 GMT+0100 (Central European Standard Time),The main experiment item,yes,0,0,C:/Users/rrics/Documents/!!ResearchBMECOGSCI/gnet,0,0,0,prototype2.png,no,mono,no,18,no,black,no,no,768,1166,3.5.6,legacy,xpyriment,osweb,1.3.13,0,space,space,space,space,31437,10609,44364,31437,2,legacy,824,1536,24,864,24,0,0,1536,1646224924457,1024,2,48000,-16,experiment,p3sarrshacol3.png,0,even,Win32,144,122525,119510,144,144,656431,657946,651426,124042,651426,144,832884,834399,829887,657949,829887,visual_patterns,0,0,0,yes,1366
undefined,undefined,undefined,undefined,white,no,Mozilla,Netscape,"5.0 (Windows NT 10.0; Win64; x64) AppleWebKit/537.36 (KHTML, like Gecko) Chrome/98.0.4758.102 Safari/537.36",xpyriment,legacy,legacy,0,uniform,0,0,0,0,24,24,24,0,0,74,74,74,74,74,0,74,0,32,32,32,32,32,0,32,02-02-22,02-02-22,13:41:43,Wed Mar 02 2022 13:41:43 GMT+0100 (Central European Standard Time),The main experiment item,yes,0,0,C:/Users/rrics/Documents/!!ResearchBMECOGSCI/gnet,0,0,0,prototype2.png,no,mono,no,18,no,black,no,no,768,1166,3.5.6,legacy,xpyriment,osweb,1.3.13,0,space,space,space,space,31437,10609,44364,31437,2,legacy,824,1536,24,864,24,0,0,1536,1646224924457,1024,2,48000,-16,experiment,p2sarrcol4.png,0,even,Win32,144,122525,119510,144,144,656431,657946,651426,124042,651426,144,837410,838913,834413,657949,834413,visual_patterns,0,0,0,yes,1366
undefined,undefined,undefined,undefined,white,no,Mozilla,Netscape,"5.0 (Windows NT 10.0; Win64; x64) AppleWebKit/537.36 (KHTML, like Gecko) Chrome/98.0.4758.102 Safari/537.36",xpyriment,legacy,legacy,0,uniform,0,0,0,0,24,24,24,0,0,74,74,74,74,74,0,74,0,33,33,33,33,33,0,33,02-02-22,02-02-22,13:41:43,Wed Mar 02 2022 13:41:43 GMT+0100 (Central European Standard Time),The main experiment item,yes,0,0,C:/Users/rrics/Documents/!!ResearchBMECOGSCI/gnet,0,0,0,prototype2.png,no,mono,no,18,no,black,no,no,768,1166,3.5.6,legacy,xpyriment,osweb,1.3.13,0,space,space,space,space,31437,10609,44364,31437,2,legacy,824,1536,24,864,24,0,0,1536,1646224924457,1024,2,48000,-16,experiment,p5sarrcol1.png,0,even,Win32,144,122525,119510,144,144,656431,657946,651426,124042,651426,144,841929,843444,838928,657949,838928,visual_patterns,0,0,0,yes,1366
undefined,undefined,undefined,undefined,white,no,Mozilla,Netscape,"5.0 (Windows NT 10.0; Win64; x64) AppleWebKit/537.36 (KHTML, like Gecko) Chrome/98.0.4758.102 Safari/537.36",xpyriment,legacy,legacy,0,uniform,0,0,0,0,24,24,24,0,0,74,74,74,74,74,0,74,0,34,34,34,34,34,0,34,02-02-22,02-02-22,13:41:43,Wed Mar 02 2022 13:41:43 GMT+0100 (Central European Standard Time),The main experiment item,yes,0,0,C:/Users/rrics/Documents/!!ResearchBMECOGSCI/gnet,0,0,0,prototype2.png,no,mono,no,18,no,black,no,no,768,1166,3.5.6,legacy,xpyriment,osweb,1.3.13,0,space,space,space,space,31437,10609,44364,31437,2,legacy,824,1536,24,864,24,0,0,1536,1646224924457,1024,2,48000,-16,experiment,p8sarr2.png,0,even,Win32,144,122525,119510,144,144,656431,657946,651426,124042,651426,144,846459,847975,843459,657949,843459,visual_patterns,0,0,0,yes,1366
undefined,undefined,undefined,undefined,white,no,Mozilla,Netscape,"5.0 (Windows NT 10.0; Win64; x64) AppleWebKit/537.36 (KHTML, like Gecko) Chrome/98.0.4758.102 Safari/537.36",xpyriment,legacy,legacy,0,uniform,0,0,0,0,24,24,24,0,0,74,74,74,74,74,0,74,0,35,35,35,35,35,0,35,02-02-22,02-02-22,13:41:43,Wed Mar 02 2022 13:41:43 GMT+0100 (Central European Standard Time),The main experiment item,yes,0,0,C:/Users/rrics/Documents/!!ResearchBMECOGSCI/gnet,0,0,0,prototype2.png,no,mono,no,18,no,black,no,no,768,1166,3.5.6,legacy,xpyriment,osweb,1.3.13,0,space,space,space,space,31437,10609,44364,31437,2,legacy,824,1536,24,864,24,0,0,1536,1646224924457,1024,2,48000,-16,experiment,p5sarr3.png,0,even,Win32,144,122525,119510,144,144,656431,657946,651426,124042,651426,144,851007,852522,848005,657949,848005,visual_patterns,0,0,0,yes,1366
undefined,undefined,undefined,undefined,white,no,Mozilla,Netscape,"5.0 (Windows NT 10.0; Win64; x64) AppleWebKit/537.36 (KHTML, like Gecko) Chrome/98.0.4758.102 Safari/537.36",xpyriment,legacy,legacy,0,uniform,0,0,0,0,24,24,24,0,0,74,74,74,74,74,0,74,0,36,36,36,36,36,0,36,02-02-22,02-02-22,13:41:43,Wed Mar 02 2022 13:41:43 GMT+0100 (Central European Standard Time),The main experiment item,yes,0,0,C:/Users/rrics/Documents/!!ResearchBMECOGSCI/gnet,0,0,0,prototype2.png,no,mono,no,18,no,black,no,no,768,1166,3.5.6,legacy,xpyriment,osweb,1.3.13,0,space,space,space,space,31437,10609,44364,31437,2,legacy,824,1536,24,864,24,0,0,1536,1646224924457,1024,2,48000,-16,experiment,p7sarr1.png,0,even,Win32,144,122525,119510,144,144,656431,657946,651426,124042,651426,144,855538,857053,852536,657949,852536,visual_patterns,0,0,0,yes,1366
undefined,undefined,undefined,undefined,white,no,Mozilla,Netscape,"5.0 (Windows NT 10.0; Win64; x64) AppleWebKit/537.36 (KHTML, like Gecko) Chrome/98.0.4758.102 Safari/537.36",xpyriment,legacy,legacy,0,uniform,0,0,0,0,24,24,24,0,0,74,74,74,74,74,0,74,0,37,37,37,37,37,0,37,02-02-22,02-02-22,13:41:43,Wed Mar 02 2022 13:41:43 GMT+0100 (Central European Standard Time),The main experiment item,yes,0,0,C:/Users/rrics/Documents/!!ResearchBMECOGSCI/gnet,0,0,0,prototype2.png,no,mono,no,18,no,black,no,no,768,1166,3.5.6,legacy,xpyriment,osweb,1.3.13,0,space,space,space,space,31437,10609,44364,31437,2,legacy,824,1536,24,864,24,0,0,1536,1646224924457,1024,2,48000,-16,experiment,p1sarrcol4.png,0,even,Win32,144,122525,119510,144,144,656431,657946,651426,124042,651426,144,860078,861584,857074,657949,857074,visual_patterns,0,0,0,yes,1366
undefined,undefined,undefined,undefined,white,no,Mozilla,Netscape,"5.0 (Windows NT 10.0; Win64; x64) AppleWebKit/537.36 (KHTML, like Gecko) Chrome/98.0.4758.102 Safari/537.36",xpyriment,legacy,legacy,0,uniform,0,0,0,0,24,24,24,0,0,74,74,74,74,74,0,74,0,38,38,38,38,38,0,38,02-02-22,02-02-22,13:41:43,Wed Mar 02 2022 13:41:43 GMT+0100 (Central European Standard Time),The main experiment item,yes,0,0,C:/Users/rrics/Documents/!!ResearchBMECOGSCI/gnet,0,0,0,prototype2.png,no,mono,no,18,no,black,no,no,768,1166,3.5.6,legacy,xpyriment,osweb,1.3.13,0,space,space,space,space,31437,10609,44364,31437,2,legacy,824,1536,24,864,24,0,0,1536,1646224924457,1024,2,48000,-16,experiment,p3sarrsha4.png,0,even,Win32,144,122525,119510,144,144,656431,657946,651426,124042,651426,144,864596,866098,861598,657949,861598,visual_patterns,0,0,0,yes,1366
undefined,undefined,undefined,undefined,white,no,Mozilla,Netscape,"5.0 (Windows NT 10.0; Win64; x64) AppleWebKit/537.36 (KHTML, like Gecko) Chrome/98.0.4758.102 Safari/537.36",xpyriment,legacy,legacy,0,uniform,0,0,0,0,24,24,24,0,0,74,74,74,74,74,0,74,0,39,39,39,39,39,0,39,02-02-22,02-02-22,13:41:43,Wed Mar 02 2022 13:41:43 GMT+0100 (Central European Standard Time),The main experiment item,yes,0,0,C:/Users/rrics/Documents/!!ResearchBMECOGSCI/gnet,0,0,0,prototype2.png,no,mono,no,18,no,black,no,no,768,1166,3.5.6,legacy,xpyriment,osweb,1.3.13,0,space,space,space,space,31437,10609,44364,31437,2,legacy,824,1536,24,864,24,0,0,1536,1646224924457,1024,2,48000,-16,experiment,p3sarr1.png,0,even,Win32,144,122525,119510,144,144,656431,657946,651426,124042,651426,144,869114,870629,866112,657949,866112,visual_patterns,0,0,0,yes,1366
undefined,undefined,undefined,undefined,white,no,Mozilla,Netscape,"5.0 (Windows NT 10.0; Win64; x64) AppleWebKit/537.36 (KHTML, like Gecko) Chrome/98.0.4758.102 Safari/537.36",xpyriment,legacy,legacy,0,uniform,0,0,0,0,24,24,24,0,0,74,74,74,74,74,0,74,0,40,40,40,40,40,0,40,02-02-22,02-02-22,13:41:43,Wed Mar 02 2022 13:41:43 GMT+0100 (Central European Standard Time),The main experiment item,yes,0,0,C:/Users/rrics/Documents/!!ResearchBMECOGSCI/gnet,0,0,0,prototype2.png,no,mono,no,18,no,black,no,no,768,1166,3.5.6,legacy,xpyriment,osweb,1.3.13,0,space,space,space,space,31437,10609,44364,31437,2,legacy,824,1536,24,864,24,0,0,1536,1646224924457,1024,2,48000,-16,experiment,p2sarrsha3.png,0,even,Win32,144,122525,119510,144,144,656431,657946,651426,124042,651426,144,873645,875160,870649,657949,870649,visual_patterns,0,0,0,yes,1366
undefined,undefined,undefined,undefined,white,no,Mozilla,Netscape,"5.0 (Windows NT 10.0; Win64; x64) AppleWebKit/537.36 (KHTML, like Gecko) Chrome/98.0.4758.102 Safari/537.36",xpyriment,legacy,legacy,0,uniform,0,0,0,0,24,24,24,0,0,74,74,74,74,74,0,74,0,41,41,41,41,41,0,41,02-02-22,02-02-22,13:41:43,Wed Mar 02 2022 13:41:43 GMT+0100 (Central European Standard Time),The main experiment item,yes,0,0,C:/Users/rrics/Documents/!!ResearchBMECOGSCI/gnet,0,0,0,prototype2.png,no,mono,no,18,no,black,no,no,768,1166,3.5.6,legacy,xpyriment,osweb,1.3.13,0,space,space,space,space,31437,10609,44364,31437,2,legacy,824,1536,24,864,24,0,0,1536,1646224924457,1024,2,48000,-16,experiment,p9sarr3.png,0,even,Win32,144,122525,119510,144,144,656431,657946,651426,124042,651426,144,878179,879691,875181,657949,875181,visual_patterns,0,0,0,yes,1366
undefined,undefined,undefined,undefined,white,no,Mozilla,Netscape,"5.0 (Windows NT 10.0; Win64; x64) AppleWebKit/537.36 (KHTML, like Gecko) Chrome/98.0.4758.102 Safari/537.36",xpyriment,legacy,legacy,0,uniform,0,0,0,0,24,24,24,0,0,74,74,74,74,74,0,74,0,42,42,42,42,42,0,42,02-02-22,02-02-22,13:41:43,Wed Mar 02 2022 13:41:43 GMT+0100 (Central European Standard Time),The main experiment item,yes,0,0,C:/Users/rrics/Documents/!!ResearchBMECOGSCI/gnet,0,0,0,prototype2.png,no,mono,no,18,no,black,no,no,768,1166,3.5.6,legacy,xpyriment,osweb,1.3.13,0,space,space,space,space,31437,10609,44364,31437,2,legacy,824,1536,24,864,24,0,0,1536,1646224924457,1024,2,48000,-16,experiment,p10sarr4.png,0,even,Win32,144,122525,119510,144,144,656431,657946,651426,124042,651426,144,882706,884222,879709,657949,879709,visual_patterns,0,0,0,yes,1366
undefined,undefined,undefined,undefined,white,no,Mozilla,Netscape,"5.0 (Windows NT 10.0; Win64; x64) AppleWebKit/537.36 (KHTML, like Gecko) Chrome/98.0.4758.102 Safari/537.36",xpyriment,legacy,legacy,0,uniform,0,0,0,0,24,24,24,0,0,74,74,74,74,74,0,74,0,43,43,43,43,43,0,43,02-02-22,02-02-22,13:41:43,Wed Mar 02 2022 13:41:43 GMT+0100 (Central European Standard Time),The main experiment item,yes,0,0,C:/Users/rrics/Documents/!!ResearchBMECOGSCI/gnet,0,0,0,prototype2.png,no,mono,no,18,no,black,no,no,768,1166,3.5.6,legacy,xpyriment,osweb,1.3.13,0,space,space,space,space,31437,10609,44364,31437,2,legacy,824,1536,24,864,24,0,0,1536,1646224924457,1024,2,48000,-16,experiment,p4sarrcol1.png,0,even,Win32,144,122525,119510,144,144,656431,657946,651426,124042,651426,144,887244,888753,884239,657949,884239,visual_patterns,0,0,0,yes,1366
undefined,undefined,undefined,undefined,white,no,Mozilla,Netscape,"5.0 (Windows NT 10.0; Win64; x64) AppleWebKit/537.36 (KHTML, like Gecko) Chrome/98.0.4758.102 Safari/537.36",xpyriment,legacy,legacy,0,uniform,0,0,0,0,24,24,24,0,0,74,74,74,74,74,0,74,0,44,44,44,44,44,0,44,02-02-22,02-02-22,13:41:43,Wed Mar 02 2022 13:41:43 GMT+0100 (Central European Standard Time),The main experiment item,yes,0,0,C:/Users/rrics/Documents/!!ResearchBMECOGSCI/gnet,0,0,0,prototype2.png,no,mono,no,18,no,black,no,no,768,1166,3.5.6,legacy,xpyriment,osweb,1.3.13,0,space,space,space,space,31437,10609,44364,31437,2,legacy,824,1536,24,864,24,0,0,1536,1646224924457,1024,2,48000,-16,experiment,p5sarrshacol4.png,0,even,Win32,144,122525,119510,144,144,656431,657946,651426,124042,651426,144,891772,893284,888771,657949,888771,visual_patterns,0,0,0,yes,1366
undefined,undefined,undefined,undefined,white,no,Mozilla,Netscape,"5.0 (Windows NT 10.0; Win64; x64) AppleWebKit/537.36 (KHTML, like Gecko) Chrome/98.0.4758.102 Safari/537.36",xpyriment,legacy,legacy,0,uniform,0,0,0,0,24,24,24,0,0,74,74,74,74,74,0,74,0,45,45,45,45,45,0,45,02-02-22,02-02-22,13:41:43,Wed Mar 02 2022 13:41:43 GMT+0100 (Central European Standard Time),The main experiment item,yes,0,0,C:/Users/rrics/Documents/!!ResearchBMECOGSCI/gnet,0,0,0,prototype2.png,no,mono,no,18,no,black,no,no,768,1166,3.5.6,legacy,xpyriment,osweb,1.3.13,0,space,space,space,space,31437,10609,44364,31437,2,legacy,824,1536,24,864,24,0,0,1536,1646224924457,1024,2,48000,-16,experiment,p3sarr3.png,0,even,Win32,144,122525,119510,144,144,656431,657946,651426,124042,651426,144,896320,897831,893322,657949,893322,visual_patterns,0,0,0,yes,1366
undefined,undefined,undefined,undefined,white,no,Mozilla,Netscape,"5.0 (Windows NT 10.0; Win64; x64) AppleWebKit/537.36 (KHTML, like Gecko) Chrome/98.0.4758.102 Safari/537.36",xpyriment,legacy,legacy,0,uniform,0,0,0,0,24,24,24,0,0,74,74,74,74,74,0,74,0,46,46,46,46,46,0,46,02-02-22,02-02-22,13:41:43,Wed Mar 02 2022 13:41:43 GMT+0100 (Central European Standard Time),The main experiment item,yes,0,0,C:/Users/rrics/Documents/!!ResearchBMECOGSCI/gnet,0,0,0,prototype2.png,no,mono,no,18,no,black,no,no,768,1166,3.5.6,legacy,xpyriment,osweb,1.3.13,0,space,space,space,space,31437,10609,44364,31437,2,legacy,824,1536,24,864,24,0,0,1536,1646224924457,1024,2,48000,-16,experiment,p2sarr3.png,0,even,Win32,144,122525,119510,144,144,656431,657946,651426,124042,651426,144,900852,902362,897850,657949,897850,visual_patterns,0,0,0,yes,1366
