acc,accuracy,average_response_time,avg_rt,background,bidi,browser_codename,browser_name,browser_version,canvas_backend,clock_backend,color_backend,compensation,coordinates,count_end,count_experiment,count_osweb,count_prestudy,count_prestudy_isi,count_prestudy_sequence,count_prestudy_stimpres,count_start,count_study,count_study_coroutines,count_study_isi,count_study_logger,count_study_response,count_study_sequence,count_study_start,count_study_stimpres,count_test,count_test_coroutines,count_test_isi,count_test_logger,count_test_response,count_test_sequence,count_test_start,count_test_stimpres,date_startdate,date_startdateUTC,date_starttime,datetime,description,disable_garbage_collection,experiment_debug,experiment_parameters,experiment_path,experiment_pilot,experiment_taskname,experiment_taskversion,fampict,font_bold,font_family,font_italic,font_size,font_underline,foreground,form_clicks,fullscreen,height,jatosStudyResultId,jatosVersion,keyboard_backend,mouse_backend,opensesame_codename,opensesame_version,repeat_cycle,response,response_start,response_study_start,response_test_start,response_time,response_time_start,response_time_study_start,response_time_test_start,round_decimals,sampler_backend,screen_availableHeight,screen_availableWidth,screen_colorDepth,screen_height,screen_pixelDepth,screen_screenX,screen_screenY,screen_width,sessionid,sound_buf_size,sound_channels,sound_freq,sound_sample_size,start,stim,subject_nr,subject_parity,system_os,time_prestudy,time_prestudy_isi,time_prestudy_stimpres,time_start,time_study,time_study_isi,time_study_logger,time_study_response,time_study_start,time_study_stimpres,time_test,time_test_isi,time_test_logger,time_test_response,time_test_start,time_test_stimpres,title,total_correct,total_response_time,total_responses,uniform_coordinates,width
undefined,undefined,undefined,undefined,white,no,Mozilla,Netscape,"5.0 (Windows NT 10.0; Win64; x64) AppleWebKit/537.36 (KHTML, like Gecko) Chrome/98.0.4758.102 Safari/537.36",xpyriment,legacy,legacy,0,uniform,0,0,0,0,24,24,24,0,0,0,0,0,0,0,0,0,0,,,,,,0,,02-02-22,02-02-22,14:57:00,Wed Mar 02 2022 14:57:00 GMT+0100 (közép-európai téli idő),The main experiment item,yes,0,0,C:/Users/rrics/Documents/!!ResearchBMECOGSCI/gnet,0,0,0,prototype3.png,no,mono,no,18,no,black,no,no,768,1167,3.5.6,legacy,xpyriment,osweb,1.3.13,0,left,space,left,,32254,40556,32254,,2,legacy,824,1536,24,864,24,0,0,1536,1646229424889,1024,2,48000,-16,experiment,p6sarr1.png,1,odd,Win32,96,152447,149432,96,96,191238,192746,186240,153965,186240,96,,,,,,visual_patterns,0,0,0,yes,1366
undefined,undefined,undefined,undefined,white,no,Mozilla,Netscape,"5.0 (Windows NT 10.0; Win64; x64) AppleWebKit/537.36 (KHTML, like Gecko) Chrome/98.0.4758.102 Safari/537.36",xpyriment,legacy,legacy,0,uniform,0,0,0,0,24,24,24,0,0,1,1,1,1,1,0,1,0,,,,,,0,,02-02-22,02-02-22,14:57:00,Wed Mar 02 2022 14:57:00 GMT+0100 (közép-európai téli idő),The main experiment item,yes,0,0,C:/Users/rrics/Documents/!!ResearchBMECOGSCI/gnet,0,0,0,prototype3.png,no,mono,no,18,no,black,no,no,768,1167,3.5.6,legacy,xpyriment,osweb,1.3.13,0,left,space,left,,32254,40556,32254,,2,legacy,824,1536,24,864,24,0,0,1536,1646229424889,1024,2,48000,-16,experiment,prototype3.png,1,odd,Win32,96,152447,149432,96,96,197761,199262,192757,153965,192757,96,,,,,,visual_patterns,0,0,0,yes,1366
undefined,undefined,undefined,undefined,white,no,Mozilla,Netscape,"5.0 (Windows NT 10.0; Win64; x64) AppleWebKit/537.36 (KHTML, like Gecko) Chrome/98.0.4758.102 Safari/537.36",xpyriment,legacy,legacy,0,uniform,0,0,0,0,24,24,24,0,0,2,2,2,2,2,0,2,0,,,,,,0,,02-02-22,02-02-22,14:57:00,Wed Mar 02 2022 14:57:00 GMT+0100 (közép-európai téli idő),The main experiment item,yes,0,0,C:/Users/rrics/Documents/!!ResearchBMECOGSCI/gnet,0,0,0,prototype3.png,no,mono,no,18,no,black,no,no,768,1167,3.5.6,legacy,xpyriment,osweb,1.3.13,0,left,space,left,,32254,40556,32254,,2,legacy,824,1536,24,864,24,0,0,1536,1646229424889,1024,2,48000,-16,experiment,p3sarr1.png,1,odd,Win32,96,152447,149432,96,96,204288,205795,199290,153965,199289,96,,,,,,visual_patterns,0,0,0,yes,1366
undefined,undefined,undefined,undefined,white,no,Mozilla,Netscape,"5.0 (Windows NT 10.0; Win64; x64) AppleWebKit/537.36 (KHTML, like Gecko) Chrome/98.0.4758.102 Safari/537.36",xpyriment,legacy,legacy,0,uniform,0,0,0,0,24,24,24,0,0,3,3,3,3,3,0,3,0,,,,,,0,,02-02-22,02-02-22,14:57:00,Wed Mar 02 2022 14:57:00 GMT+0100 (közép-európai téli idő),The main experiment item,yes,0,0,C:/Users/rrics/Documents/!!ResearchBMECOGSCI/gnet,0,0,0,prototype3.png,no,mono,no,18,no,black,no,no,768,1167,3.5.6,legacy,xpyriment,osweb,1.3.13,0,left,space,left,,32254,40556,32254,,2,legacy,824,1536,24,864,24,0,0,1536,1646229424889,1024,2,48000,-16,experiment,p9sarr2.png,1,odd,Win32,96,152447,149432,96,96,210810,212311,205808,153965,205808,96,,,,,,visual_patterns,0,0,0,yes,1366
undefined,undefined,undefined,undefined,white,no,Mozilla,Netscape,"5.0 (Windows NT 10.0; Win64; x64) AppleWebKit/537.36 (KHTML, like Gecko) Chrome/98.0.4758.102 Safari/537.36",xpyriment,legacy,legacy,0,uniform,0,0,0,0,24,24,24,0,0,4,4,4,4,4,0,4,0,,,,,,0,,02-02-22,02-02-22,14:57:00,Wed Mar 02 2022 14:57:00 GMT+0100 (közép-európai téli idő),The main experiment item,yes,0,0,C:/Users/rrics/Documents/!!ResearchBMECOGSCI/gnet,0,0,0,prototype3.png,no,mono,no,18,no,black,no,no,768,1167,3.5.6,legacy,xpyriment,osweb,1.3.13,0,left,space,left,,32254,40556,32254,,2,legacy,824,1536,24,864,24,0,0,1536,1646229424889,1024,2,48000,-16,experiment,p4sarr2.png,1,odd,Win32,96,152447,149432,96,96,217325,218828,212326,153965,212326,96,,,,,,visual_patterns,0,0,0,yes,1366
undefined,undefined,undefined,undefined,white,no,Mozilla,Netscape,"5.0 (Windows NT 10.0; Win64; x64) AppleWebKit/537.36 (KHTML, like Gecko) Chrome/98.0.4758.102 Safari/537.36",xpyriment,legacy,legacy,0,uniform,0,0,0,0,24,24,24,0,0,5,5,5,5,5,0,5,0,,,,,,0,,02-02-22,02-02-22,14:57:00,Wed Mar 02 2022 14:57:00 GMT+0100 (közép-európai téli idő),The main experiment item,yes,0,0,C:/Users/rrics/Documents/!!ResearchBMECOGSCI/gnet,0,0,0,prototype3.png,no,mono,no,18,no,black,no,no,768,1167,3.5.6,legacy,xpyriment,osweb,1.3.13,0,left,space,left,,32254,40556,32254,,2,legacy,824,1536,24,864,24,0,0,1536,1646229424889,1024,2,48000,-16,experiment,p4sarrshacol2.png,1,odd,Win32,96,152447,149432,96,96,223839,225345,218836,153965,218836,96,,,,,,visual_patterns,0,0,0,yes,1366
undefined,undefined,undefined,undefined,white,no,Mozilla,Netscape,"5.0 (Windows NT 10.0; Win64; x64) AppleWebKit/537.36 (KHTML, like Gecko) Chrome/98.0.4758.102 Safari/537.36",xpyriment,legacy,legacy,0,uniform,0,0,0,0,24,24,24,0,0,6,6,6,6,6,0,6,0,,,,,,0,,02-02-22,02-02-22,14:57:00,Wed Mar 02 2022 14:57:00 GMT+0100 (közép-európai téli idő),The main experiment item,yes,0,0,C:/Users/rrics/Documents/!!ResearchBMECOGSCI/gnet,0,0,0,prototype3.png,no,mono,no,18,no,black,no,no,768,1167,3.5.6,legacy,xpyriment,osweb,1.3.13,0,left,space,left,,32254,40556,32254,,2,legacy,824,1536,24,864,24,0,0,1536,1646229424889,1024,2,48000,-16,experiment,p5sarrsha2.png,1,odd,Win32,96,152447,149432,96,96,230361,231877,225360,153965,225360,96,,,,,,visual_patterns,0,0,0,yes,1366
undefined,undefined,undefined,undefined,white,no,Mozilla,Netscape,"5.0 (Windows NT 10.0; Win64; x64) AppleWebKit/537.36 (KHTML, like Gecko) Chrome/98.0.4758.102 Safari/537.36",xpyriment,legacy,legacy,0,uniform,0,0,0,0,24,24,24,0,0,7,7,7,7,7,0,7,0,,,,,,0,,02-02-22,02-02-22,14:57:00,Wed Mar 02 2022 14:57:00 GMT+0100 (közép-európai téli idő),The main experiment item,yes,0,0,C:/Users/rrics/Documents/!!ResearchBMECOGSCI/gnet,0,0,0,prototype3.png,no,mono,no,18,no,black,no,no,768,1167,3.5.6,legacy,xpyriment,osweb,1.3.13,0,left,space,left,,32254,40556,32254,,2,legacy,824,1536,24,864,24,0,0,1536,1646229424889,1024,2,48000,-16,experiment,p2sarr1.png,1,odd,Win32,96,152447,149432,96,96,236893,238394,231890,153965,231890,96,,,,,,visual_patterns,0,0,0,yes,1366
undefined,undefined,undefined,undefined,white,no,Mozilla,Netscape,"5.0 (Windows NT 10.0; Win64; x64) AppleWebKit/537.36 (KHTML, like Gecko) Chrome/98.0.4758.102 Safari/537.36",xpyriment,legacy,legacy,0,uniform,0,0,0,0,24,24,24,0,0,8,8,8,8,8,0,8,0,,,,,,0,,02-02-22,02-02-22,14:57:00,Wed Mar 02 2022 14:57:00 GMT+0100 (közép-európai téli idő),The main experiment item,yes,0,0,C:/Users/rrics/Documents/!!ResearchBMECOGSCI/gnet,0,0,0,prototype3.png,no,mono,no,18,no,black,no,no,768,1167,3.5.6,legacy,xpyriment,osweb,1.3.13,0,left,space,left,,32254,40556,32254,,2,legacy,824,1536,24,864,24,0,0,1536,1646229424889,1024,2,48000,-16,experiment,prototype4.png,1,odd,Win32,96,152447,149432,96,96,243411,244927,238407,153965,238407,96,,,,,,visual_patterns,0,0,0,yes,1366
undefined,undefined,undefined,undefined,white,no,Mozilla,Netscape,"5.0 (Windows NT 10.0; Win64; x64) AppleWebKit/537.36 (KHTML, like Gecko) Chrome/98.0.4758.102 Safari/537.36",xpyriment,legacy,legacy,0,uniform,0,0,0,0,24,24,24,0,0,9,9,9,9,9,0,9,0,,,,,,0,,02-02-22,02-02-22,14:57:00,Wed Mar 02 2022 14:57:00 GMT+0100 (közép-európai téli idő),The main experiment item,yes,0,0,C:/Users/rrics/Documents/!!ResearchBMECOGSCI/gnet,0,0,0,prototype3.png,no,mono,no,18,no,black,no,no,768,1167,3.5.6,legacy,xpyriment,osweb,1.3.13,0,left,space,left,,32254,40556,32254,,2,legacy,824,1536,24,864,24,0,0,1536,1646229424889,1024,2,48000,-16,experiment,p5sarrsha1.png,1,odd,Win32,96,152447,149432,96,96,249939,251444,244940,153965,244940,96,,,,,,visual_patterns,0,0,0,yes,1366
undefined,undefined,undefined,undefined,white,no,Mozilla,Netscape,"5.0 (Windows NT 10.0; Win64; x64) AppleWebKit/537.36 (KHTML, like Gecko) Chrome/98.0.4758.102 Safari/537.36",xpyriment,legacy,legacy,0,uniform,0,0,0,0,24,24,24,0,0,10,10,10,10,10,0,10,0,,,,,,0,,02-02-22,02-02-22,14:57:00,Wed Mar 02 2022 14:57:00 GMT+0100 (közép-európai téli idő),The main experiment item,yes,0,0,C:/Users/rrics/Documents/!!ResearchBMECOGSCI/gnet,0,0,0,prototype3.png,no,mono,no,18,no,black,no,no,768,1167,3.5.6,legacy,xpyriment,osweb,1.3.13,0,left,space,left,,32254,40556,32254,,2,legacy,824,1536,24,864,24,0,0,1536,1646229424889,1024,2,48000,-16,experiment,p5sarrcol1.png,1,odd,Win32,96,152447,149432,96,96,256458,257960,251460,153965,251460,96,,,,,,visual_patterns,0,0,0,yes,1366
undefined,undefined,undefined,undefined,white,no,Mozilla,Netscape,"5.0 (Windows NT 10.0; Win64; x64) AppleWebKit/537.36 (KHTML, like Gecko) Chrome/98.0.4758.102 Safari/537.36",xpyriment,legacy,legacy,0,uniform,0,0,0,0,24,24,24,0,0,11,11,11,11,11,0,11,0,,,,,,0,,02-02-22,02-02-22,14:57:00,Wed Mar 02 2022 14:57:00 GMT+0100 (közép-európai téli idő),The main experiment item,yes,0,0,C:/Users/rrics/Documents/!!ResearchBMECOGSCI/gnet,0,0,0,prototype3.png,no,mono,no,18,no,black,no,no,768,1167,3.5.6,legacy,xpyriment,osweb,1.3.13,0,left,space,left,,32254,40556,32254,,2,legacy,824,1536,24,864,24,0,0,1536,1646229424889,1024,2,48000,-16,experiment,p8sarr2.png,1,odd,Win32,96,152447,149432,96,96,262968,264477,257967,153965,257967,96,,,,,,visual_patterns,0,0,0,yes,1366
undefined,undefined,undefined,undefined,white,no,Mozilla,Netscape,"5.0 (Windows NT 10.0; Win64; x64) AppleWebKit/537.36 (KHTML, like Gecko) Chrome/98.0.4758.102 Safari/537.36",xpyriment,legacy,legacy,0,uniform,0,0,0,0,24,24,24,0,0,12,12,12,12,12,0,12,0,,,,,,0,,02-02-22,02-02-22,14:57:00,Wed Mar 02 2022 14:57:00 GMT+0100 (közép-európai téli idő),The main experiment item,yes,0,0,C:/Users/rrics/Documents/!!ResearchBMECOGSCI/gnet,0,0,0,prototype3.png,no,mono,no,18,no,black,no,no,768,1167,3.5.6,legacy,xpyriment,osweb,1.3.13,0,left,space,left,,32254,40556,32254,,2,legacy,824,1536,24,864,24,0,0,1536,1646229424889,1024,2,48000,-16,experiment,p5sarrshacol2.png,1,odd,Win32,96,152447,149432,96,96,269488,270993,264488,153965,264487,96,,,,,,visual_patterns,0,0,0,yes,1366
undefined,undefined,undefined,undefined,white,no,Mozilla,Netscape,"5.0 (Windows NT 10.0; Win64; x64) AppleWebKit/537.36 (KHTML, like Gecko) Chrome/98.0.4758.102 Safari/537.36",xpyriment,legacy,legacy,0,uniform,0,0,0,0,24,24,24,0,0,13,13,13,13,13,0,13,0,,,,,,0,,02-02-22,02-02-22,14:57:00,Wed Mar 02 2022 14:57:00 GMT+0100 (közép-európai téli idő),The main experiment item,yes,0,0,C:/Users/rrics/Documents/!!ResearchBMECOGSCI/gnet,0,0,0,prototype3.png,no,mono,no,18,no,black,no,no,768,1167,3.5.6,legacy,xpyriment,osweb,1.3.13,0,left,space,left,,32254,40556,32254,,2,legacy,824,1536,24,864,24,0,0,1536,1646229424889,1024,2,48000,-16,experiment,p8sarr1.png,1,odd,Win32,96,152447,149432,96,96,276008,277509,271008,153965,271008,96,,,,,,visual_patterns,0,0,0,yes,1366
undefined,undefined,undefined,undefined,white,no,Mozilla,Netscape,"5.0 (Windows NT 10.0; Win64; x64) AppleWebKit/537.36 (KHTML, like Gecko) Chrome/98.0.4758.102 Safari/537.36",xpyriment,legacy,legacy,0,uniform,0,0,0,0,24,24,24,0,0,14,14,14,14,14,0,14,0,,,,,,0,,02-02-22,02-02-22,14:57:00,Wed Mar 02 2022 14:57:00 GMT+0100 (közép-európai téli idő),The main experiment item,yes,0,0,C:/Users/rrics/Documents/!!ResearchBMECOGSCI/gnet,0,0,0,prototype3.png,no,mono,no,18,no,black,no,no,768,1167,3.5.6,legacy,xpyriment,osweb,1.3.13,0,left,space,left,,32254,40556,32254,,2,legacy,824,1536,24,864,24,0,0,1536,1646229424889,1024,2,48000,-16,experiment,p3sarrcol1.png,1,odd,Win32,96,152447,149432,96,96,282524,284026,277521,153965,277521,96,,,,,,visual_patterns,0,0,0,yes,1366
undefined,undefined,undefined,undefined,white,no,Mozilla,Netscape,"5.0 (Windows NT 10.0; Win64; x64) AppleWebKit/537.36 (KHTML, like Gecko) Chrome/98.0.4758.102 Safari/537.36",xpyriment,legacy,legacy,0,uniform,0,0,0,0,24,24,24,0,0,15,15,15,15,15,0,15,0,,,,,,0,,02-02-22,02-02-22,14:57:00,Wed Mar 02 2022 14:57:00 GMT+0100 (közép-európai téli idő),The main experiment item,yes,0,0,C:/Users/rrics/Documents/!!ResearchBMECOGSCI/gnet,0,0,0,prototype3.png,no,mono,no,18,no,black,no,no,768,1167,3.5.6,legacy,xpyriment,osweb,1.3.13,0,left,space,left,,32254,40556,32254,,2,legacy,824,1536,24,864,24,0,0,1536,1646229424889,1024,2,48000,-16,experiment,prototype1.png,1,odd,Win32,96,152447,149432,96,96,289040,290543,284039,153965,284039,96,,,,,,visual_patterns,0,0,0,yes,1366
undefined,undefined,undefined,undefined,white,no,Mozilla,Netscape,"5.0 (Windows NT 10.0; Win64; x64) AppleWebKit/537.36 (KHTML, like Gecko) Chrome/98.0.4758.102 Safari/537.36",xpyriment,legacy,legacy,0,uniform,0,0,0,0,24,24,24,0,0,16,16,16,16,16,0,16,0,,,,,,0,,02-02-22,02-02-22,14:57:00,Wed Mar 02 2022 14:57:00 GMT+0100 (közép-európai téli idő),The main experiment item,yes,0,0,C:/Users/rrics/Documents/!!ResearchBMECOGSCI/gnet,0,0,0,prototype3.png,no,mono,no,18,no,black,no,no,768,1167,3.5.6,legacy,xpyriment,osweb,1.3.13,0,left,space,left,,32254,40556,32254,,2,legacy,824,1536,24,864,24,0,0,1536,1646229424889,1024,2,48000,-16,experiment,p2sarr2.png,1,odd,Win32,96,152447,149432,96,96,295555,297059,290555,153965,290555,96,,,,,,visual_patterns,0,0,0,yes,1366
undefined,undefined,undefined,undefined,white,no,Mozilla,Netscape,"5.0 (Windows NT 10.0; Win64; x64) AppleWebKit/537.36 (KHTML, like Gecko) Chrome/98.0.4758.102 Safari/537.36",xpyriment,legacy,legacy,0,uniform,0,0,0,0,24,24,24,0,0,17,17,17,17,17,0,17,0,,,,,,0,,02-02-22,02-02-22,14:57:00,Wed Mar 02 2022 14:57:00 GMT+0100 (közép-európai téli idő),The main experiment item,yes,0,0,C:/Users/rrics/Documents/!!ResearchBMECOGSCI/gnet,0,0,0,prototype3.png,no,mono,no,18,no,black,no,no,768,1167,3.5.6,legacy,xpyriment,osweb,1.3.13,0,left,space,left,,32254,40556,32254,,2,legacy,824,1536,24,864,24,0,0,1536,1646229424889,1024,2,48000,-16,experiment,p3sarrsha2.png,1,odd,Win32,96,152447,149432,96,96,302067,303575,297065,153965,297065,96,,,,,,visual_patterns,0,0,0,yes,1366
undefined,undefined,undefined,undefined,white,no,Mozilla,Netscape,"5.0 (Windows NT 10.0; Win64; x64) AppleWebKit/537.36 (KHTML, like Gecko) Chrome/98.0.4758.102 Safari/537.36",xpyriment,legacy,legacy,0,uniform,0,0,0,0,24,24,24,0,0,18,18,18,18,18,0,18,0,,,,,,0,,02-02-22,02-02-22,14:57:00,Wed Mar 02 2022 14:57:00 GMT+0100 (közép-európai téli idő),The main experiment item,yes,0,0,C:/Users/rrics/Documents/!!ResearchBMECOGSCI/gnet,0,0,0,prototype3.png,no,mono,no,18,no,black,no,no,768,1167,3.5.6,legacy,xpyriment,osweb,1.3.13,0,left,space,left,,32254,40556,32254,,2,legacy,824,1536,24,864,24,0,0,1536,1646229424889,1024,2,48000,-16,experiment,prototype4.png,1,odd,Win32,96,152447,149432,96,96,308587,310092,303586,153965,303586,96,,,,,,visual_patterns,0,0,0,yes,1366
undefined,undefined,undefined,undefined,white,no,Mozilla,Netscape,"5.0 (Windows NT 10.0; Win64; x64) AppleWebKit/537.36 (KHTML, like Gecko) Chrome/98.0.4758.102 Safari/537.36",xpyriment,legacy,legacy,0,uniform,0,0,0,0,24,24,24,0,0,19,19,19,19,19,0,19,0,,,,,,0,,02-02-22,02-02-22,14:57:00,Wed Mar 02 2022 14:57:00 GMT+0100 (közép-európai téli idő),The main experiment item,yes,0,0,C:/Users/rrics/Documents/!!ResearchBMECOGSCI/gnet,0,0,0,prototype3.png,no,mono,no,18,no,black,no,no,768,1167,3.5.6,legacy,xpyriment,osweb,1.3.13,0,left,space,left,,32254,40556,32254,,2,legacy,824,1536,24,864,24,0,0,1536,1646229424889,1024,2,48000,-16,experiment,p3sarrsha1.png,1,odd,Win32,96,152447,149432,96,96,315109,316625,310109,153965,310109,96,,,,,,visual_patterns,0,0,0,yes,1366
undefined,undefined,undefined,undefined,white,no,Mozilla,Netscape,"5.0 (Windows NT 10.0; Win64; x64) AppleWebKit/537.36 (KHTML, like Gecko) Chrome/98.0.4758.102 Safari/537.36",xpyriment,legacy,legacy,0,uniform,0,0,0,0,24,24,24,0,0,20,20,20,20,20,0,20,0,,,,,,0,,02-02-22,02-02-22,14:57:00,Wed Mar 02 2022 14:57:00 GMT+0100 (közép-európai téli idő),The main experiment item,yes,0,0,C:/Users/rrics/Documents/!!ResearchBMECOGSCI/gnet,0,0,0,prototype3.png,no,mono,no,18,no,black,no,no,768,1167,3.5.6,legacy,xpyriment,osweb,1.3.13,0,left,space,left,,32254,40556,32254,,2,legacy,824,1536,24,864,24,0,0,1536,1646229424889,1024,2,48000,-16,experiment,prototype2.png,1,odd,Win32,96,152447,149432,96,96,321638,323142,316638,153965,316638,96,,,,,,visual_patterns,0,0,0,yes,1366
undefined,undefined,undefined,undefined,white,no,Mozilla,Netscape,"5.0 (Windows NT 10.0; Win64; x64) AppleWebKit/537.36 (KHTML, like Gecko) Chrome/98.0.4758.102 Safari/537.36",xpyriment,legacy,legacy,0,uniform,0,0,0,0,24,24,24,0,0,21,21,21,21,21,0,21,0,,,,,,0,,02-02-22,02-02-22,14:57:00,Wed Mar 02 2022 14:57:00 GMT+0100 (közép-európai téli idő),The main experiment item,yes,0,0,C:/Users/rrics/Documents/!!ResearchBMECOGSCI/gnet,0,0,0,prototype3.png,no,mono,no,18,no,black,no,no,768,1167,3.5.6,legacy,xpyriment,osweb,1.3.13,0,left,space,left,,32254,40556,32254,,2,legacy,824,1536,24,864,24,0,0,1536,1646229424889,1024,2,48000,-16,experiment,p4sarrcol2.png,1,odd,Win32,96,152447,149432,96,96,328156,329658,323155,153965,323155,96,,,,,,visual_patterns,0,0,0,yes,1366
undefined,undefined,undefined,undefined,white,no,Mozilla,Netscape,"5.0 (Windows NT 10.0; Win64; x64) AppleWebKit/537.36 (KHTML, like Gecko) Chrome/98.0.4758.102 Safari/537.36",xpyriment,legacy,legacy,0,uniform,0,0,0,0,24,24,24,0,0,22,22,22,22,22,0,22,0,,,,,,0,,02-02-22,02-02-22,14:57:00,Wed Mar 02 2022 14:57:00 GMT+0100 (közép-európai téli idő),The main experiment item,yes,0,0,C:/Users/rrics/Documents/!!ResearchBMECOGSCI/gnet,0,0,0,prototype3.png,no,mono,no,18,no,black,no,no,768,1167,3.5.6,legacy,xpyriment,osweb,1.3.13,0,left,space,left,,32254,40556,32254,,2,legacy,824,1536,24,864,24,0,0,1536,1646229424889,1024,2,48000,-16,experiment,p5sarrshacol1.png,1,odd,Win32,96,152447,149432,96,96,334672,336175,329672,153965,329672,96,,,,,,visual_patterns,0,0,0,yes,1366
undefined,undefined,undefined,undefined,white,no,Mozilla,Netscape,"5.0 (Windows NT 10.0; Win64; x64) AppleWebKit/537.36 (KHTML, like Gecko) Chrome/98.0.4758.102 Safari/537.36",xpyriment,legacy,legacy,0,uniform,0,0,0,0,24,24,24,0,0,23,23,23,23,23,0,23,0,,,,,,0,,02-02-22,02-02-22,14:57:00,Wed Mar 02 2022 14:57:00 GMT+0100 (közép-európai téli idő),The main experiment item,yes,0,0,C:/Users/rrics/Documents/!!ResearchBMECOGSCI/gnet,0,0,0,prototype3.png,no,mono,no,18,no,black,no,no,768,1167,3.5.6,legacy,xpyriment,osweb,1.3.13,0,left,space,left,,32254,40556,32254,,2,legacy,824,1536,24,864,24,0,0,1536,1646229424889,1024,2,48000,-16,experiment,prototype2.png,1,odd,Win32,96,152447,149432,96,96,341188,342691,336184,153965,336184,96,,,,,,visual_patterns,0,0,0,yes,1366
undefined,undefined,undefined,undefined,white,no,Mozilla,Netscape,"5.0 (Windows NT 10.0; Win64; x64) AppleWebKit/537.36 (KHTML, like Gecko) Chrome/98.0.4758.102 Safari/537.36",xpyriment,legacy,legacy,0,uniform,0,0,0,0,24,24,24,0,0,24,24,24,24,24,0,24,0,,,,,,0,,02-02-22,02-02-22,14:57:00,Wed Mar 02 2022 14:57:00 GMT+0100 (közép-európai téli idő),The main experiment item,yes,0,0,C:/Users/rrics/Documents/!!ResearchBMECOGSCI/gnet,0,0,0,prototype3.png,no,mono,no,18,no,black,no,no,768,1167,3.5.6,legacy,xpyriment,osweb,1.3.13,0,left,space,left,,32254,40556,32254,,2,legacy,824,1536,24,864,24,0,0,1536,1646229424889,1024,2,48000,-16,experiment,p4sarrsha2.png,1,odd,Win32,96,152447,149432,96,96,347723,349224,342721,153965,342721,96,,,,,,visual_patterns,0,0,0,yes,1366
undefined,undefined,undefined,undefined,white,no,Mozilla,Netscape,"5.0 (Windows NT 10.0; Win64; x64) AppleWebKit/537.36 (KHTML, like Gecko) Chrome/98.0.4758.102 Safari/537.36",xpyriment,legacy,legacy,0,uniform,0,0,0,0,24,24,24,0,0,25,25,25,25,25,0,25,0,,,,,,0,,02-02-22,02-02-22,14:57:00,Wed Mar 02 2022 14:57:00 GMT+0100 (közép-európai téli idő),The main experiment item,yes,0,0,C:/Users/rrics/Documents/!!ResearchBMECOGSCI/gnet,0,0,0,prototype3.png,no,mono,no,18,no,black,no,no,768,1167,3.5.6,legacy,xpyriment,osweb,1.3.13,0,left,space,left,,32254,40556,32254,,2,legacy,824,1536,24,864,24,0,0,1536,1646229424889,1024,2,48000,-16,experiment,p9sarr1.png,1,odd,Win32,96,152447,149432,96,96,354234,355742,349235,153965,349235,96,,,,,,visual_patterns,0,0,0,yes,1366
undefined,undefined,undefined,undefined,white,no,Mozilla,Netscape,"5.0 (Windows NT 10.0; Win64; x64) AppleWebKit/537.36 (KHTML, like Gecko) Chrome/98.0.4758.102 Safari/537.36",xpyriment,legacy,legacy,0,uniform,0,0,0,0,24,24,24,0,0,26,26,26,26,26,0,26,0,,,,,,0,,02-02-22,02-02-22,14:57:00,Wed Mar 02 2022 14:57:00 GMT+0100 (közép-európai téli idő),The main experiment item,yes,0,0,C:/Users/rrics/Documents/!!ResearchBMECOGSCI/gnet,0,0,0,prototype3.png,no,mono,no,18,no,black,no,no,768,1167,3.5.6,legacy,xpyriment,osweb,1.3.13,0,left,space,left,,32254,40556,32254,,2,legacy,824,1536,24,864,24,0,0,1536,1646229424889,1024,2,48000,-16,experiment,prototype1.png,1,odd,Win32,96,152447,149432,96,96,360756,362257,355754,153965,355754,96,,,,,,visual_patterns,0,0,0,yes,1366
undefined,undefined,undefined,undefined,white,no,Mozilla,Netscape,"5.0 (Windows NT 10.0; Win64; x64) AppleWebKit/537.36 (KHTML, like Gecko) Chrome/98.0.4758.102 Safari/537.36",xpyriment,legacy,legacy,0,uniform,0,0,0,0,24,24,24,0,0,27,27,27,27,27,0,27,0,,,,,,0,,02-02-22,02-02-22,14:57:00,Wed Mar 02 2022 14:57:00 GMT+0100 (közép-európai téli idő),The main experiment item,yes,0,0,C:/Users/rrics/Documents/!!ResearchBMECOGSCI/gnet,0,0,0,prototype3.png,no,mono,no,18,no,black,no,no,768,1167,3.5.6,legacy,xpyriment,osweb,1.3.13,0,left,space,left,,32254,40556,32254,,2,legacy,824,1536,24,864,24,0,0,1536,1646229424889,1024,2,48000,-16,experiment,p4sarrcol1.png,1,odd,Win32,96,152447,149432,96,96,367267,368774,362270,153965,362270,96,,,,,,visual_patterns,0,0,0,yes,1366
undefined,undefined,undefined,undefined,white,no,Mozilla,Netscape,"5.0 (Windows NT 10.0; Win64; x64) AppleWebKit/537.36 (KHTML, like Gecko) Chrome/98.0.4758.102 Safari/537.36",xpyriment,legacy,legacy,0,uniform,0,0,0,0,24,24,24,0,0,28,28,28,28,28,0,28,0,,,,,,0,,02-02-22,02-02-22,14:57:00,Wed Mar 02 2022 14:57:00 GMT+0100 (közép-európai téli idő),The main experiment item,yes,0,0,C:/Users/rrics/Documents/!!ResearchBMECOGSCI/gnet,0,0,0,prototype3.png,no,mono,no,18,no,black,no,no,768,1167,3.5.6,legacy,xpyriment,osweb,1.3.13,0,left,space,left,,32254,40556,32254,,2,legacy,824,1536,24,864,24,0,0,1536,1646229424889,1024,2,48000,-16,experiment,prototype4.png,1,odd,Win32,96,152447,149432,96,96,373785,375290,368785,153965,368785,96,,,,,,visual_patterns,0,0,0,yes,1366
undefined,undefined,undefined,undefined,white,no,Mozilla,Netscape,"5.0 (Windows NT 10.0; Win64; x64) AppleWebKit/537.36 (KHTML, like Gecko) Chrome/98.0.4758.102 Safari/537.36",xpyriment,legacy,legacy,0,uniform,0,0,0,0,24,24,24,0,0,29,29,29,29,29,0,29,0,,,,,,0,,02-02-22,02-02-22,14:57:00,Wed Mar 02 2022 14:57:00 GMT+0100 (közép-európai téli idő),The main experiment item,yes,0,0,C:/Users/rrics/Documents/!!ResearchBMECOGSCI/gnet,0,0,0,prototype3.png,no,mono,no,18,no,black,no,no,768,1167,3.5.6,legacy,xpyriment,osweb,1.3.13,0,left,space,left,,32254,40556,32254,,2,legacy,824,1536,24,864,24,0,0,1536,1646229424889,1024,2,48000,-16,experiment,prototype5.png,1,odd,Win32,96,152447,149432,96,96,380298,381807,375299,153965,375299,96,,,,,,visual_patterns,0,0,0,yes,1366
undefined,undefined,undefined,undefined,white,no,Mozilla,Netscape,"5.0 (Windows NT 10.0; Win64; x64) AppleWebKit/537.36 (KHTML, like Gecko) Chrome/98.0.4758.102 Safari/537.36",xpyriment,legacy,legacy,0,uniform,0,0,0,0,24,24,24,0,0,30,30,30,30,30,0,30,0,,,,,,0,,02-02-22,02-02-22,14:57:00,Wed Mar 02 2022 14:57:00 GMT+0100 (közép-európai téli idő),The main experiment item,yes,0,0,C:/Users/rrics/Documents/!!ResearchBMECOGSCI/gnet,0,0,0,prototype3.png,no,mono,no,18,no,black,no,no,768,1167,3.5.6,legacy,xpyriment,osweb,1.3.13,0,left,space,left,,32254,40556,32254,,2,legacy,824,1536,24,864,24,0,0,1536,1646229424889,1024,2,48000,-16,experiment,p5sarrcol2.png,1,odd,Win32,96,152447,149432,96,96,386815,388323,381817,153965,381817,96,,,,,,visual_patterns,0,0,0,yes,1366
undefined,undefined,undefined,undefined,white,no,Mozilla,Netscape,"5.0 (Windows NT 10.0; Win64; x64) AppleWebKit/537.36 (KHTML, like Gecko) Chrome/98.0.4758.102 Safari/537.36",xpyriment,legacy,legacy,0,uniform,0,0,0,0,24,24,24,0,0,31,31,31,31,31,0,31,0,,,,,,0,,02-02-22,02-02-22,14:57:00,Wed Mar 02 2022 14:57:00 GMT+0100 (közép-európai téli idő),The main experiment item,yes,0,0,C:/Users/rrics/Documents/!!ResearchBMECOGSCI/gnet,0,0,0,prototype3.png,no,mono,no,18,no,black,no,no,768,1167,3.5.6,legacy,xpyriment,osweb,1.3.13,0,left,space,left,,32254,40556,32254,,2,legacy,824,1536,24,864,24,0,0,1536,1646229424889,1024,2,48000,-16,experiment,p2sarrsha2.png,1,odd,Win32,96,152447,149432,96,96,393331,394841,388332,153965,388332,96,,,,,,visual_patterns,0,0,0,yes,1366
undefined,undefined,undefined,undefined,white,no,Mozilla,Netscape,"5.0 (Windows NT 10.0; Win64; x64) AppleWebKit/537.36 (KHTML, like Gecko) Chrome/98.0.4758.102 Safari/537.36",xpyriment,legacy,legacy,0,uniform,0,0,0,0,24,24,24,0,0,32,32,32,32,32,0,32,0,,,,,,0,,02-02-22,02-02-22,14:57:00,Wed Mar 02 2022 14:57:00 GMT+0100 (közép-európai téli idő),The main experiment item,yes,0,0,C:/Users/rrics/Documents/!!ResearchBMECOGSCI/gnet,0,0,0,prototype3.png,no,mono,no,18,no,black,no,no,768,1167,3.5.6,legacy,xpyriment,osweb,1.3.13,0,left,space,left,,32254,40556,32254,,2,legacy,824,1536,24,864,24,0,0,1536,1646229424889,1024,2,48000,-16,experiment,p5sarr1.png,1,odd,Win32,96,152447,149432,96,96,399853,401356,394851,153965,394851,96,,,,,,visual_patterns,0,0,0,yes,1366
undefined,undefined,undefined,undefined,white,no,Mozilla,Netscape,"5.0 (Windows NT 10.0; Win64; x64) AppleWebKit/537.36 (KHTML, like Gecko) Chrome/98.0.4758.102 Safari/537.36",xpyriment,legacy,legacy,0,uniform,0,0,0,0,24,24,24,0,0,33,33,33,33,33,0,33,0,,,,,,0,,02-02-22,02-02-22,14:57:00,Wed Mar 02 2022 14:57:00 GMT+0100 (közép-európai téli idő),The main experiment item,yes,0,0,C:/Users/rrics/Documents/!!ResearchBMECOGSCI/gnet,0,0,0,prototype3.png,no,mono,no,18,no,black,no,no,768,1167,3.5.6,legacy,xpyriment,osweb,1.3.13,0,left,space,left,,32254,40556,32254,,2,legacy,824,1536,24,864,24,0,0,1536,1646229424889,1024,2,48000,-16,experiment,p3sarrshacol1.png,1,odd,Win32,96,152447,149432,96,96,406370,407873,401371,153965,401371,96,,,,,,visual_patterns,0,0,0,yes,1366
undefined,undefined,undefined,undefined,white,no,Mozilla,Netscape,"5.0 (Windows NT 10.0; Win64; x64) AppleWebKit/537.36 (KHTML, like Gecko) Chrome/98.0.4758.102 Safari/537.36",xpyriment,legacy,legacy,0,uniform,0,0,0,0,24,24,24,0,0,34,34,34,34,34,0,34,0,,,,,,0,,02-02-22,02-02-22,14:57:00,Wed Mar 02 2022 14:57:00 GMT+0100 (közép-európai téli idő),The main experiment item,yes,0,0,C:/Users/rrics/Documents/!!ResearchBMECOGSCI/gnet,0,0,0,prototype3.png,no,mono,no,18,no,black,no,no,768,1167,3.5.6,legacy,xpyriment,osweb,1.3.13,0,left,space,left,,32254,40556,32254,,2,legacy,824,1536,24,864,24,0,0,1536,1646229424889,1024,2,48000,-16,experiment,prototype1.png,1,odd,Win32,96,152447,149432,96,96,412888,414389,407884,153965,407884,96,,,,,,visual_patterns,0,0,0,yes,1366
undefined,undefined,undefined,undefined,white,no,Mozilla,Netscape,"5.0 (Windows NT 10.0; Win64; x64) AppleWebKit/537.36 (KHTML, like Gecko) Chrome/98.0.4758.102 Safari/537.36",xpyriment,legacy,legacy,0,uniform,0,0,0,0,24,24,24,0,0,35,35,35,35,35,0,35,0,,,,,,0,,02-02-22,02-02-22,14:57:00,Wed Mar 02 2022 14:57:00 GMT+0100 (közép-európai téli idő),The main experiment item,yes,0,0,C:/Users/rrics/Documents/!!ResearchBMECOGSCI/gnet,0,0,0,prototype3.png,no,mono,no,18,no,black,no,no,768,1167,3.5.6,legacy,xpyriment,osweb,1.3.13,0,left,space,left,,32254,40556,32254,,2,legacy,824,1536,24,864,24,0,0,1536,1646229424889,1024,2,48000,-16,experiment,p4sarrshacol1.png,1,odd,Win32,96,152447,149432,96,96,419405,420906,414406,153965,414406,96,,,,,,visual_patterns,0,0,0,yes,1366
undefined,undefined,undefined,undefined,white,no,Mozilla,Netscape,"5.0 (Windows NT 10.0; Win64; x64) AppleWebKit/537.36 (KHTML, like Gecko) Chrome/98.0.4758.102 Safari/537.36",xpyriment,legacy,legacy,0,uniform,0,0,0,0,24,24,24,0,0,36,36,36,36,36,0,36,0,,,,,,0,,02-02-22,02-02-22,14:57:00,Wed Mar 02 2022 14:57:00 GMT+0100 (közép-európai téli idő),The main experiment item,yes,0,0,C:/Users/rrics/Documents/!!ResearchBMECOGSCI/gnet,0,0,0,prototype3.png,no,mono,no,18,no,black,no,no,768,1167,3.5.6,legacy,xpyriment,osweb,1.3.13,0,left,space,left,,32254,40556,32254,,2,legacy,824,1536,24,864,24,0,0,1536,1646229424889,1024,2,48000,-16,experiment,prototype3.png,1,odd,Win32,96,152447,149432,96,96,425920,427422,420917,153965,420917,96,,,,,,visual_patterns,0,0,0,yes,1366
undefined,undefined,undefined,undefined,white,no,Mozilla,Netscape,"5.0 (Windows NT 10.0; Win64; x64) AppleWebKit/537.36 (KHTML, like Gecko) Chrome/98.0.4758.102 Safari/537.36",xpyriment,legacy,legacy,0,uniform,0,0,0,0,24,24,24,0,0,37,37,37,37,37,0,37,0,,,,,,0,,02-02-22,02-02-22,14:57:00,Wed Mar 02 2022 14:57:00 GMT+0100 (közép-európai téli idő),The main experiment item,yes,0,0,C:/Users/rrics/Documents/!!ResearchBMECOGSCI/gnet,0,0,0,prototype3.png,no,mono,no,18,no,black,no,no,768,1167,3.5.6,legacy,xpyriment,osweb,1.3.13,0,left,space,left,,32254,40556,32254,,2,legacy,824,1536,24,864,24,0,0,1536,1646229424889,1024,2,48000,-16,experiment,prototype3.png,1,odd,Win32,96,152447,149432,96,96,432436,433939,427432,153965,427432,96,,,,,,visual_patterns,0,0,0,yes,1366
undefined,undefined,undefined,undefined,white,no,Mozilla,Netscape,"5.0 (Windows NT 10.0; Win64; x64) AppleWebKit/537.36 (KHTML, like Gecko) Chrome/98.0.4758.102 Safari/537.36",xpyriment,legacy,legacy,0,uniform,0,0,0,0,24,24,24,0,0,38,38,38,38,38,0,38,0,,,,,,0,,02-02-22,02-02-22,14:57:00,Wed Mar 02 2022 14:57:00 GMT+0100 (közép-európai téli idő),The main experiment item,yes,0,0,C:/Users/rrics/Documents/!!ResearchBMECOGSCI/gnet,0,0,0,prototype3.png,no,mono,no,18,no,black,no,no,768,1167,3.5.6,legacy,xpyriment,osweb,1.3.13,0,left,space,left,,32254,40556,32254,,2,legacy,824,1536,24,864,24,0,0,1536,1646229424889,1024,2,48000,-16,experiment,p7sarr1.png,1,odd,Win32,96,152447,149432,96,96,438951,440455,433952,153965,433952,96,,,,,,visual_patterns,0,0,0,yes,1366
undefined,undefined,undefined,undefined,white,no,Mozilla,Netscape,"5.0 (Windows NT 10.0; Win64; x64) AppleWebKit/537.36 (KHTML, like Gecko) Chrome/98.0.4758.102 Safari/537.36",xpyriment,legacy,legacy,0,uniform,0,0,0,0,24,24,24,0,0,39,39,39,39,39,0,39,0,,,,,,0,,02-02-22,02-02-22,14:57:00,Wed Mar 02 2022 14:57:00 GMT+0100 (közép-európai téli idő),The main experiment item,yes,0,0,C:/Users/rrics/Documents/!!ResearchBMECOGSCI/gnet,0,0,0,prototype3.png,no,mono,no,18,no,black,no,no,768,1167,3.5.6,legacy,xpyriment,osweb,1.3.13,0,left,space,left,,32254,40556,32254,,2,legacy,824,1536,24,864,24,0,0,1536,1646229424889,1024,2,48000,-16,experiment,p1sarrsha1.png,1,odd,Win32,96,152447,149432,96,96,445470,446972,440467,153965,440467,96,,,,,,visual_patterns,0,0,0,yes,1366
undefined,undefined,undefined,undefined,white,no,Mozilla,Netscape,"5.0 (Windows NT 10.0; Win64; x64) AppleWebKit/537.36 (KHTML, like Gecko) Chrome/98.0.4758.102 Safari/537.36",xpyriment,legacy,legacy,0,uniform,0,0,0,0,24,24,24,0,0,40,40,40,40,40,0,40,0,,,,,,0,,02-02-22,02-02-22,14:57:00,Wed Mar 02 2022 14:57:00 GMT+0100 (közép-európai téli idő),The main experiment item,yes,0,0,C:/Users/rrics/Documents/!!ResearchBMECOGSCI/gnet,0,0,0,prototype3.png,no,mono,no,18,no,black,no,no,768,1167,3.5.6,legacy,xpyriment,osweb,1.3.13,0,left,space,left,,32254,40556,32254,,2,legacy,824,1536,24,864,24,0,0,1536,1646229424889,1024,2,48000,-16,experiment,prototype5.png,1,odd,Win32,96,152447,149432,96,96,451985,453488,446985,153965,446985,96,,,,,,visual_patterns,0,0,0,yes,1366
undefined,undefined,undefined,undefined,white,no,Mozilla,Netscape,"5.0 (Windows NT 10.0; Win64; x64) AppleWebKit/537.36 (KHTML, like Gecko) Chrome/98.0.4758.102 Safari/537.36",xpyriment,legacy,legacy,0,uniform,0,0,0,0,24,24,24,0,0,41,41,41,41,41,0,41,0,,,,,,0,,02-02-22,02-02-22,14:57:00,Wed Mar 02 2022 14:57:00 GMT+0100 (közép-európai téli idő),The main experiment item,yes,0,0,C:/Users/rrics/Documents/!!ResearchBMECOGSCI/gnet,0,0,0,prototype3.png,no,mono,no,18,no,black,no,no,768,1167,3.5.6,legacy,xpyriment,osweb,1.3.13,0,left,space,left,,32254,40556,32254,,2,legacy,824,1536,24,864,24,0,0,1536,1646229424889,1024,2,48000,-16,experiment,p3sarrshacol2.png,1,odd,Win32,96,152447,149432,96,96,458500,460005,453500,153965,453500,96,,,,,,visual_patterns,0,0,0,yes,1366
undefined,undefined,undefined,undefined,white,no,Mozilla,Netscape,"5.0 (Windows NT 10.0; Win64; x64) AppleWebKit/537.36 (KHTML, like Gecko) Chrome/98.0.4758.102 Safari/537.36",xpyriment,legacy,legacy,0,uniform,0,0,0,0,24,24,24,0,0,42,42,42,42,42,0,42,0,,,,,,0,,02-02-22,02-02-22,14:57:00,Wed Mar 02 2022 14:57:00 GMT+0100 (közép-európai téli idő),The main experiment item,yes,0,0,C:/Users/rrics/Documents/!!ResearchBMECOGSCI/gnet,0,0,0,prototype3.png,no,mono,no,18,no,black,no,no,768,1167,3.5.6,legacy,xpyriment,osweb,1.3.13,0,left,space,left,,32254,40556,32254,,2,legacy,824,1536,24,864,24,0,0,1536,1646229424889,1024,2,48000,-16,experiment,p3sarrcol2.png,1,odd,Win32,96,152447,149432,96,96,465020,466521,460017,153965,460017,96,,,,,,visual_patterns,0,0,0,yes,1366
undefined,undefined,undefined,undefined,white,no,Mozilla,Netscape,"5.0 (Windows NT 10.0; Win64; x64) AppleWebKit/537.36 (KHTML, like Gecko) Chrome/98.0.4758.102 Safari/537.36",xpyriment,legacy,legacy,0,uniform,0,0,0,0,24,24,24,0,0,43,43,43,43,43,0,43,0,,,,,,0,,02-02-22,02-02-22,14:57:00,Wed Mar 02 2022 14:57:00 GMT+0100 (közép-európai téli idő),The main experiment item,yes,0,0,C:/Users/rrics/Documents/!!ResearchBMECOGSCI/gnet,0,0,0,prototype3.png,no,mono,no,18,no,black,no,no,768,1167,3.5.6,legacy,xpyriment,osweb,1.3.13,0,left,space,left,,32254,40556,32254,,2,legacy,824,1536,24,864,24,0,0,1536,1646229424889,1024,2,48000,-16,experiment,p3sarr2.png,1,odd,Win32,96,152447,149432,96,96,471532,473037,466529,153965,466529,96,,,,,,visual_patterns,0,0,0,yes,1366
undefined,undefined,undefined,undefined,white,no,Mozilla,Netscape,"5.0 (Windows NT 10.0; Win64; x64) AppleWebKit/537.36 (KHTML, like Gecko) Chrome/98.0.4758.102 Safari/537.36",xpyriment,legacy,legacy,0,uniform,0,0,0,0,24,24,24,0,0,44,44,44,44,44,0,44,0,,,,,,0,,02-02-22,02-02-22,14:57:00,Wed Mar 02 2022 14:57:00 GMT+0100 (közép-európai téli idő),The main experiment item,yes,0,0,C:/Users/rrics/Documents/!!ResearchBMECOGSCI/gnet,0,0,0,prototype3.png,no,mono,no,18,no,black,no,no,768,1167,3.5.6,legacy,xpyriment,osweb,1.3.13,0,left,space,left,,32254,40556,32254,,2,legacy,824,1536,24,864,24,0,0,1536,1646229424889,1024,2,48000,-16,experiment,p2sarrsha1.png,1,odd,Win32,96,152447,149432,96,96,478050,479554,473050,153965,473050,96,,,,,,visual_patterns,0,0,0,yes,1366
undefined,undefined,undefined,undefined,white,no,Mozilla,Netscape,"5.0 (Windows NT 10.0; Win64; x64) AppleWebKit/537.36 (KHTML, like Gecko) Chrome/98.0.4758.102 Safari/537.36",xpyriment,legacy,legacy,0,uniform,0,0,0,0,24,24,24,0,0,45,45,45,45,45,0,45,0,,,,,,0,,02-02-22,02-02-22,14:57:00,Wed Mar 02 2022 14:57:00 GMT+0100 (közép-európai téli idő),The main experiment item,yes,0,0,C:/Users/rrics/Documents/!!ResearchBMECOGSCI/gnet,0,0,0,prototype3.png,no,mono,no,18,no,black,no,no,768,1167,3.5.6,legacy,xpyriment,osweb,1.3.13,0,left,space,left,,32254,40556,32254,,2,legacy,824,1536,24,864,24,0,0,1536,1646229424889,1024,2,48000,-16,experiment,p4sarrsha1.png,1,odd,Win32,96,152447,149432,96,96,484568,486070,479568,153965,479568,96,,,,,,visual_patterns,0,0,0,yes,1366
undefined,undefined,undefined,undefined,white,no,Mozilla,Netscape,"5.0 (Windows NT 10.0; Win64; x64) AppleWebKit/537.36 (KHTML, like Gecko) Chrome/98.0.4758.102 Safari/537.36",xpyriment,legacy,legacy,0,uniform,0,0,0,0,24,24,24,0,0,46,46,46,46,46,0,46,0,,,,,,0,,02-02-22,02-02-22,14:57:00,Wed Mar 02 2022 14:57:00 GMT+0100 (közép-európai téli idő),The main experiment item,yes,0,0,C:/Users/rrics/Documents/!!ResearchBMECOGSCI/gnet,0,0,0,prototype3.png,no,mono,no,18,no,black,no,no,768,1167,3.5.6,legacy,xpyriment,osweb,1.3.13,0,left,space,left,,32254,40556,32254,,2,legacy,824,1536,24,864,24,0,0,1536,1646229424889,1024,2,48000,-16,experiment,p1sarrcol1.png,1,odd,Win32,96,152447,149432,96,96,491082,492587,486080,153965,486080,96,,,,,,visual_patterns,0,0,0,yes,1366
undefined,undefined,undefined,undefined,white,no,Mozilla,Netscape,"5.0 (Windows NT 10.0; Win64; x64) AppleWebKit/537.36 (KHTML, like Gecko) Chrome/98.0.4758.102 Safari/537.36",xpyriment,legacy,legacy,0,uniform,0,0,0,0,24,24,24,0,0,47,47,47,47,47,0,47,0,,,,,,0,,02-02-22,02-02-22,14:57:00,Wed Mar 02 2022 14:57:00 GMT+0100 (közép-európai téli idő),The main experiment item,yes,0,0,C:/Users/rrics/Documents/!!ResearchBMECOGSCI/gnet,0,0,0,prototype3.png,no,mono,no,18,no,black,no,no,768,1167,3.5.6,legacy,xpyriment,osweb,1.3.13,0,left,space,left,,32254,40556,32254,,2,legacy,824,1536,24,864,24,0,0,1536,1646229424889,1024,2,48000,-16,experiment,p1sarrsha2.png,1,odd,Win32,96,152447,149432,96,96,497597,499104,492600,153965,492600,96,,,,,,visual_patterns,0,0,0,yes,1366
undefined,undefined,undefined,undefined,white,no,Mozilla,Netscape,"5.0 (Windows NT 10.0; Win64; x64) AppleWebKit/537.36 (KHTML, like Gecko) Chrome/98.0.4758.102 Safari/537.36",xpyriment,legacy,legacy,0,uniform,0,0,0,0,24,24,24,0,0,48,48,48,48,48,0,48,0,,,,,,0,,02-02-22,02-02-22,14:57:00,Wed Mar 02 2022 14:57:00 GMT+0100 (közép-európai téli idő),The main experiment item,yes,0,0,C:/Users/rrics/Documents/!!ResearchBMECOGSCI/gnet,0,0,0,prototype3.png,no,mono,no,18,no,black,no,no,768,1167,3.5.6,legacy,xpyriment,osweb,1.3.13,0,left,space,left,,32254,40556,32254,,2,legacy,824,1536,24,864,24,0,0,1536,1646229424889,1024,2,48000,-16,experiment,p7sarr2.png,1,odd,Win32,96,152447,149432,96,96,504117,505620,499116,153965,499115,96,,,,,,visual_patterns,0,0,0,yes,1366
undefined,undefined,undefined,undefined,white,no,Mozilla,Netscape,"5.0 (Windows NT 10.0; Win64; x64) AppleWebKit/537.36 (KHTML, like Gecko) Chrome/98.0.4758.102 Safari/537.36",xpyriment,legacy,legacy,0,uniform,0,0,0,0,24,24,24,0,0,49,49,49,49,49,0,49,0,,,,,,0,,02-02-22,02-02-22,14:57:00,Wed Mar 02 2022 14:57:00 GMT+0100 (közép-európai téli idő),The main experiment item,yes,0,0,C:/Users/rrics/Documents/!!ResearchBMECOGSCI/gnet,0,0,0,prototype3.png,no,mono,no,18,no,black,no,no,768,1167,3.5.6,legacy,xpyriment,osweb,1.3.13,0,left,space,left,,32254,40556,32254,,2,legacy,824,1536,24,864,24,0,0,1536,1646229424889,1024,2,48000,-16,experiment,p4sarr1.png,1,odd,Win32,96,152447,149432,96,96,510635,512136,505634,153965,505634,96,,,,,,visual_patterns,0,0,0,yes,1366
undefined,undefined,undefined,undefined,white,no,Mozilla,Netscape,"5.0 (Windows NT 10.0; Win64; x64) AppleWebKit/537.36 (KHTML, like Gecko) Chrome/98.0.4758.102 Safari/537.36",xpyriment,legacy,legacy,0,uniform,0,0,0,0,24,24,24,0,0,50,50,50,50,50,0,50,0,,,,,,0,,02-02-22,02-02-22,14:57:00,Wed Mar 02 2022 14:57:00 GMT+0100 (közép-európai téli idő),The main experiment item,yes,0,0,C:/Users/rrics/Documents/!!ResearchBMECOGSCI/gnet,0,0,0,prototype3.png,no,mono,no,18,no,black,no,no,768,1167,3.5.6,legacy,xpyriment,osweb,1.3.13,0,left,space,left,,32254,40556,32254,,2,legacy,824,1536,24,864,24,0,0,1536,1646229424889,1024,2,48000,-16,experiment,p10sarr1.png,1,odd,Win32,96,152447,149432,96,96,517150,518654,512149,153965,512149,96,,,,,,visual_patterns,0,0,0,yes,1366
undefined,undefined,undefined,undefined,white,no,Mozilla,Netscape,"5.0 (Windows NT 10.0; Win64; x64) AppleWebKit/537.36 (KHTML, like Gecko) Chrome/98.0.4758.102 Safari/537.36",xpyriment,legacy,legacy,0,uniform,0,0,0,0,24,24,24,0,0,51,51,51,51,51,0,51,0,,,,,,0,,02-02-22,02-02-22,14:57:00,Wed Mar 02 2022 14:57:00 GMT+0100 (közép-európai téli idő),The main experiment item,yes,0,0,C:/Users/rrics/Documents/!!ResearchBMECOGSCI/gnet,0,0,0,prototype3.png,no,mono,no,18,no,black,no,no,768,1167,3.5.6,legacy,xpyriment,osweb,1.3.13,0,left,space,left,,32254,40556,32254,,2,legacy,824,1536,24,864,24,0,0,1536,1646229424889,1024,2,48000,-16,experiment,prototype3.png,1,odd,Win32,96,152447,149432,96,96,523671,525186,518667,153965,518667,96,,,,,,visual_patterns,0,0,0,yes,1366
undefined,undefined,undefined,undefined,white,no,Mozilla,Netscape,"5.0 (Windows NT 10.0; Win64; x64) AppleWebKit/537.36 (KHTML, like Gecko) Chrome/98.0.4758.102 Safari/537.36",xpyriment,legacy,legacy,0,uniform,0,0,0,0,24,24,24,0,0,52,52,52,52,52,0,52,0,,,,,,0,,02-02-22,02-02-22,14:57:00,Wed Mar 02 2022 14:57:00 GMT+0100 (közép-európai téli idő),The main experiment item,yes,0,0,C:/Users/rrics/Documents/!!ResearchBMECOGSCI/gnet,0,0,0,prototype3.png,no,mono,no,18,no,black,no,no,768,1167,3.5.6,legacy,xpyriment,osweb,1.3.13,0,left,space,left,,32254,40556,32254,,2,legacy,824,1536,24,864,24,0,0,1536,1646229424889,1024,2,48000,-16,experiment,p1sarr1.png,1,odd,Win32,96,152447,149432,96,96,530200,531703,525199,153965,525199,96,,,,,,visual_patterns,0,0,0,yes,1366
undefined,undefined,undefined,undefined,white,no,Mozilla,Netscape,"5.0 (Windows NT 10.0; Win64; x64) AppleWebKit/537.36 (KHTML, like Gecko) Chrome/98.0.4758.102 Safari/537.36",xpyriment,legacy,legacy,0,uniform,0,0,0,0,24,24,24,0,0,53,53,53,53,53,0,53,0,,,,,,0,,02-02-22,02-02-22,14:57:00,Wed Mar 02 2022 14:57:00 GMT+0100 (közép-európai téli idő),The main experiment item,yes,0,0,C:/Users/rrics/Documents/!!ResearchBMECOGSCI/gnet,0,0,0,prototype3.png,no,mono,no,18,no,black,no,no,768,1167,3.5.6,legacy,xpyriment,osweb,1.3.13,0,left,space,left,,32254,40556,32254,,2,legacy,824,1536,24,864,24,0,0,1536,1646229424889,1024,2,48000,-16,experiment,p1sarrcol2.png,1,odd,Win32,96,152447,149432,96,96,536717,538219,531718,153965,531718,96,,,,,,visual_patterns,0,0,0,yes,1366
undefined,undefined,undefined,undefined,white,no,Mozilla,Netscape,"5.0 (Windows NT 10.0; Win64; x64) AppleWebKit/537.36 (KHTML, like Gecko) Chrome/98.0.4758.102 Safari/537.36",xpyriment,legacy,legacy,0,uniform,0,0,0,0,24,24,24,0,0,54,54,54,54,54,0,54,0,,,,,,0,,02-02-22,02-02-22,14:57:00,Wed Mar 02 2022 14:57:00 GMT+0100 (közép-európai téli idő),The main experiment item,yes,0,0,C:/Users/rrics/Documents/!!ResearchBMECOGSCI/gnet,0,0,0,prototype3.png,no,mono,no,18,no,black,no,no,768,1167,3.5.6,legacy,xpyriment,osweb,1.3.13,0,left,space,left,,32254,40556,32254,,2,legacy,824,1536,24,864,24,0,0,1536,1646229424889,1024,2,48000,-16,experiment,p2sarrcol2.png,1,odd,Win32,96,152447,149432,96,96,543246,544753,538242,153965,538242,96,,,,,,visual_patterns,0,0,0,yes,1366
undefined,undefined,undefined,undefined,white,no,Mozilla,Netscape,"5.0 (Windows NT 10.0; Win64; x64) AppleWebKit/537.36 (KHTML, like Gecko) Chrome/98.0.4758.102 Safari/537.36",xpyriment,legacy,legacy,0,uniform,0,0,0,0,24,24,24,0,0,55,55,55,55,55,0,55,0,,,,,,0,,02-02-22,02-02-22,14:57:00,Wed Mar 02 2022 14:57:00 GMT+0100 (közép-európai téli idő),The main experiment item,yes,0,0,C:/Users/rrics/Documents/!!ResearchBMECOGSCI/gnet,0,0,0,prototype3.png,no,mono,no,18,no,black,no,no,768,1167,3.5.6,legacy,xpyriment,osweb,1.3.13,0,left,space,left,,32254,40556,32254,,2,legacy,824,1536,24,864,24,0,0,1536,1646229424889,1024,2,48000,-16,experiment,prototype4.png,1,odd,Win32,96,152447,149432,96,96,549765,551269,544767,153965,544767,96,,,,,,visual_patterns,0,0,0,yes,1366
undefined,undefined,undefined,undefined,white,no,Mozilla,Netscape,"5.0 (Windows NT 10.0; Win64; x64) AppleWebKit/537.36 (KHTML, like Gecko) Chrome/98.0.4758.102 Safari/537.36",xpyriment,legacy,legacy,0,uniform,0,0,0,0,24,24,24,0,0,56,56,56,56,56,0,56,0,,,,,,0,,02-02-22,02-02-22,14:57:00,Wed Mar 02 2022 14:57:00 GMT+0100 (közép-európai téli idő),The main experiment item,yes,0,0,C:/Users/rrics/Documents/!!ResearchBMECOGSCI/gnet,0,0,0,prototype3.png,no,mono,no,18,no,black,no,no,768,1167,3.5.6,legacy,xpyriment,osweb,1.3.13,0,left,space,left,,32254,40556,32254,,2,legacy,824,1536,24,864,24,0,0,1536,1646229424889,1024,2,48000,-16,experiment,p2sarrshacol1.png,1,odd,Win32,96,152447,149432,96,96,556281,557785,551282,153965,551282,96,,,,,,visual_patterns,0,0,0,yes,1366
undefined,undefined,undefined,undefined,white,no,Mozilla,Netscape,"5.0 (Windows NT 10.0; Win64; x64) AppleWebKit/537.36 (KHTML, like Gecko) Chrome/98.0.4758.102 Safari/537.36",xpyriment,legacy,legacy,0,uniform,0,0,0,0,24,24,24,0,0,57,57,57,57,57,0,57,0,,,,,,0,,02-02-22,02-02-22,14:57:00,Wed Mar 02 2022 14:57:00 GMT+0100 (közép-európai téli idő),The main experiment item,yes,0,0,C:/Users/rrics/Documents/!!ResearchBMECOGSCI/gnet,0,0,0,prototype3.png,no,mono,no,18,no,black,no,no,768,1167,3.5.6,legacy,xpyriment,osweb,1.3.13,0,left,space,left,,32254,40556,32254,,2,legacy,824,1536,24,864,24,0,0,1536,1646229424889,1024,2,48000,-16,experiment,prototype5.png,1,odd,Win32,96,152447,149432,96,96,562796,564302,557796,153965,557796,96,,,,,,visual_patterns,0,0,0,yes,1366
undefined,undefined,undefined,undefined,white,no,Mozilla,Netscape,"5.0 (Windows NT 10.0; Win64; x64) AppleWebKit/537.36 (KHTML, like Gecko) Chrome/98.0.4758.102 Safari/537.36",xpyriment,legacy,legacy,0,uniform,0,0,0,0,24,24,24,0,0,58,58,58,58,58,0,58,0,,,,,,0,,02-02-22,02-02-22,14:57:00,Wed Mar 02 2022 14:57:00 GMT+0100 (közép-európai téli idő),The main experiment item,yes,0,0,C:/Users/rrics/Documents/!!ResearchBMECOGSCI/gnet,0,0,0,prototype3.png,no,mono,no,18,no,black,no,no,768,1167,3.5.6,legacy,xpyriment,osweb,1.3.13,0,left,space,left,,32254,40556,32254,,2,legacy,824,1536,24,864,24,0,0,1536,1646229424889,1024,2,48000,-16,experiment,prototype2.png,1,odd,Win32,96,152447,149432,96,96,569317,570819,564314,153965,564314,96,,,,,,visual_patterns,0,0,0,yes,1366
undefined,undefined,undefined,undefined,white,no,Mozilla,Netscape,"5.0 (Windows NT 10.0; Win64; x64) AppleWebKit/537.36 (KHTML, like Gecko) Chrome/98.0.4758.102 Safari/537.36",xpyriment,legacy,legacy,0,uniform,0,0,0,0,24,24,24,0,0,59,59,59,59,59,0,59,0,,,,,,0,,02-02-22,02-02-22,14:57:00,Wed Mar 02 2022 14:57:00 GMT+0100 (közép-európai téli idő),The main experiment item,yes,0,0,C:/Users/rrics/Documents/!!ResearchBMECOGSCI/gnet,0,0,0,prototype3.png,no,mono,no,18,no,black,no,no,768,1167,3.5.6,legacy,xpyriment,osweb,1.3.13,0,left,space,left,,32254,40556,32254,,2,legacy,824,1536,24,864,24,0,0,1536,1646229424889,1024,2,48000,-16,experiment,prototype5.png,1,odd,Win32,96,152447,149432,96,96,575852,577368,570846,153965,570846,96,,,,,,visual_patterns,0,0,0,yes,1366
undefined,undefined,undefined,undefined,white,no,Mozilla,Netscape,"5.0 (Windows NT 10.0; Win64; x64) AppleWebKit/537.36 (KHTML, like Gecko) Chrome/98.0.4758.102 Safari/537.36",xpyriment,legacy,legacy,0,uniform,0,0,0,0,24,24,24,0,0,60,60,60,60,60,0,60,0,,,,,,0,,02-02-22,02-02-22,14:57:00,Wed Mar 02 2022 14:57:00 GMT+0100 (közép-európai téli idő),The main experiment item,yes,0,0,C:/Users/rrics/Documents/!!ResearchBMECOGSCI/gnet,0,0,0,prototype3.png,no,mono,no,18,no,black,no,no,768,1167,3.5.6,legacy,xpyriment,osweb,1.3.13,0,left,space,left,,32254,40556,32254,,2,legacy,824,1536,24,864,24,0,0,1536,1646229424889,1024,2,48000,-16,experiment,p1sarrshacol2.png,1,odd,Win32,96,152447,149432,96,96,582383,583884,577382,153965,577382,96,,,,,,visual_patterns,0,0,0,yes,1366
undefined,undefined,undefined,undefined,white,no,Mozilla,Netscape,"5.0 (Windows NT 10.0; Win64; x64) AppleWebKit/537.36 (KHTML, like Gecko) Chrome/98.0.4758.102 Safari/537.36",xpyriment,legacy,legacy,0,uniform,0,0,0,0,24,24,24,0,0,61,61,61,61,61,0,61,0,,,,,,0,,02-02-22,02-02-22,14:57:00,Wed Mar 02 2022 14:57:00 GMT+0100 (közép-európai téli idő),The main experiment item,yes,0,0,C:/Users/rrics/Documents/!!ResearchBMECOGSCI/gnet,0,0,0,prototype3.png,no,mono,no,18,no,black,no,no,768,1167,3.5.6,legacy,xpyriment,osweb,1.3.13,0,left,space,left,,32254,40556,32254,,2,legacy,824,1536,24,864,24,0,0,1536,1646229424889,1024,2,48000,-16,experiment,p2sarrcol1.png,1,odd,Win32,96,152447,149432,96,96,588895,590401,583896,153965,583895,96,,,,,,visual_patterns,0,0,0,yes,1366
undefined,undefined,undefined,undefined,white,no,Mozilla,Netscape,"5.0 (Windows NT 10.0; Win64; x64) AppleWebKit/537.36 (KHTML, like Gecko) Chrome/98.0.4758.102 Safari/537.36",xpyriment,legacy,legacy,0,uniform,0,0,0,0,24,24,24,0,0,62,62,62,62,62,0,62,0,,,,,,0,,02-02-22,02-02-22,14:57:00,Wed Mar 02 2022 14:57:00 GMT+0100 (közép-európai téli idő),The main experiment item,yes,0,0,C:/Users/rrics/Documents/!!ResearchBMECOGSCI/gnet,0,0,0,prototype3.png,no,mono,no,18,no,black,no,no,768,1167,3.5.6,legacy,xpyriment,osweb,1.3.13,0,left,space,left,,32254,40556,32254,,2,legacy,824,1536,24,864,24,0,0,1536,1646229424889,1024,2,48000,-16,experiment,p5sarr2.png,1,odd,Win32,96,152447,149432,96,96,595414,596917,590416,153965,590416,96,,,,,,visual_patterns,0,0,0,yes,1366
undefined,undefined,undefined,undefined,white,no,Mozilla,Netscape,"5.0 (Windows NT 10.0; Win64; x64) AppleWebKit/537.36 (KHTML, like Gecko) Chrome/98.0.4758.102 Safari/537.36",xpyriment,legacy,legacy,0,uniform,0,0,0,0,24,24,24,0,0,63,63,63,63,63,0,63,0,,,,,,0,,02-02-22,02-02-22,14:57:00,Wed Mar 02 2022 14:57:00 GMT+0100 (közép-európai téli idő),The main experiment item,yes,0,0,C:/Users/rrics/Documents/!!ResearchBMECOGSCI/gnet,0,0,0,prototype3.png,no,mono,no,18,no,black,no,no,768,1167,3.5.6,legacy,xpyriment,osweb,1.3.13,0,left,space,left,,32254,40556,32254,,2,legacy,824,1536,24,864,24,0,0,1536,1646229424889,1024,2,48000,-16,experiment,p10sarr2.png,1,odd,Win32,96,152447,149432,96,96,601928,603434,596929,153965,596929,96,,,,,,visual_patterns,0,0,0,yes,1366
undefined,undefined,undefined,undefined,white,no,Mozilla,Netscape,"5.0 (Windows NT 10.0; Win64; x64) AppleWebKit/537.36 (KHTML, like Gecko) Chrome/98.0.4758.102 Safari/537.36",xpyriment,legacy,legacy,0,uniform,0,0,0,0,24,24,24,0,0,64,64,64,64,64,0,64,0,,,,,,0,,02-02-22,02-02-22,14:57:00,Wed Mar 02 2022 14:57:00 GMT+0100 (közép-európai téli idő),The main experiment item,yes,0,0,C:/Users/rrics/Documents/!!ResearchBMECOGSCI/gnet,0,0,0,prototype3.png,no,mono,no,18,no,black,no,no,768,1167,3.5.6,legacy,xpyriment,osweb,1.3.13,0,left,space,left,,32254,40556,32254,,2,legacy,824,1536,24,864,24,0,0,1536,1646229424889,1024,2,48000,-16,experiment,prototype1.png,1,odd,Win32,96,152447,149432,96,96,608458,609967,603456,153965,603456,96,,,,,,visual_patterns,0,0,0,yes,1366
undefined,undefined,undefined,undefined,white,no,Mozilla,Netscape,"5.0 (Windows NT 10.0; Win64; x64) AppleWebKit/537.36 (KHTML, like Gecko) Chrome/98.0.4758.102 Safari/537.36",xpyriment,legacy,legacy,0,uniform,0,0,0,0,24,24,24,0,0,65,65,65,65,65,0,65,0,,,,,,0,,02-02-22,02-02-22,14:57:00,Wed Mar 02 2022 14:57:00 GMT+0100 (közép-európai téli idő),The main experiment item,yes,0,0,C:/Users/rrics/Documents/!!ResearchBMECOGSCI/gnet,0,0,0,prototype3.png,no,mono,no,18,no,black,no,no,768,1167,3.5.6,legacy,xpyriment,osweb,1.3.13,0,left,space,left,,32254,40556,32254,,2,legacy,824,1536,24,864,24,0,0,1536,1646229424889,1024,2,48000,-16,experiment,prototype4.png,1,odd,Win32,96,152447,149432,96,96,614982,616484,609978,153965,609978,96,,,,,,visual_patterns,0,0,0,yes,1366
undefined,undefined,undefined,undefined,white,no,Mozilla,Netscape,"5.0 (Windows NT 10.0; Win64; x64) AppleWebKit/537.36 (KHTML, like Gecko) Chrome/98.0.4758.102 Safari/537.36",xpyriment,legacy,legacy,0,uniform,0,0,0,0,24,24,24,0,0,66,66,66,66,66,0,66,0,,,,,,0,,02-02-22,02-02-22,14:57:00,Wed Mar 02 2022 14:57:00 GMT+0100 (közép-európai téli idő),The main experiment item,yes,0,0,C:/Users/rrics/Documents/!!ResearchBMECOGSCI/gnet,0,0,0,prototype3.png,no,mono,no,18,no,black,no,no,768,1167,3.5.6,legacy,xpyriment,osweb,1.3.13,0,left,space,left,,32254,40556,32254,,2,legacy,824,1536,24,864,24,0,0,1536,1646229424889,1024,2,48000,-16,experiment,p2sarrshacol2.png,1,odd,Win32,96,152447,149432,96,96,621497,623000,616499,153965,616499,96,,,,,,visual_patterns,0,0,0,yes,1366
undefined,undefined,undefined,undefined,white,no,Mozilla,Netscape,"5.0 (Windows NT 10.0; Win64; x64) AppleWebKit/537.36 (KHTML, like Gecko) Chrome/98.0.4758.102 Safari/537.36",xpyriment,legacy,legacy,0,uniform,0,0,0,0,24,24,24,0,0,67,67,67,67,67,0,67,0,,,,,,0,,02-02-22,02-02-22,14:57:00,Wed Mar 02 2022 14:57:00 GMT+0100 (közép-európai téli idő),The main experiment item,yes,0,0,C:/Users/rrics/Documents/!!ResearchBMECOGSCI/gnet,0,0,0,prototype3.png,no,mono,no,18,no,black,no,no,768,1167,3.5.6,legacy,xpyriment,osweb,1.3.13,0,left,space,left,,32254,40556,32254,,2,legacy,824,1536,24,864,24,0,0,1536,1646229424889,1024,2,48000,-16,experiment,p1sarr2.png,1,odd,Win32,96,152447,149432,96,96,628017,629533,623015,153965,623015,96,,,,,,visual_patterns,0,0,0,yes,1366
undefined,undefined,undefined,undefined,white,no,Mozilla,Netscape,"5.0 (Windows NT 10.0; Win64; x64) AppleWebKit/537.36 (KHTML, like Gecko) Chrome/98.0.4758.102 Safari/537.36",xpyriment,legacy,legacy,0,uniform,0,0,0,0,24,24,24,0,0,68,68,68,68,68,0,68,0,,,,,,0,,02-02-22,02-02-22,14:57:00,Wed Mar 02 2022 14:57:00 GMT+0100 (közép-európai téli idő),The main experiment item,yes,0,0,C:/Users/rrics/Documents/!!ResearchBMECOGSCI/gnet,0,0,0,prototype3.png,no,mono,no,18,no,black,no,no,768,1167,3.5.6,legacy,xpyriment,osweb,1.3.13,0,left,space,left,,32254,40556,32254,,2,legacy,824,1536,24,864,24,0,0,1536,1646229424889,1024,2,48000,-16,experiment,p6sarr2.png,1,odd,Win32,96,152447,149432,96,96,634543,636050,629548,153965,629548,96,,,,,,visual_patterns,0,0,0,yes,1366
undefined,undefined,undefined,undefined,white,no,Mozilla,Netscape,"5.0 (Windows NT 10.0; Win64; x64) AppleWebKit/537.36 (KHTML, like Gecko) Chrome/98.0.4758.102 Safari/537.36",xpyriment,legacy,legacy,0,uniform,0,0,0,0,24,24,24,0,0,69,69,69,69,69,0,69,0,,,,,,0,,02-02-22,02-02-22,14:57:00,Wed Mar 02 2022 14:57:00 GMT+0100 (közép-európai téli idő),The main experiment item,yes,0,0,C:/Users/rrics/Documents/!!ResearchBMECOGSCI/gnet,0,0,0,prototype3.png,no,mono,no,18,no,black,no,no,768,1167,3.5.6,legacy,xpyriment,osweb,1.3.13,0,left,space,left,,32254,40556,32254,,2,legacy,824,1536,24,864,24,0,0,1536,1646229424889,1024,2,48000,-16,experiment,prototype2.png,1,odd,Win32,96,152447,149432,96,96,641079,642583,636077,153965,636077,96,,,,,,visual_patterns,0,0,0,yes,1366
undefined,undefined,undefined,undefined,white,no,Mozilla,Netscape,"5.0 (Windows NT 10.0; Win64; x64) AppleWebKit/537.36 (KHTML, like Gecko) Chrome/98.0.4758.102 Safari/537.36",xpyriment,legacy,legacy,0,uniform,0,0,0,0,24,24,24,0,0,70,70,70,70,70,0,70,0,,,,,,0,,02-02-22,02-02-22,14:57:00,Wed Mar 02 2022 14:57:00 GMT+0100 (közép-európai téli idő),The main experiment item,yes,0,0,C:/Users/rrics/Documents/!!ResearchBMECOGSCI/gnet,0,0,0,prototype3.png,no,mono,no,18,no,black,no,no,768,1167,3.5.6,legacy,xpyriment,osweb,1.3.13,0,left,space,left,,32254,40556,32254,,2,legacy,824,1536,24,864,24,0,0,1536,1646229424889,1024,2,48000,-16,experiment,p1sarrshacol1.png,1,odd,Win32,96,152447,149432,96,96,647595,649099,642600,153965,642600,96,,,,,,visual_patterns,0,0,0,yes,1366
undefined,undefined,undefined,undefined,white,no,Mozilla,Netscape,"5.0 (Windows NT 10.0; Win64; x64) AppleWebKit/537.36 (KHTML, like Gecko) Chrome/98.0.4758.102 Safari/537.36",xpyriment,legacy,legacy,0,uniform,0,0,0,0,24,24,24,0,0,71,71,71,71,71,0,71,0,,,,,,0,,02-02-22,02-02-22,14:57:00,Wed Mar 02 2022 14:57:00 GMT+0100 (közép-európai téli idő),The main experiment item,yes,0,0,C:/Users/rrics/Documents/!!ResearchBMECOGSCI/gnet,0,0,0,prototype3.png,no,mono,no,18,no,black,no,no,768,1167,3.5.6,legacy,xpyriment,osweb,1.3.13,0,left,space,left,,32254,40556,32254,,2,legacy,824,1536,24,864,24,0,0,1536,1646229424889,1024,2,48000,-16,experiment,prototype1.png,1,odd,Win32,96,152447,149432,96,96,654108,655616,649108,153965,649108,96,,,,,,visual_patterns,0,0,0,yes,1366
undefined,undefined,undefined,undefined,white,no,Mozilla,Netscape,"5.0 (Windows NT 10.0; Win64; x64) AppleWebKit/537.36 (KHTML, like Gecko) Chrome/98.0.4758.102 Safari/537.36",xpyriment,legacy,legacy,0,uniform,0,0,0,0,24,24,24,0,0,72,72,72,72,72,0,72,0,,,,,,0,,02-02-22,02-02-22,14:57:00,Wed Mar 02 2022 14:57:00 GMT+0100 (közép-európai téli idő),The main experiment item,yes,0,0,C:/Users/rrics/Documents/!!ResearchBMECOGSCI/gnet,0,0,0,prototype3.png,no,mono,no,18,no,black,no,no,768,1167,3.5.6,legacy,xpyriment,osweb,1.3.13,0,left,space,left,,32254,40556,32254,,2,legacy,824,1536,24,864,24,0,0,1536,1646229424889,1024,2,48000,-16,experiment,prototype5.png,1,odd,Win32,96,152447,149432,96,96,660629,662132,655625,153965,655625,96,,,,,,visual_patterns,0,0,0,yes,1366
undefined,undefined,undefined,undefined,white,no,Mozilla,Netscape,"5.0 (Windows NT 10.0; Win64; x64) AppleWebKit/537.36 (KHTML, like Gecko) Chrome/98.0.4758.102 Safari/537.36",xpyriment,legacy,legacy,0,uniform,0,0,0,0,24,24,24,0,0,73,73,73,73,73,0,73,0,,,,,,0,,02-02-22,02-02-22,14:57:00,Wed Mar 02 2022 14:57:00 GMT+0100 (közép-európai téli idő),The main experiment item,yes,0,0,C:/Users/rrics/Documents/!!ResearchBMECOGSCI/gnet,0,0,0,prototype3.png,no,mono,no,18,no,black,no,no,768,1167,3.5.6,legacy,xpyriment,osweb,1.3.13,0,left,space,left,,32254,40556,32254,,2,legacy,824,1536,24,864,24,0,0,1536,1646229424889,1024,2,48000,-16,experiment,prototype3.png,1,odd,Win32,96,152447,149432,96,96,667147,668649,662145,153965,662145,96,,,,,,visual_patterns,0,0,0,yes,1366
undefined,undefined,undefined,undefined,white,no,Mozilla,Netscape,"5.0 (Windows NT 10.0; Win64; x64) AppleWebKit/537.36 (KHTML, like Gecko) Chrome/98.0.4758.102 Safari/537.36",xpyriment,legacy,legacy,0,uniform,0,0,0,0,24,24,24,0,0,74,74,74,74,74,0,74,0,,,,,,0,,02-02-22,02-02-22,14:57:00,Wed Mar 02 2022 14:57:00 GMT+0100 (közép-európai téli idő),The main experiment item,yes,0,0,C:/Users/rrics/Documents/!!ResearchBMECOGSCI/gnet,0,0,0,prototype3.png,no,mono,no,18,no,black,no,no,768,1167,3.5.6,legacy,xpyriment,osweb,1.3.13,0,left,space,left,,32254,40556,32254,,2,legacy,824,1536,24,864,24,0,0,1536,1646229424889,1024,2,48000,-16,experiment,prototype2.png,1,odd,Win32,96,152447,149432,96,96,673663,675165,668659,153965,668659,96,,,,,,visual_patterns,0,0,0,yes,1366
undefined,undefined,undefined,undefined,white,no,Mozilla,Netscape,"5.0 (Windows NT 10.0; Win64; x64) AppleWebKit/537.36 (KHTML, like Gecko) Chrome/98.0.4758.102 Safari/537.36",xpyriment,legacy,legacy,0,uniform,0,0,0,0,24,24,24,0,0,74,74,74,74,74,0,74,0,0,0,0,0,0,0,0,02-02-22,02-02-22,14:57:00,Wed Mar 02 2022 14:57:00 GMT+0100 (közép-európai téli idő),The main experiment item,yes,0,0,C:/Users/rrics/Documents/!!ResearchBMECOGSCI/gnet,0,0,0,prototype3.png,no,mono,no,18,no,black,no,no,768,1167,3.5.6,legacy,xpyriment,osweb,1.3.13,0,down,space,left,down,32088,40556,32254,32088,2,legacy,824,1536,24,864,24,0,0,1536,1646229424889,1024,2,48000,-16,experiment,p5sarrsha3.png,1,odd,Win32,96,152447,149432,96,96,673663,675165,668659,153965,668659,96,710286,711798,707287,675170,707287,visual_patterns,0,0,0,yes,1366
undefined,undefined,undefined,undefined,white,no,Mozilla,Netscape,"5.0 (Windows NT 10.0; Win64; x64) AppleWebKit/537.36 (KHTML, like Gecko) Chrome/98.0.4758.102 Safari/537.36",xpyriment,legacy,legacy,0,uniform,0,0,0,0,24,24,24,0,0,74,74,74,74,74,0,74,0,1,1,1,1,1,0,1,02-02-22,02-02-22,14:57:00,Wed Mar 02 2022 14:57:00 GMT+0100 (közép-európai téli idő),The main experiment item,yes,0,0,C:/Users/rrics/Documents/!!ResearchBMECOGSCI/gnet,0,0,0,prototype3.png,no,mono,no,18,no,black,no,no,768,1167,3.5.6,legacy,xpyriment,osweb,1.3.13,0,down,space,left,down,32088,40556,32254,32088,2,legacy,824,1536,24,864,24,0,0,1536,1646229424889,1024,2,48000,-16,experiment,p2sarrshacol1.png,1,odd,Win32,96,152447,149432,96,96,673663,675165,668659,153965,668659,96,714812,716314,711811,675170,711811,visual_patterns,0,0,0,yes,1366
undefined,undefined,undefined,undefined,white,no,Mozilla,Netscape,"5.0 (Windows NT 10.0; Win64; x64) AppleWebKit/537.36 (KHTML, like Gecko) Chrome/98.0.4758.102 Safari/537.36",xpyriment,legacy,legacy,0,uniform,0,0,0,0,24,24,24,0,0,74,74,74,74,74,0,74,0,2,2,2,2,2,0,2,02-02-22,02-02-22,14:57:00,Wed Mar 02 2022 14:57:00 GMT+0100 (közép-európai téli idő),The main experiment item,yes,0,0,C:/Users/rrics/Documents/!!ResearchBMECOGSCI/gnet,0,0,0,prototype3.png,no,mono,no,18,no,black,no,no,768,1167,3.5.6,legacy,xpyriment,osweb,1.3.13,0,down,space,left,down,32088,40556,32254,32088,2,legacy,824,1536,24,864,24,0,0,1536,1646229424889,1024,2,48000,-16,experiment,p4sarr4.png,1,odd,Win32,96,152447,149432,96,96,673663,675165,668659,153965,668659,96,719328,720831,716329,675170,716329,visual_patterns,0,0,0,yes,1366
undefined,undefined,undefined,undefined,white,no,Mozilla,Netscape,"5.0 (Windows NT 10.0; Win64; x64) AppleWebKit/537.36 (KHTML, like Gecko) Chrome/98.0.4758.102 Safari/537.36",xpyriment,legacy,legacy,0,uniform,0,0,0,0,24,24,24,0,0,74,74,74,74,74,0,74,0,3,3,3,3,3,0,3,02-02-22,02-02-22,14:57:00,Wed Mar 02 2022 14:57:00 GMT+0100 (közép-európai téli idő),The main experiment item,yes,0,0,C:/Users/rrics/Documents/!!ResearchBMECOGSCI/gnet,0,0,0,prototype3.png,no,mono,no,18,no,black,no,no,768,1167,3.5.6,legacy,xpyriment,osweb,1.3.13,0,down,space,left,down,32088,40556,32254,32088,2,legacy,824,1536,24,864,24,0,0,1536,1646229424889,1024,2,48000,-16,experiment,p5sarrsha2.png,1,odd,Win32,96,152447,149432,96,96,673663,675165,668659,153965,668659,96,723844,725347,720841,675170,720841,visual_patterns,0,0,0,yes,1366
undefined,undefined,undefined,undefined,white,no,Mozilla,Netscape,"5.0 (Windows NT 10.0; Win64; x64) AppleWebKit/537.36 (KHTML, like Gecko) Chrome/98.0.4758.102 Safari/537.36",xpyriment,legacy,legacy,0,uniform,0,0,0,0,24,24,24,0,0,74,74,74,74,74,0,74,0,4,4,4,4,4,0,4,02-02-22,02-02-22,14:57:00,Wed Mar 02 2022 14:57:00 GMT+0100 (közép-európai téli idő),The main experiment item,yes,0,0,C:/Users/rrics/Documents/!!ResearchBMECOGSCI/gnet,0,0,0,prototype3.png,no,mono,no,18,no,black,no,no,768,1167,3.5.6,legacy,xpyriment,osweb,1.3.13,0,down,space,left,down,32088,40556,32254,32088,2,legacy,824,1536,24,864,24,0,0,1536,1646229424889,1024,2,48000,-16,experiment,p7sarr2.png,1,odd,Win32,96,152447,149432,96,96,673663,675165,668659,153965,668659,96,728364,729880,725360,675170,725360,visual_patterns,0,0,0,yes,1366
undefined,undefined,undefined,undefined,white,no,Mozilla,Netscape,"5.0 (Windows NT 10.0; Win64; x64) AppleWebKit/537.36 (KHTML, like Gecko) Chrome/98.0.4758.102 Safari/537.36",xpyriment,legacy,legacy,0,uniform,0,0,0,0,24,24,24,0,0,74,74,74,74,74,0,74,0,5,5,5,5,5,0,5,02-02-22,02-02-22,14:57:00,Wed Mar 02 2022 14:57:00 GMT+0100 (közép-európai téli idő),The main experiment item,yes,0,0,C:/Users/rrics/Documents/!!ResearchBMECOGSCI/gnet,0,0,0,prototype3.png,no,mono,no,18,no,black,no,no,768,1167,3.5.6,legacy,xpyriment,osweb,1.3.13,0,down,space,left,down,32088,40556,32254,32088,2,legacy,824,1536,24,864,24,0,0,1536,1646229424889,1024,2,48000,-16,experiment,p1sarrsha4.png,1,odd,Win32,96,152447,149432,96,96,673663,675165,668659,153965,668659,96,732895,734397,729892,675170,729891,visual_patterns,0,0,0,yes,1366
undefined,undefined,undefined,undefined,white,no,Mozilla,Netscape,"5.0 (Windows NT 10.0; Win64; x64) AppleWebKit/537.36 (KHTML, like Gecko) Chrome/98.0.4758.102 Safari/537.36",xpyriment,legacy,legacy,0,uniform,0,0,0,0,24,24,24,0,0,74,74,74,74,74,0,74,0,6,6,6,6,6,0,6,02-02-22,02-02-22,14:57:00,Wed Mar 02 2022 14:57:00 GMT+0100 (közép-európai téli idő),The main experiment item,yes,0,0,C:/Users/rrics/Documents/!!ResearchBMECOGSCI/gnet,0,0,0,prototype3.png,no,mono,no,18,no,black,no,no,768,1167,3.5.6,legacy,xpyriment,osweb,1.3.13,0,down,space,left,down,32088,40556,32254,32088,2,legacy,824,1536,24,864,24,0,0,1536,1646229424889,1024,2,48000,-16,experiment,p3sarrcol2.png,1,odd,Win32,96,152447,149432,96,96,673663,675165,668659,153965,668659,96,737413,738914,734409,675170,734409,visual_patterns,0,0,0,yes,1366
undefined,undefined,undefined,undefined,white,no,Mozilla,Netscape,"5.0 (Windows NT 10.0; Win64; x64) AppleWebKit/537.36 (KHTML, like Gecko) Chrome/98.0.4758.102 Safari/537.36",xpyriment,legacy,legacy,0,uniform,0,0,0,0,24,24,24,0,0,74,74,74,74,74,0,74,0,7,7,7,7,7,0,7,02-02-22,02-02-22,14:57:00,Wed Mar 02 2022 14:57:00 GMT+0100 (közép-európai téli idő),The main experiment item,yes,0,0,C:/Users/rrics/Documents/!!ResearchBMECOGSCI/gnet,0,0,0,prototype3.png,no,mono,no,18,no,black,no,no,768,1167,3.5.6,legacy,xpyriment,osweb,1.3.13,0,down,space,left,down,32088,40556,32254,32088,2,legacy,824,1536,24,864,24,0,0,1536,1646229424889,1024,2,48000,-16,experiment,p3sarrcol3.png,1,odd,Win32,96,152447,149432,96,96,673663,675165,668659,153965,668659,96,741928,743430,738932,675170,738931,visual_patterns,0,0,0,yes,1366
undefined,undefined,undefined,undefined,white,no,Mozilla,Netscape,"5.0 (Windows NT 10.0; Win64; x64) AppleWebKit/537.36 (KHTML, like Gecko) Chrome/98.0.4758.102 Safari/537.36",xpyriment,legacy,legacy,0,uniform,0,0,0,0,24,24,24,0,0,74,74,74,74,74,0,74,0,8,8,8,8,8,0,8,02-02-22,02-02-22,14:57:00,Wed Mar 02 2022 14:57:00 GMT+0100 (közép-európai téli idő),The main experiment item,yes,0,0,C:/Users/rrics/Documents/!!ResearchBMECOGSCI/gnet,0,0,0,prototype3.png,no,mono,no,18,no,black,no,no,768,1167,3.5.6,legacy,xpyriment,osweb,1.3.13,0,down,space,left,down,32088,40556,32254,32088,2,legacy,824,1536,24,864,24,0,0,1536,1646229424889,1024,2,48000,-16,experiment,p1sarrsha1.png,1,odd,Win32,96,152447,149432,96,96,673663,675165,668659,153965,668659,96,746445,747947,743442,675170,743442,visual_patterns,0,0,0,yes,1366
undefined,undefined,undefined,undefined,white,no,Mozilla,Netscape,"5.0 (Windows NT 10.0; Win64; x64) AppleWebKit/537.36 (KHTML, like Gecko) Chrome/98.0.4758.102 Safari/537.36",xpyriment,legacy,legacy,0,uniform,0,0,0,0,24,24,24,0,0,74,74,74,74,74,0,74,0,9,9,9,9,9,0,9,02-02-22,02-02-22,14:57:00,Wed Mar 02 2022 14:57:00 GMT+0100 (közép-európai téli idő),The main experiment item,yes,0,0,C:/Users/rrics/Documents/!!ResearchBMECOGSCI/gnet,0,0,0,prototype3.png,no,mono,no,18,no,black,no,no,768,1167,3.5.6,legacy,xpyriment,osweb,1.3.13,0,down,space,left,down,32088,40556,32254,32088,2,legacy,824,1536,24,864,24,0,0,1536,1646229424889,1024,2,48000,-16,experiment,p4sarr1.png,1,odd,Win32,96,152447,149432,96,96,673663,675165,668659,153965,668659,96,750980,752497,747978,675170,747978,visual_patterns,0,0,0,yes,1366
undefined,undefined,undefined,undefined,white,no,Mozilla,Netscape,"5.0 (Windows NT 10.0; Win64; x64) AppleWebKit/537.36 (KHTML, like Gecko) Chrome/98.0.4758.102 Safari/537.36",xpyriment,legacy,legacy,0,uniform,0,0,0,0,24,24,24,0,0,74,74,74,74,74,0,74,0,10,10,10,10,10,0,10,02-02-22,02-02-22,14:57:00,Wed Mar 02 2022 14:57:00 GMT+0100 (közép-európai téli idő),The main experiment item,yes,0,0,C:/Users/rrics/Documents/!!ResearchBMECOGSCI/gnet,0,0,0,prototype3.png,no,mono,no,18,no,black,no,no,768,1167,3.5.6,legacy,xpyriment,osweb,1.3.13,0,down,space,left,down,32088,40556,32254,32088,2,legacy,824,1536,24,864,24,0,0,1536,1646229424889,1024,2,48000,-16,experiment,p9sarr2.png,1,odd,Win32,96,152447,149432,96,96,673663,675165,668659,153965,668659,96,755512,757013,752510,675170,752510,visual_patterns,0,0,0,yes,1366
undefined,undefined,undefined,undefined,white,no,Mozilla,Netscape,"5.0 (Windows NT 10.0; Win64; x64) AppleWebKit/537.36 (KHTML, like Gecko) Chrome/98.0.4758.102 Safari/537.36",xpyriment,legacy,legacy,0,uniform,0,0,0,0,24,24,24,0,0,74,74,74,74,74,0,74,0,11,11,11,11,11,0,11,02-02-22,02-02-22,14:57:00,Wed Mar 02 2022 14:57:00 GMT+0100 (közép-európai téli idő),The main experiment item,yes,0,0,C:/Users/rrics/Documents/!!ResearchBMECOGSCI/gnet,0,0,0,prototype3.png,no,mono,no,18,no,black,no,no,768,1167,3.5.6,legacy,xpyriment,osweb,1.3.13,0,down,space,left,down,32088,40556,32254,32088,2,legacy,824,1536,24,864,24,0,0,1536,1646229424889,1024,2,48000,-16,experiment,p1sarr2.png,1,odd,Win32,96,152447,149432,96,96,673663,675165,668659,153965,668659,96,760028,761530,757025,675170,757025,visual_patterns,0,0,0,yes,1366
undefined,undefined,undefined,undefined,white,no,Mozilla,Netscape,"5.0 (Windows NT 10.0; Win64; x64) AppleWebKit/537.36 (KHTML, like Gecko) Chrome/98.0.4758.102 Safari/537.36",xpyriment,legacy,legacy,0,uniform,0,0,0,0,24,24,24,0,0,74,74,74,74,74,0,74,0,12,12,12,12,12,0,12,02-02-22,02-02-22,14:57:00,Wed Mar 02 2022 14:57:00 GMT+0100 (közép-európai téli idő),The main experiment item,yes,0,0,C:/Users/rrics/Documents/!!ResearchBMECOGSCI/gnet,0,0,0,prototype3.png,no,mono,no,18,no,black,no,no,768,1167,3.5.6,legacy,xpyriment,osweb,1.3.13,0,down,space,left,down,32088,40556,32254,32088,2,legacy,824,1536,24,864,24,0,0,1536,1646229424889,1024,2,48000,-16,experiment,p3sarrcol4.png,1,odd,Win32,96,152447,149432,96,96,673663,675165,668659,153965,668659,96,764538,766046,761537,675170,761537,visual_patterns,0,0,0,yes,1366
undefined,undefined,undefined,undefined,white,no,Mozilla,Netscape,"5.0 (Windows NT 10.0; Win64; x64) AppleWebKit/537.36 (KHTML, like Gecko) Chrome/98.0.4758.102 Safari/537.36",xpyriment,legacy,legacy,0,uniform,0,0,0,0,24,24,24,0,0,74,74,74,74,74,0,74,0,13,13,13,13,13,0,13,02-02-22,02-02-22,14:57:00,Wed Mar 02 2022 14:57:00 GMT+0100 (közép-európai téli idő),The main experiment item,yes,0,0,C:/Users/rrics/Documents/!!ResearchBMECOGSCI/gnet,0,0,0,prototype3.png,no,mono,no,18,no,black,no,no,768,1167,3.5.6,legacy,xpyriment,osweb,1.3.13,0,down,space,left,down,32088,40556,32254,32088,2,legacy,824,1536,24,864,24,0,0,1536,1646229424889,1024,2,48000,-16,experiment,p2sarrshacol2.png,1,odd,Win32,96,152447,149432,96,96,673663,675165,668659,153965,668659,96,769054,770563,766054,675170,766054,visual_patterns,0,0,0,yes,1366
undefined,undefined,undefined,undefined,white,no,Mozilla,Netscape,"5.0 (Windows NT 10.0; Win64; x64) AppleWebKit/537.36 (KHTML, like Gecko) Chrome/98.0.4758.102 Safari/537.36",xpyriment,legacy,legacy,0,uniform,0,0,0,0,24,24,24,0,0,74,74,74,74,74,0,74,0,14,14,14,14,14,0,14,02-02-22,02-02-22,14:57:00,Wed Mar 02 2022 14:57:00 GMT+0100 (közép-európai téli idő),The main experiment item,yes,0,0,C:/Users/rrics/Documents/!!ResearchBMECOGSCI/gnet,0,0,0,prototype3.png,no,mono,no,18,no,black,no,no,768,1167,3.5.6,legacy,xpyriment,osweb,1.3.13,0,down,space,left,down,32088,40556,32254,32088,2,legacy,824,1536,24,864,24,0,0,1536,1646229424889,1024,2,48000,-16,experiment,p6sarr1.png,1,odd,Win32,96,152447,149432,96,96,673663,675165,668659,153965,668659,96,773578,775079,770578,675170,770578,visual_patterns,0,0,0,yes,1366
undefined,undefined,undefined,undefined,white,no,Mozilla,Netscape,"5.0 (Windows NT 10.0; Win64; x64) AppleWebKit/537.36 (KHTML, like Gecko) Chrome/98.0.4758.102 Safari/537.36",xpyriment,legacy,legacy,0,uniform,0,0,0,0,24,24,24,0,0,74,74,74,74,74,0,74,0,15,15,15,15,15,0,15,02-02-22,02-02-22,14:57:00,Wed Mar 02 2022 14:57:00 GMT+0100 (közép-európai téli idő),The main experiment item,yes,0,0,C:/Users/rrics/Documents/!!ResearchBMECOGSCI/gnet,0,0,0,prototype3.png,no,mono,no,18,no,black,no,no,768,1167,3.5.6,legacy,xpyriment,osweb,1.3.13,0,down,space,left,down,32088,40556,32254,32088,2,legacy,824,1536,24,864,24,0,0,1536,1646229424889,1024,2,48000,-16,experiment,p4sarrshacol3.png,1,odd,Win32,96,152447,149432,96,96,673663,675165,668659,153965,668659,96,778094,779596,775097,675170,775097,visual_patterns,0,0,0,yes,1366
undefined,undefined,undefined,undefined,white,no,Mozilla,Netscape,"5.0 (Windows NT 10.0; Win64; x64) AppleWebKit/537.36 (KHTML, like Gecko) Chrome/98.0.4758.102 Safari/537.36",xpyriment,legacy,legacy,0,uniform,0,0,0,0,24,24,24,0,0,74,74,74,74,74,0,74,0,16,16,16,16,16,0,16,02-02-22,02-02-22,14:57:00,Wed Mar 02 2022 14:57:00 GMT+0100 (közép-európai téli idő),The main experiment item,yes,0,0,C:/Users/rrics/Documents/!!ResearchBMECOGSCI/gnet,0,0,0,prototype3.png,no,mono,no,18,no,black,no,no,768,1167,3.5.6,legacy,xpyriment,osweb,1.3.13,0,down,space,left,down,32088,40556,32254,32088,2,legacy,824,1536,24,864,24,0,0,1536,1646229424889,1024,2,48000,-16,experiment,p4sarrshacol4.png,1,odd,Win32,96,152447,149432,96,96,673663,675165,668659,153965,668659,96,782605,784113,779607,675170,779607,visual_patterns,0,0,0,yes,1366
undefined,undefined,undefined,undefined,white,no,Mozilla,Netscape,"5.0 (Windows NT 10.0; Win64; x64) AppleWebKit/537.36 (KHTML, like Gecko) Chrome/98.0.4758.102 Safari/537.36",xpyriment,legacy,legacy,0,uniform,0,0,0,0,24,24,24,0,0,74,74,74,74,74,0,74,0,17,17,17,17,17,0,17,02-02-22,02-02-22,14:57:00,Wed Mar 02 2022 14:57:00 GMT+0100 (közép-európai téli idő),The main experiment item,yes,0,0,C:/Users/rrics/Documents/!!ResearchBMECOGSCI/gnet,0,0,0,prototype3.png,no,mono,no,18,no,black,no,no,768,1167,3.5.6,legacy,xpyriment,osweb,1.3.13,0,down,space,left,down,32088,40556,32254,32088,2,legacy,824,1536,24,864,24,0,0,1536,1646229424889,1024,2,48000,-16,experiment,p2sarrcol1.png,1,odd,Win32,96,152447,149432,96,96,673663,675165,668659,153965,668659,96,787127,788629,784128,675170,784128,visual_patterns,0,0,0,yes,1366
undefined,undefined,undefined,undefined,white,no,Mozilla,Netscape,"5.0 (Windows NT 10.0; Win64; x64) AppleWebKit/537.36 (KHTML, like Gecko) Chrome/98.0.4758.102 Safari/537.36",xpyriment,legacy,legacy,0,uniform,0,0,0,0,24,24,24,0,0,74,74,74,74,74,0,74,0,18,18,18,18,18,0,18,02-02-22,02-02-22,14:57:00,Wed Mar 02 2022 14:57:00 GMT+0100 (közép-európai téli idő),The main experiment item,yes,0,0,C:/Users/rrics/Documents/!!ResearchBMECOGSCI/gnet,0,0,0,prototype3.png,no,mono,no,18,no,black,no,no,768,1167,3.5.6,legacy,xpyriment,osweb,1.3.13,0,down,space,left,down,32088,40556,32254,32088,2,legacy,824,1536,24,864,24,0,0,1536,1646229424889,1024,2,48000,-16,experiment,p1sarr4.png,1,odd,Win32,96,152447,149432,96,96,673663,675165,668659,153965,668659,96,791649,793162,788644,675170,788644,visual_patterns,0,0,0,yes,1366
undefined,undefined,undefined,undefined,white,no,Mozilla,Netscape,"5.0 (Windows NT 10.0; Win64; x64) AppleWebKit/537.36 (KHTML, like Gecko) Chrome/98.0.4758.102 Safari/537.36",xpyriment,legacy,legacy,0,uniform,0,0,0,0,24,24,24,0,0,74,74,74,74,74,0,74,0,19,19,19,19,19,0,19,02-02-22,02-02-22,14:57:00,Wed Mar 02 2022 14:57:00 GMT+0100 (közép-európai téli idő),The main experiment item,yes,0,0,C:/Users/rrics/Documents/!!ResearchBMECOGSCI/gnet,0,0,0,prototype3.png,no,mono,no,18,no,black,no,no,768,1167,3.5.6,legacy,xpyriment,osweb,1.3.13,0,down,space,left,down,32088,40556,32254,32088,2,legacy,824,1536,24,864,24,0,0,1536,1646229424889,1024,2,48000,-16,experiment,p10sarr1.png,1,odd,Win32,96,152447,149432,96,96,673663,675165,668659,153965,668659,96,796193,797695,793188,675170,793188,visual_patterns,0,0,0,yes,1366
undefined,undefined,undefined,undefined,white,no,Mozilla,Netscape,"5.0 (Windows NT 10.0; Win64; x64) AppleWebKit/537.36 (KHTML, like Gecko) Chrome/98.0.4758.102 Safari/537.36",xpyriment,legacy,legacy,0,uniform,0,0,0,0,24,24,24,0,0,74,74,74,74,74,0,74,0,20,20,20,20,20,0,20,02-02-22,02-02-22,14:57:00,Wed Mar 02 2022 14:57:00 GMT+0100 (közép-európai téli idő),The main experiment item,yes,0,0,C:/Users/rrics/Documents/!!ResearchBMECOGSCI/gnet,0,0,0,prototype3.png,no,mono,no,18,no,black,no,no,768,1167,3.5.6,legacy,xpyriment,osweb,1.3.13,0,down,space,left,down,32088,40556,32254,32088,2,legacy,824,1536,24,864,24,0,0,1536,1646229424889,1024,2,48000,-16,experiment,p8sarr3.png,1,odd,Win32,96,152447,149432,96,96,673663,675165,668659,153965,668659,96,800708,802213,797711,675170,797711,visual_patterns,0,0,0,yes,1366
undefined,undefined,undefined,undefined,white,no,Mozilla,Netscape,"5.0 (Windows NT 10.0; Win64; x64) AppleWebKit/537.36 (KHTML, like Gecko) Chrome/98.0.4758.102 Safari/537.36",xpyriment,legacy,legacy,0,uniform,0,0,0,0,24,24,24,0,0,74,74,74,74,74,0,74,0,21,21,21,21,21,0,21,02-02-22,02-02-22,14:57:00,Wed Mar 02 2022 14:57:00 GMT+0100 (közép-európai téli idő),The main experiment item,yes,0,0,C:/Users/rrics/Documents/!!ResearchBMECOGSCI/gnet,0,0,0,prototype3.png,no,mono,no,18,no,black,no,no,768,1167,3.5.6,legacy,xpyriment,osweb,1.3.13,0,down,space,left,down,32088,40556,32254,32088,2,legacy,824,1536,24,864,24,0,0,1536,1646229424889,1024,2,48000,-16,experiment,p9sarr4.png,1,odd,Win32,96,152447,149432,96,96,673663,675165,668659,153965,668659,96,805225,806729,802224,675170,802224,visual_patterns,0,0,0,yes,1366
undefined,undefined,undefined,undefined,white,no,Mozilla,Netscape,"5.0 (Windows NT 10.0; Win64; x64) AppleWebKit/537.36 (KHTML, like Gecko) Chrome/98.0.4758.102 Safari/537.36",xpyriment,legacy,legacy,0,uniform,0,0,0,0,24,24,24,0,0,74,74,74,74,74,0,74,0,22,22,22,22,22,0,22,02-02-22,02-02-22,14:57:00,Wed Mar 02 2022 14:57:00 GMT+0100 (közép-európai téli idő),The main experiment item,yes,0,0,C:/Users/rrics/Documents/!!ResearchBMECOGSCI/gnet,0,0,0,prototype3.png,no,mono,no,18,no,black,no,no,768,1167,3.5.6,legacy,xpyriment,osweb,1.3.13,0,down,space,left,down,32088,40556,32254,32088,2,legacy,824,1536,24,864,24,0,0,1536,1646229424889,1024,2,48000,-16,experiment,p5sarrcol2.png,1,odd,Win32,96,152447,149432,96,96,673663,675165,668659,153965,668659,96,809747,811262,806744,675170,806744,visual_patterns,0,0,0,yes,1366
undefined,undefined,undefined,undefined,white,no,Mozilla,Netscape,"5.0 (Windows NT 10.0; Win64; x64) AppleWebKit/537.36 (KHTML, like Gecko) Chrome/98.0.4758.102 Safari/537.36",xpyriment,legacy,legacy,0,uniform,0,0,0,0,24,24,24,0,0,74,74,74,74,74,0,74,0,23,23,23,23,23,0,23,02-02-22,02-02-22,14:57:00,Wed Mar 02 2022 14:57:00 GMT+0100 (közép-európai téli idő),The main experiment item,yes,0,0,C:/Users/rrics/Documents/!!ResearchBMECOGSCI/gnet,0,0,0,prototype3.png,no,mono,no,18,no,black,no,no,768,1167,3.5.6,legacy,xpyriment,osweb,1.3.13,0,down,space,left,down,32088,40556,32254,32088,2,legacy,824,1536,24,864,24,0,0,1536,1646229424889,1024,2,48000,-16,experiment,p7sarr4.png,1,odd,Win32,96,152447,149432,96,96,673663,675165,668659,153965,668659,96,814276,815778,811278,675170,811278,visual_patterns,0,0,0,yes,1366
undefined,undefined,undefined,undefined,white,no,Mozilla,Netscape,"5.0 (Windows NT 10.0; Win64; x64) AppleWebKit/537.36 (KHTML, like Gecko) Chrome/98.0.4758.102 Safari/537.36",xpyriment,legacy,legacy,0,uniform,0,0,0,0,24,24,24,0,0,74,74,74,74,74,0,74,0,24,24,24,24,24,0,24,02-02-22,02-02-22,14:57:00,Wed Mar 02 2022 14:57:00 GMT+0100 (közép-európai téli idő),The main experiment item,yes,0,0,C:/Users/rrics/Documents/!!ResearchBMECOGSCI/gnet,0,0,0,prototype3.png,no,mono,no,18,no,black,no,no,768,1167,3.5.6,legacy,xpyriment,osweb,1.3.13,0,down,space,left,down,32088,40556,32254,32088,2,legacy,824,1536,24,864,24,0,0,1536,1646229424889,1024,2,48000,-16,experiment,p3sarrsha3.png,1,odd,Win32,96,152447,149432,96,96,673663,675165,668659,153965,668659,96,818809,820312,815808,675170,815808,visual_patterns,0,0,0,yes,1366
undefined,undefined,undefined,undefined,white,no,Mozilla,Netscape,"5.0 (Windows NT 10.0; Win64; x64) AppleWebKit/537.36 (KHTML, like Gecko) Chrome/98.0.4758.102 Safari/537.36",xpyriment,legacy,legacy,0,uniform,0,0,0,0,24,24,24,0,0,74,74,74,74,74,0,74,0,25,25,25,25,25,0,25,02-02-22,02-02-22,14:57:00,Wed Mar 02 2022 14:57:00 GMT+0100 (közép-európai téli idő),The main experiment item,yes,0,0,C:/Users/rrics/Documents/!!ResearchBMECOGSCI/gnet,0,0,0,prototype3.png,no,mono,no,18,no,black,no,no,768,1167,3.5.6,legacy,xpyriment,osweb,1.3.13,0,down,space,left,down,32088,40556,32254,32088,2,legacy,824,1536,24,864,24,0,0,1536,1646229424889,1024,2,48000,-16,experiment,p8sarr4.png,1,odd,Win32,96,152447,149432,96,96,673663,675165,668659,153965,668659,96,823333,824845,820331,675170,820331,visual_patterns,0,0,0,yes,1366
undefined,undefined,undefined,undefined,white,no,Mozilla,Netscape,"5.0 (Windows NT 10.0; Win64; x64) AppleWebKit/537.36 (KHTML, like Gecko) Chrome/98.0.4758.102 Safari/537.36",xpyriment,legacy,legacy,0,uniform,0,0,0,0,24,24,24,0,0,74,74,74,74,74,0,74,0,26,26,26,26,26,0,26,02-02-22,02-02-22,14:57:00,Wed Mar 02 2022 14:57:00 GMT+0100 (közép-európai téli idő),The main experiment item,yes,0,0,C:/Users/rrics/Documents/!!ResearchBMECOGSCI/gnet,0,0,0,prototype3.png,no,mono,no,18,no,black,no,no,768,1167,3.5.6,legacy,xpyriment,osweb,1.3.13,0,down,space,left,down,32088,40556,32254,32088,2,legacy,824,1536,24,864,24,0,0,1536,1646229424889,1024,2,48000,-16,experiment,p2sarrshacol4.png,1,odd,Win32,96,152447,149432,96,96,673663,675165,668659,153965,668659,96,827858,829361,824856,675170,824856,visual_patterns,0,0,0,yes,1366
undefined,undefined,undefined,undefined,white,no,Mozilla,Netscape,"5.0 (Windows NT 10.0; Win64; x64) AppleWebKit/537.36 (KHTML, like Gecko) Chrome/98.0.4758.102 Safari/537.36",xpyriment,legacy,legacy,0,uniform,0,0,0,0,24,24,24,0,0,74,74,74,74,74,0,74,0,27,27,27,27,27,0,27,02-02-22,02-02-22,14:57:00,Wed Mar 02 2022 14:57:00 GMT+0100 (közép-európai téli idő),The main experiment item,yes,0,0,C:/Users/rrics/Documents/!!ResearchBMECOGSCI/gnet,0,0,0,prototype3.png,no,mono,no,18,no,black,no,no,768,1167,3.5.6,legacy,xpyriment,osweb,1.3.13,0,down,space,left,down,32088,40556,32254,32088,2,legacy,824,1536,24,864,24,0,0,1536,1646229424889,1024,2,48000,-16,experiment,p4sarrshacol1.png,1,odd,Win32,96,152447,149432,96,96,673663,675165,668659,153965,668659,96,832376,833878,829373,675170,829373,visual_patterns,0,0,0,yes,1366
undefined,undefined,undefined,undefined,white,no,Mozilla,Netscape,"5.0 (Windows NT 10.0; Win64; x64) AppleWebKit/537.36 (KHTML, like Gecko) Chrome/98.0.4758.102 Safari/537.36",xpyriment,legacy,legacy,0,uniform,0,0,0,0,24,24,24,0,0,74,74,74,74,74,0,74,0,28,28,28,28,28,0,28,02-02-22,02-02-22,14:57:00,Wed Mar 02 2022 14:57:00 GMT+0100 (közép-európai téli idő),The main experiment item,yes,0,0,C:/Users/rrics/Documents/!!ResearchBMECOGSCI/gnet,0,0,0,prototype3.png,no,mono,no,18,no,black,no,no,768,1167,3.5.6,legacy,xpyriment,osweb,1.3.13,0,down,space,left,down,32088,40556,32254,32088,2,legacy,824,1536,24,864,24,0,0,1536,1646229424889,1024,2,48000,-16,experiment,p1sarrshacol3.png,1,odd,Win32,96,152447,149432,96,96,673663,675165,668659,153965,668659,96,836895,838411,833896,675170,833896,visual_patterns,0,0,0,yes,1366
undefined,undefined,undefined,undefined,white,no,Mozilla,Netscape,"5.0 (Windows NT 10.0; Win64; x64) AppleWebKit/537.36 (KHTML, like Gecko) Chrome/98.0.4758.102 Safari/537.36",xpyriment,legacy,legacy,0,uniform,0,0,0,0,24,24,24,0,0,74,74,74,74,74,0,74,0,29,29,29,29,29,0,29,02-02-22,02-02-22,14:57:00,Wed Mar 02 2022 14:57:00 GMT+0100 (közép-európai téli idő),The main experiment item,yes,0,0,C:/Users/rrics/Documents/!!ResearchBMECOGSCI/gnet,0,0,0,prototype3.png,no,mono,no,18,no,black,no,no,768,1167,3.5.6,legacy,xpyriment,osweb,1.3.13,0,down,space,left,down,32088,40556,32254,32088,2,legacy,824,1536,24,864,24,0,0,1536,1646229424889,1024,2,48000,-16,experiment,p2sarrsha1.png,1,odd,Win32,96,152447,149432,96,96,673663,675165,668659,153965,668659,96,841447,842961,838442,675170,838442,visual_patterns,0,0,0,yes,1366
undefined,undefined,undefined,undefined,white,no,Mozilla,Netscape,"5.0 (Windows NT 10.0; Win64; x64) AppleWebKit/537.36 (KHTML, like Gecko) Chrome/98.0.4758.102 Safari/537.36",xpyriment,legacy,legacy,0,uniform,0,0,0,0,24,24,24,0,0,74,74,74,74,74,0,74,0,30,30,30,30,30,0,30,02-02-22,02-02-22,14:57:00,Wed Mar 02 2022 14:57:00 GMT+0100 (közép-európai téli idő),The main experiment item,yes,0,0,C:/Users/rrics/Documents/!!ResearchBMECOGSCI/gnet,0,0,0,prototype3.png,no,mono,no,18,no,black,no,no,768,1167,3.5.6,legacy,xpyriment,osweb,1.3.13,0,down,space,left,down,32088,40556,32254,32088,2,legacy,824,1536,24,864,24,0,0,1536,1646229424889,1024,2,48000,-16,experiment,p3sarr2.png,1,odd,Win32,96,152447,149432,96,96,673663,675165,668659,153965,668659,96,845972,847477,842972,675170,842972,visual_patterns,0,0,0,yes,1366
undefined,undefined,undefined,undefined,white,no,Mozilla,Netscape,"5.0 (Windows NT 10.0; Win64; x64) AppleWebKit/537.36 (KHTML, like Gecko) Chrome/98.0.4758.102 Safari/537.36",xpyriment,legacy,legacy,0,uniform,0,0,0,0,24,24,24,0,0,74,74,74,74,74,0,74,0,31,31,31,31,31,0,31,02-02-22,02-02-22,14:57:00,Wed Mar 02 2022 14:57:00 GMT+0100 (közép-európai téli idő),The main experiment item,yes,0,0,C:/Users/rrics/Documents/!!ResearchBMECOGSCI/gnet,0,0,0,prototype3.png,no,mono,no,18,no,black,no,no,768,1167,3.5.6,legacy,xpyriment,osweb,1.3.13,0,down,space,left,down,32088,40556,32254,32088,2,legacy,824,1536,24,864,24,0,0,1536,1646229424889,1024,2,48000,-16,experiment,p3sarrshacol3.png,1,odd,Win32,96,152447,149432,96,96,673663,675165,668659,153965,668659,96,850491,851994,847496,675170,847496,visual_patterns,0,0,0,yes,1366
undefined,undefined,undefined,undefined,white,no,Mozilla,Netscape,"5.0 (Windows NT 10.0; Win64; x64) AppleWebKit/537.36 (KHTML, like Gecko) Chrome/98.0.4758.102 Safari/537.36",xpyriment,legacy,legacy,0,uniform,0,0,0,0,24,24,24,0,0,74,74,74,74,74,0,74,0,32,32,32,32,32,0,32,02-02-22,02-02-22,14:57:00,Wed Mar 02 2022 14:57:00 GMT+0100 (közép-európai téli idő),The main experiment item,yes,0,0,C:/Users/rrics/Documents/!!ResearchBMECOGSCI/gnet,0,0,0,prototype3.png,no,mono,no,18,no,black,no,no,768,1167,3.5.6,legacy,xpyriment,osweb,1.3.13,0,down,space,left,down,32088,40556,32254,32088,2,legacy,824,1536,24,864,24,0,0,1536,1646229424889,1024,2,48000,-16,experiment,p2sarrcol4.png,1,odd,Win32,96,152447,149432,96,96,673663,675165,668659,153965,668659,96,855007,856510,852010,675170,852010,visual_patterns,0,0,0,yes,1366
undefined,undefined,undefined,undefined,white,no,Mozilla,Netscape,"5.0 (Windows NT 10.0; Win64; x64) AppleWebKit/537.36 (KHTML, like Gecko) Chrome/98.0.4758.102 Safari/537.36",xpyriment,legacy,legacy,0,uniform,0,0,0,0,24,24,24,0,0,74,74,74,74,74,0,74,0,33,33,33,33,33,0,33,02-02-22,02-02-22,14:57:00,Wed Mar 02 2022 14:57:00 GMT+0100 (közép-európai téli idő),The main experiment item,yes,0,0,C:/Users/rrics/Documents/!!ResearchBMECOGSCI/gnet,0,0,0,prototype3.png,no,mono,no,18,no,black,no,no,768,1167,3.5.6,legacy,xpyriment,osweb,1.3.13,0,down,space,left,down,32088,40556,32254,32088,2,legacy,824,1536,24,864,24,0,0,1536,1646229424889,1024,2,48000,-16,experiment,p5sarrcol1.png,1,odd,Win32,96,152447,149432,96,96,673663,675165,668659,153965,668659,96,859523,861027,856520,675170,856520,visual_patterns,0,0,0,yes,1366
undefined,undefined,undefined,undefined,white,no,Mozilla,Netscape,"5.0 (Windows NT 10.0; Win64; x64) AppleWebKit/537.36 (KHTML, like Gecko) Chrome/98.0.4758.102 Safari/537.36",xpyriment,legacy,legacy,0,uniform,0,0,0,0,24,24,24,0,0,74,74,74,74,74,0,74,0,34,34,34,34,34,0,34,02-02-22,02-02-22,14:57:00,Wed Mar 02 2022 14:57:00 GMT+0100 (közép-európai téli idő),The main experiment item,yes,0,0,C:/Users/rrics/Documents/!!ResearchBMECOGSCI/gnet,0,0,0,prototype3.png,no,mono,no,18,no,black,no,no,768,1167,3.5.6,legacy,xpyriment,osweb,1.3.13,0,down,space,left,down,32088,40556,32254,32088,2,legacy,824,1536,24,864,24,0,0,1536,1646229424889,1024,2,48000,-16,experiment,p8sarr2.png,1,odd,Win32,96,152447,149432,96,96,673663,675165,668659,153965,668659,96,864063,865577,861059,675170,861059,visual_patterns,0,0,0,yes,1366
undefined,undefined,undefined,undefined,white,no,Mozilla,Netscape,"5.0 (Windows NT 10.0; Win64; x64) AppleWebKit/537.36 (KHTML, like Gecko) Chrome/98.0.4758.102 Safari/537.36",xpyriment,legacy,legacy,0,uniform,0,0,0,0,24,24,24,0,0,74,74,74,74,74,0,74,0,35,35,35,35,35,0,35,02-02-22,02-02-22,14:57:00,Wed Mar 02 2022 14:57:00 GMT+0100 (közép-európai téli idő),The main experiment item,yes,0,0,C:/Users/rrics/Documents/!!ResearchBMECOGSCI/gnet,0,0,0,prototype3.png,no,mono,no,18,no,black,no,no,768,1167,3.5.6,legacy,xpyriment,osweb,1.3.13,0,down,space,left,down,32088,40556,32254,32088,2,legacy,824,1536,24,864,24,0,0,1536,1646229424889,1024,2,48000,-16,experiment,p5sarr3.png,1,odd,Win32,96,152447,149432,96,96,673663,675165,668659,153965,668659,96,868594,870110,865594,675170,865594,visual_patterns,0,0,0,yes,1366
undefined,undefined,undefined,undefined,white,no,Mozilla,Netscape,"5.0 (Windows NT 10.0; Win64; x64) AppleWebKit/537.36 (KHTML, like Gecko) Chrome/98.0.4758.102 Safari/537.36",xpyriment,legacy,legacy,0,uniform,0,0,0,0,24,24,24,0,0,74,74,74,74,74,0,74,0,36,36,36,36,36,0,36,02-02-22,02-02-22,14:57:00,Wed Mar 02 2022 14:57:00 GMT+0100 (közép-európai téli idő),The main experiment item,yes,0,0,C:/Users/rrics/Documents/!!ResearchBMECOGSCI/gnet,0,0,0,prototype3.png,no,mono,no,18,no,black,no,no,768,1167,3.5.6,legacy,xpyriment,osweb,1.3.13,0,down,space,left,down,32088,40556,32254,32088,2,legacy,824,1536,24,864,24,0,0,1536,1646229424889,1024,2,48000,-16,experiment,p7sarr1.png,1,odd,Win32,96,152447,149432,96,96,673663,675165,668659,153965,668659,96,873128,874643,870124,675170,870124,visual_patterns,0,0,0,yes,1366
undefined,undefined,undefined,undefined,white,no,Mozilla,Netscape,"5.0 (Windows NT 10.0; Win64; x64) AppleWebKit/537.36 (KHTML, like Gecko) Chrome/98.0.4758.102 Safari/537.36",xpyriment,legacy,legacy,0,uniform,0,0,0,0,24,24,24,0,0,74,74,74,74,74,0,74,0,37,37,37,37,37,0,37,02-02-22,02-02-22,14:57:00,Wed Mar 02 2022 14:57:00 GMT+0100 (közép-európai téli idő),The main experiment item,yes,0,0,C:/Users/rrics/Documents/!!ResearchBMECOGSCI/gnet,0,0,0,prototype3.png,no,mono,no,18,no,black,no,no,768,1167,3.5.6,legacy,xpyriment,osweb,1.3.13,0,down,space,left,down,32088,40556,32254,32088,2,legacy,824,1536,24,864,24,0,0,1536,1646229424889,1024,2,48000,-16,experiment,p1sarrcol4.png,1,odd,Win32,96,152447,149432,96,96,673663,675165,668659,153965,668659,96,877658,879160,874660,675170,874660,visual_patterns,0,0,0,yes,1366
undefined,undefined,undefined,undefined,white,no,Mozilla,Netscape,"5.0 (Windows NT 10.0; Win64; x64) AppleWebKit/537.36 (KHTML, like Gecko) Chrome/98.0.4758.102 Safari/537.36",xpyriment,legacy,legacy,0,uniform,0,0,0,0,24,24,24,0,0,74,74,74,74,74,0,74,0,38,38,38,38,38,0,38,02-02-22,02-02-22,14:57:00,Wed Mar 02 2022 14:57:00 GMT+0100 (közép-európai téli idő),The main experiment item,yes,0,0,C:/Users/rrics/Documents/!!ResearchBMECOGSCI/gnet,0,0,0,prototype3.png,no,mono,no,18,no,black,no,no,768,1167,3.5.6,legacy,xpyriment,osweb,1.3.13,0,down,space,left,down,32088,40556,32254,32088,2,legacy,824,1536,24,864,24,0,0,1536,1646229424889,1024,2,48000,-16,experiment,p3sarrsha4.png,1,odd,Win32,96,152447,149432,96,96,673663,675165,668659,153965,668659,96,882174,883676,879173,675170,879173,visual_patterns,0,0,0,yes,1366
undefined,undefined,undefined,undefined,white,no,Mozilla,Netscape,"5.0 (Windows NT 10.0; Win64; x64) AppleWebKit/537.36 (KHTML, like Gecko) Chrome/98.0.4758.102 Safari/537.36",xpyriment,legacy,legacy,0,uniform,0,0,0,0,24,24,24,0,0,74,74,74,74,74,0,74,0,39,39,39,39,39,0,39,02-02-22,02-02-22,14:57:00,Wed Mar 02 2022 14:57:00 GMT+0100 (közép-európai téli idő),The main experiment item,yes,0,0,C:/Users/rrics/Documents/!!ResearchBMECOGSCI/gnet,0,0,0,prototype3.png,no,mono,no,18,no,black,no,no,768,1167,3.5.6,legacy,xpyriment,osweb,1.3.13,0,down,space,left,down,32088,40556,32254,32088,2,legacy,824,1536,24,864,24,0,0,1536,1646229424889,1024,2,48000,-16,experiment,p3sarr1.png,1,odd,Win32,96,152447,149432,96,96,673663,675165,668659,153965,668659,96,886709,888226,883703,675170,883703,visual_patterns,0,0,0,yes,1366
undefined,undefined,undefined,undefined,white,no,Mozilla,Netscape,"5.0 (Windows NT 10.0; Win64; x64) AppleWebKit/537.36 (KHTML, like Gecko) Chrome/98.0.4758.102 Safari/537.36",xpyriment,legacy,legacy,0,uniform,0,0,0,0,24,24,24,0,0,74,74,74,74,74,0,74,0,40,40,40,40,40,0,40,02-02-22,02-02-22,14:57:00,Wed Mar 02 2022 14:57:00 GMT+0100 (közép-európai téli idő),The main experiment item,yes,0,0,C:/Users/rrics/Documents/!!ResearchBMECOGSCI/gnet,0,0,0,prototype3.png,no,mono,no,18,no,black,no,no,768,1167,3.5.6,legacy,xpyriment,osweb,1.3.13,0,down,space,left,down,32088,40556,32254,32088,2,legacy,824,1536,24,864,24,0,0,1536,1646229424889,1024,2,48000,-16,experiment,p2sarrsha3.png,1,odd,Win32,96,152447,149432,96,96,673663,675165,668659,153965,668659,96,891242,892743,888243,675170,888243,visual_patterns,0,0,0,yes,1366
undefined,undefined,undefined,undefined,white,no,Mozilla,Netscape,"5.0 (Windows NT 10.0; Win64; x64) AppleWebKit/537.36 (KHTML, like Gecko) Chrome/98.0.4758.102 Safari/537.36",xpyriment,legacy,legacy,0,uniform,0,0,0,0,24,24,24,0,0,74,74,74,74,74,0,74,0,41,41,41,41,41,0,41,02-02-22,02-02-22,14:57:00,Wed Mar 02 2022 14:57:00 GMT+0100 (közép-európai téli idő),The main experiment item,yes,0,0,C:/Users/rrics/Documents/!!ResearchBMECOGSCI/gnet,0,0,0,prototype3.png,no,mono,no,18,no,black,no,no,768,1167,3.5.6,legacy,xpyriment,osweb,1.3.13,0,down,space,left,down,32088,40556,32254,32088,2,legacy,824,1536,24,864,24,0,0,1536,1646229424889,1024,2,48000,-16,experiment,p9sarr3.png,1,odd,Win32,96,152447,149432,96,96,673663,675165,668659,153965,668659,96,895757,897259,892758,675170,892758,visual_patterns,0,0,0,yes,1366
undefined,undefined,undefined,undefined,white,no,Mozilla,Netscape,"5.0 (Windows NT 10.0; Win64; x64) AppleWebKit/537.36 (KHTML, like Gecko) Chrome/98.0.4758.102 Safari/537.36",xpyriment,legacy,legacy,0,uniform,0,0,0,0,24,24,24,0,0,74,74,74,74,74,0,74,0,42,42,42,42,42,0,42,02-02-22,02-02-22,14:57:00,Wed Mar 02 2022 14:57:00 GMT+0100 (közép-európai téli idő),The main experiment item,yes,0,0,C:/Users/rrics/Documents/!!ResearchBMECOGSCI/gnet,0,0,0,prototype3.png,no,mono,no,18,no,black,no,no,768,1167,3.5.6,legacy,xpyriment,osweb,1.3.13,0,down,space,left,down,32088,40556,32254,32088,2,legacy,824,1536,24,864,24,0,0,1536,1646229424889,1024,2,48000,-16,experiment,p10sarr4.png,1,odd,Win32,96,152447,149432,96,96,673663,675165,668659,153965,668659,96,900272,901776,897274,675170,897274,visual_patterns,0,0,0,yes,1366
undefined,undefined,undefined,undefined,white,no,Mozilla,Netscape,"5.0 (Windows NT 10.0; Win64; x64) AppleWebKit/537.36 (KHTML, like Gecko) Chrome/98.0.4758.102 Safari/537.36",xpyriment,legacy,legacy,0,uniform,0,0,0,0,24,24,24,0,0,74,74,74,74,74,0,74,0,43,43,43,43,43,0,43,02-02-22,02-02-22,14:57:00,Wed Mar 02 2022 14:57:00 GMT+0100 (közép-európai téli idő),The main experiment item,yes,0,0,C:/Users/rrics/Documents/!!ResearchBMECOGSCI/gnet,0,0,0,prototype3.png,no,mono,no,18,no,black,no,no,768,1167,3.5.6,legacy,xpyriment,osweb,1.3.13,0,down,space,left,down,32088,40556,32254,32088,2,legacy,824,1536,24,864,24,0,0,1536,1646229424889,1024,2,48000,-16,experiment,p4sarrcol1.png,1,odd,Win32,96,152447,149432,96,96,673663,675165,668659,153965,668659,96,904792,906309,901789,675170,901789,visual_patterns,0,0,0,yes,1366
undefined,undefined,undefined,undefined,white,no,Mozilla,Netscape,"5.0 (Windows NT 10.0; Win64; x64) AppleWebKit/537.36 (KHTML, like Gecko) Chrome/98.0.4758.102 Safari/537.36",xpyriment,legacy,legacy,0,uniform,0,0,0,0,24,24,24,0,0,74,74,74,74,74,0,74,0,44,44,44,44,44,0,44,02-02-22,02-02-22,14:57:00,Wed Mar 02 2022 14:57:00 GMT+0100 (közép-európai téli idő),The main experiment item,yes,0,0,C:/Users/rrics/Documents/!!ResearchBMECOGSCI/gnet,0,0,0,prototype3.png,no,mono,no,18,no,black,no,no,768,1167,3.5.6,legacy,xpyriment,osweb,1.3.13,0,down,space,left,down,32088,40556,32254,32088,2,legacy,824,1536,24,864,24,0,0,1536,1646229424889,1024,2,48000,-16,experiment,p5sarrshacol4.png,1,odd,Win32,96,152447,149432,96,96,673663,675165,668659,153965,668659,96,909341,910842,906339,675170,906339,visual_patterns,0,0,0,yes,1366
undefined,undefined,undefined,undefined,white,no,Mozilla,Netscape,"5.0 (Windows NT 10.0; Win64; x64) AppleWebKit/537.36 (KHTML, like Gecko) Chrome/98.0.4758.102 Safari/537.36",xpyriment,legacy,legacy,0,uniform,0,0,0,0,24,24,24,0,0,74,74,74,74,74,0,74,0,45,45,45,45,45,0,45,02-02-22,02-02-22,14:57:00,Wed Mar 02 2022 14:57:00 GMT+0100 (közép-európai téli idő),The main experiment item,yes,0,0,C:/Users/rrics/Documents/!!ResearchBMECOGSCI/gnet,0,0,0,prototype3.png,no,mono,no,18,no,black,no,no,768,1167,3.5.6,legacy,xpyriment,osweb,1.3.13,0,down,space,left,down,32088,40556,32254,32088,2,legacy,824,1536,24,864,24,0,0,1536,1646229424889,1024,2,48000,-16,experiment,p3sarr3.png,1,odd,Win32,96,152447,149432,96,96,673663,675165,668659,153965,668659,96,913856,915359,910856,675170,910856,visual_patterns,0,0,0,yes,1366
undefined,undefined,undefined,undefined,white,no,Mozilla,Netscape,"5.0 (Windows NT 10.0; Win64; x64) AppleWebKit/537.36 (KHTML, like Gecko) Chrome/98.0.4758.102 Safari/537.36",xpyriment,legacy,legacy,0,uniform,0,0,0,0,24,24,24,0,0,74,74,74,74,74,0,74,0,46,46,46,46,46,0,46,02-02-22,02-02-22,14:57:00,Wed Mar 02 2022 14:57:00 GMT+0100 (közép-európai téli idő),The main experiment item,yes,0,0,C:/Users/rrics/Documents/!!ResearchBMECOGSCI/gnet,0,0,0,prototype3.png,no,mono,no,18,no,black,no,no,768,1167,3.5.6,legacy,xpyriment,osweb,1.3.13,0,down,space,left,down,32088,40556,32254,32088,2,legacy,824,1536,24,864,24,0,0,1536,1646229424889,1024,2,48000,-16,experiment,p2sarr3.png,1,odd,Win32,96,152447,149432,96,96,673663,675165,668659,153965,668659,96,918370,919879,915376,675170,915376,visual_patterns,0,0,0,yes,1366
undefined,undefined,undefined,undefined,white,no,Mozilla,Netscape,"5.0 (Windows NT 10.0; Win64; x64) AppleWebKit/537.36 (KHTML, like Gecko) Chrome/98.0.4758.102 Safari/537.36",xpyriment,legacy,legacy,0,uniform,0,0,0,0,24,24,24,0,0,74,74,74,74,74,0,74,0,47,47,47,47,47,0,47,02-02-22,02-02-22,14:57:00,Wed Mar 02 2022 14:57:00 GMT+0100 (közép-európai téli idő),The main experiment item,yes,0,0,C:/Users/rrics/Documents/!!ResearchBMECOGSCI/gnet,0,0,0,prototype3.png,no,mono,no,18,no,black,no,no,768,1167,3.5.6,legacy,xpyriment,osweb,1.3.13,0,down,space,left,down,32088,40556,32254,32088,2,legacy,824,1536,24,864,24,0,0,1536,1646229424889,1024,2,48000,-16,experiment,p4sarr2.png,1,odd,Win32,96,152447,149432,96,96,673663,675165,668659,153965,668659,96,922887,924392,919885,675170,919885,visual_patterns,0,0,0,yes,1366
undefined,undefined,undefined,undefined,white,no,Mozilla,Netscape,"5.0 (Windows NT 10.0; Win64; x64) AppleWebKit/537.36 (KHTML, like Gecko) Chrome/98.0.4758.102 Safari/537.36",xpyriment,legacy,legacy,0,uniform,0,0,0,0,24,24,24,0,0,74,74,74,74,74,0,74,0,48,48,48,48,48,0,48,02-02-22,02-02-22,14:57:00,Wed Mar 02 2022 14:57:00 GMT+0100 (közép-európai téli idő),The main experiment item,yes,0,0,C:/Users/rrics/Documents/!!ResearchBMECOGSCI/gnet,0,0,0,prototype3.png,no,mono,no,18,no,black,no,no,768,1167,3.5.6,legacy,xpyriment,osweb,1.3.13,0,down,space,left,down,32088,40556,32254,32088,2,legacy,824,1536,24,864,24,0,0,1536,1646229424889,1024,2,48000,-16,experiment,p2sarrshacol3.png,1,odd,Win32,96,152447,149432,96,96,673663,675165,668659,153965,668659,96,927406,928908,924408,675170,924408,visual_patterns,0,0,0,yes,1366
undefined,undefined,undefined,undefined,white,no,Mozilla,Netscape,"5.0 (Windows NT 10.0; Win64; x64) AppleWebKit/537.36 (KHTML, like Gecko) Chrome/98.0.4758.102 Safari/537.36",xpyriment,legacy,legacy,0,uniform,0,0,0,0,24,24,24,0,0,74,74,74,74,74,0,74,0,49,49,49,49,49,0,49,02-02-22,02-02-22,14:57:00,Wed Mar 02 2022 14:57:00 GMT+0100 (közép-európai téli idő),The main experiment item,yes,0,0,C:/Users/rrics/Documents/!!ResearchBMECOGSCI/gnet,0,0,0,prototype3.png,no,mono,no,18,no,black,no,no,768,1167,3.5.6,legacy,xpyriment,osweb,1.3.13,0,down,space,left,down,32088,40556,32254,32088,2,legacy,824,1536,24,864,24,0,0,1536,1646229424889,1024,2,48000,-16,experiment,p2sarrcol2.png,1,odd,Win32,96,152447,149432,96,96,673663,675165,668659,153965,668659,96,931924,933425,928923,675170,928923,visual_patterns,0,0,0,yes,1366
