acc,accuracy,average_response_time,avg_rt,background,bidi,browser_codename,browser_name,browser_version,canvas_backend,clock_backend,color_backend,compensation,coordinates,count_end,count_experiment,count_osweb,count_prestudy,count_prestudy_isi,count_prestudy_sequence,count_prestudy_stimpres,count_start,count_study,count_study_coroutines,count_study_isi,count_study_logger,count_study_response,count_study_sequence,count_study_start,count_study_stimpres,count_test,count_test_coroutines,count_test_isi,count_test_logger,count_test_response,count_test_sequence,count_test_start,count_test_stimpres,date_startdate,date_startdateUTC,date_starttime,datetime,description,disable_garbage_collection,experiment_debug,experiment_parameters,experiment_path,experiment_pilot,experiment_taskname,experiment_taskversion,fampict,font_bold,font_family,font_italic,font_size,font_underline,foreground,form_clicks,fullscreen,height,jatosStudyResultId,jatosVersion,keyboard_backend,mouse_backend,opensesame_codename,opensesame_version,repeat_cycle,response,response_start,response_study_start,response_test_start,response_time,response_time_start,response_time_study_start,response_time_test_start,round_decimals,sampler_backend,screen_availableHeight,screen_availableWidth,screen_colorDepth,screen_height,screen_pixelDepth,screen_screenX,screen_screenY,screen_width,sessionid,sound_buf_size,sound_channels,sound_freq,sound_sample_size,start,stim,subject_nr,subject_parity,system_os,time_prestudy,time_prestudy_isi,time_prestudy_stimpres,time_start,time_study,time_study_isi,time_study_logger,time_study_response,time_study_start,time_study_stimpres,time_test,time_test_isi,time_test_logger,time_test_response,time_test_start,time_test_stimpres,title,total_correct,total_response_time,total_responses,uniform_coordinates,width
undefined,undefined,undefined,undefined,white,no,Mozilla,Netscape,"5.0 (Windows NT 10.0; Win64; x64) AppleWebKit/537.36 (KHTML, like Gecko) Chrome/98.0.4758.102 Safari/537.36",xpyriment,legacy,legacy,0,uniform,0,0,0,0,24,24,24,0,0,0,0,0,0,0,0,0,0,,,,,,0,,02-02-22,02-02-22,15:08:55,Wed Mar 02 2022 15:08:55 GMT+0100 (közép-európai téli idő),The main experiment item,yes,0,0,C:/Users/rrics/Documents/!!ResearchBMECOGSCI/gnet,0,0,0,prototype3.png,no,mono,no,18,no,black,no,no,768,1169,3.5.6,legacy,xpyriment,osweb,1.3.13,0,space,space,space,,35337,3274,35337,,2,legacy,816,1536,24,864,24,0,0,1536,1646230221333,1024,2,48000,-16,experiment,p6sarr1.png,1,odd,Win32,111,115279,112261,111,111,157181,158694,152184,116796,152184,111,,,,,,visual_patterns,0,0,0,yes,1366
undefined,undefined,undefined,undefined,white,no,Mozilla,Netscape,"5.0 (Windows NT 10.0; Win64; x64) AppleWebKit/537.36 (KHTML, like Gecko) Chrome/98.0.4758.102 Safari/537.36",xpyriment,legacy,legacy,0,uniform,0,0,0,0,24,24,24,0,0,1,1,1,1,1,0,1,0,,,,,,0,,02-02-22,02-02-22,15:08:55,Wed Mar 02 2022 15:08:55 GMT+0100 (közép-európai téli idő),The main experiment item,yes,0,0,C:/Users/rrics/Documents/!!ResearchBMECOGSCI/gnet,0,0,0,prototype3.png,no,mono,no,18,no,black,no,no,768,1169,3.5.6,legacy,xpyriment,osweb,1.3.13,0,space,space,space,,35337,3274,35337,,2,legacy,816,1536,24,864,24,0,0,1536,1646230221333,1024,2,48000,-16,experiment,prototype3.png,1,odd,Win32,111,115279,112261,111,111,163710,165211,158706,116796,158706,111,,,,,,visual_patterns,0,0,0,yes,1366
undefined,undefined,undefined,undefined,white,no,Mozilla,Netscape,"5.0 (Windows NT 10.0; Win64; x64) AppleWebKit/537.36 (KHTML, like Gecko) Chrome/98.0.4758.102 Safari/537.36",xpyriment,legacy,legacy,0,uniform,0,0,0,0,24,24,24,0,0,2,2,2,2,2,0,2,0,,,,,,0,,02-02-22,02-02-22,15:08:55,Wed Mar 02 2022 15:08:55 GMT+0100 (közép-európai téli idő),The main experiment item,yes,0,0,C:/Users/rrics/Documents/!!ResearchBMECOGSCI/gnet,0,0,0,prototype3.png,no,mono,no,18,no,black,no,no,768,1169,3.5.6,legacy,xpyriment,osweb,1.3.13,0,space,space,space,,35337,3274,35337,,2,legacy,816,1536,24,864,24,0,0,1536,1646230221333,1024,2,48000,-16,experiment,p3sarr1.png,1,odd,Win32,111,115279,112261,111,111,170230,171747,165228,116796,165228,111,,,,,,visual_patterns,0,0,0,yes,1366
undefined,undefined,undefined,undefined,white,no,Mozilla,Netscape,"5.0 (Windows NT 10.0; Win64; x64) AppleWebKit/537.36 (KHTML, like Gecko) Chrome/98.0.4758.102 Safari/537.36",xpyriment,legacy,legacy,0,uniform,0,0,0,0,24,24,24,0,0,3,3,3,3,3,0,3,0,,,,,,0,,02-02-22,02-02-22,15:08:55,Wed Mar 02 2022 15:08:55 GMT+0100 (közép-európai téli idő),The main experiment item,yes,0,0,C:/Users/rrics/Documents/!!ResearchBMECOGSCI/gnet,0,0,0,prototype3.png,no,mono,no,18,no,black,no,no,768,1169,3.5.6,legacy,xpyriment,osweb,1.3.13,0,space,space,space,,35337,3274,35337,,2,legacy,816,1536,24,864,24,0,0,1536,1646230221333,1024,2,48000,-16,experiment,p9sarr2.png,1,odd,Win32,111,115279,112261,111,111,176763,178266,171761,116796,171761,111,,,,,,visual_patterns,0,0,0,yes,1366
undefined,undefined,undefined,undefined,white,no,Mozilla,Netscape,"5.0 (Windows NT 10.0; Win64; x64) AppleWebKit/537.36 (KHTML, like Gecko) Chrome/98.0.4758.102 Safari/537.36",xpyriment,legacy,legacy,0,uniform,0,0,0,0,24,24,24,0,0,4,4,4,4,4,0,4,0,,,,,,0,,02-02-22,02-02-22,15:08:55,Wed Mar 02 2022 15:08:55 GMT+0100 (közép-európai téli idő),The main experiment item,yes,0,0,C:/Users/rrics/Documents/!!ResearchBMECOGSCI/gnet,0,0,0,prototype3.png,no,mono,no,18,no,black,no,no,768,1169,3.5.6,legacy,xpyriment,osweb,1.3.13,0,space,space,space,,35337,3274,35337,,2,legacy,816,1536,24,864,24,0,0,1536,1646230221333,1024,2,48000,-16,experiment,p4sarr2.png,1,odd,Win32,111,115279,112261,111,111,183309,184819,178307,116796,178307,111,,,,,,visual_patterns,0,0,0,yes,1366
undefined,undefined,undefined,undefined,white,no,Mozilla,Netscape,"5.0 (Windows NT 10.0; Win64; x64) AppleWebKit/537.36 (KHTML, like Gecko) Chrome/98.0.4758.102 Safari/537.36",xpyriment,legacy,legacy,0,uniform,0,0,0,0,24,24,24,0,0,5,5,5,5,5,0,5,0,,,,,,0,,02-02-22,02-02-22,15:08:55,Wed Mar 02 2022 15:08:55 GMT+0100 (közép-európai téli idő),The main experiment item,yes,0,0,C:/Users/rrics/Documents/!!ResearchBMECOGSCI/gnet,0,0,0,prototype3.png,no,mono,no,18,no,black,no,no,768,1169,3.5.6,legacy,xpyriment,osweb,1.3.13,0,space,space,space,,35337,3274,35337,,2,legacy,816,1536,24,864,24,0,0,1536,1646230221333,1024,2,48000,-16,experiment,p4sarrshacol2.png,1,odd,Win32,111,115279,112261,111,111,189831,191338,184833,116796,184833,111,,,,,,visual_patterns,0,0,0,yes,1366
undefined,undefined,undefined,undefined,white,no,Mozilla,Netscape,"5.0 (Windows NT 10.0; Win64; x64) AppleWebKit/537.36 (KHTML, like Gecko) Chrome/98.0.4758.102 Safari/537.36",xpyriment,legacy,legacy,0,uniform,0,0,0,0,24,24,24,0,0,6,6,6,6,6,0,6,0,,,,,,0,,02-02-22,02-02-22,15:08:55,Wed Mar 02 2022 15:08:55 GMT+0100 (közép-európai téli idő),The main experiment item,yes,0,0,C:/Users/rrics/Documents/!!ResearchBMECOGSCI/gnet,0,0,0,prototype3.png,no,mono,no,18,no,black,no,no,768,1169,3.5.6,legacy,xpyriment,osweb,1.3.13,0,space,space,space,,35337,3274,35337,,2,legacy,816,1536,24,864,24,0,0,1536,1646230221333,1024,2,48000,-16,experiment,p5sarrsha2.png,1,odd,Win32,111,115279,112261,111,111,196350,197857,191354,116796,191354,111,,,,,,visual_patterns,0,0,0,yes,1366
undefined,undefined,undefined,undefined,white,no,Mozilla,Netscape,"5.0 (Windows NT 10.0; Win64; x64) AppleWebKit/537.36 (KHTML, like Gecko) Chrome/98.0.4758.102 Safari/537.36",xpyriment,legacy,legacy,0,uniform,0,0,0,0,24,24,24,0,0,7,7,7,7,7,0,7,0,,,,,,0,,02-02-22,02-02-22,15:08:55,Wed Mar 02 2022 15:08:55 GMT+0100 (közép-európai téli idő),The main experiment item,yes,0,0,C:/Users/rrics/Documents/!!ResearchBMECOGSCI/gnet,0,0,0,prototype3.png,no,mono,no,18,no,black,no,no,768,1169,3.5.6,legacy,xpyriment,osweb,1.3.13,0,space,space,space,,35337,3274,35337,,2,legacy,816,1536,24,864,24,0,0,1536,1646230221333,1024,2,48000,-16,experiment,p2sarr1.png,1,odd,Win32,111,115279,112261,111,111,202868,204376,197873,116796,197873,111,,,,,,visual_patterns,0,0,0,yes,1366
undefined,undefined,undefined,undefined,white,no,Mozilla,Netscape,"5.0 (Windows NT 10.0; Win64; x64) AppleWebKit/537.36 (KHTML, like Gecko) Chrome/98.0.4758.102 Safari/537.36",xpyriment,legacy,legacy,0,uniform,0,0,0,0,24,24,24,0,0,8,8,8,8,8,0,8,0,,,,,,0,,02-02-22,02-02-22,15:08:55,Wed Mar 02 2022 15:08:55 GMT+0100 (közép-európai téli idő),The main experiment item,yes,0,0,C:/Users/rrics/Documents/!!ResearchBMECOGSCI/gnet,0,0,0,prototype3.png,no,mono,no,18,no,black,no,no,768,1169,3.5.6,legacy,xpyriment,osweb,1.3.13,0,space,space,space,,35337,3274,35337,,2,legacy,816,1536,24,864,24,0,0,1536,1646230221333,1024,2,48000,-16,experiment,prototype4.png,1,odd,Win32,111,115279,112261,111,111,209388,210895,204387,116796,204387,111,,,,,,visual_patterns,0,0,0,yes,1366
undefined,undefined,undefined,undefined,white,no,Mozilla,Netscape,"5.0 (Windows NT 10.0; Win64; x64) AppleWebKit/537.36 (KHTML, like Gecko) Chrome/98.0.4758.102 Safari/537.36",xpyriment,legacy,legacy,0,uniform,0,0,0,0,24,24,24,0,0,9,9,9,9,9,0,9,0,,,,,,0,,02-02-22,02-02-22,15:08:55,Wed Mar 02 2022 15:08:55 GMT+0100 (közép-európai téli idő),The main experiment item,yes,0,0,C:/Users/rrics/Documents/!!ResearchBMECOGSCI/gnet,0,0,0,prototype3.png,no,mono,no,18,no,black,no,no,768,1169,3.5.6,legacy,xpyriment,osweb,1.3.13,0,space,space,space,,35337,3274,35337,,2,legacy,816,1536,24,864,24,0,0,1536,1646230221333,1024,2,48000,-16,experiment,p5sarrsha1.png,1,odd,Win32,111,115279,112261,111,111,215907,217414,210909,116796,210909,111,,,,,,visual_patterns,0,0,0,yes,1366
undefined,undefined,undefined,undefined,white,no,Mozilla,Netscape,"5.0 (Windows NT 10.0; Win64; x64) AppleWebKit/537.36 (KHTML, like Gecko) Chrome/98.0.4758.102 Safari/537.36",xpyriment,legacy,legacy,0,uniform,0,0,0,0,24,24,24,0,0,10,10,10,10,10,0,10,0,,,,,,0,,02-02-22,02-02-22,15:08:55,Wed Mar 02 2022 15:08:55 GMT+0100 (közép-európai téli idő),The main experiment item,yes,0,0,C:/Users/rrics/Documents/!!ResearchBMECOGSCI/gnet,0,0,0,prototype3.png,no,mono,no,18,no,black,no,no,768,1169,3.5.6,legacy,xpyriment,osweb,1.3.13,0,space,space,space,,35337,3274,35337,,2,legacy,816,1536,24,864,24,0,0,1536,1646230221333,1024,2,48000,-16,experiment,p5sarrcol1.png,1,odd,Win32,111,115279,112261,111,111,222426,223934,217428,116796,217427,111,,,,,,visual_patterns,0,0,0,yes,1366
undefined,undefined,undefined,undefined,white,no,Mozilla,Netscape,"5.0 (Windows NT 10.0; Win64; x64) AppleWebKit/537.36 (KHTML, like Gecko) Chrome/98.0.4758.102 Safari/537.36",xpyriment,legacy,legacy,0,uniform,0,0,0,0,24,24,24,0,0,11,11,11,11,11,0,11,0,,,,,,0,,02-02-22,02-02-22,15:08:55,Wed Mar 02 2022 15:08:55 GMT+0100 (közép-európai téli idő),The main experiment item,yes,0,0,C:/Users/rrics/Documents/!!ResearchBMECOGSCI/gnet,0,0,0,prototype3.png,no,mono,no,18,no,black,no,no,768,1169,3.5.6,legacy,xpyriment,osweb,1.3.13,0,space,space,space,,35337,3274,35337,,2,legacy,816,1536,24,864,24,0,0,1536,1646230221333,1024,2,48000,-16,experiment,p8sarr2.png,1,odd,Win32,111,115279,112261,111,111,228944,230453,223947,116796,223947,111,,,,,,visual_patterns,0,0,0,yes,1366
undefined,undefined,undefined,undefined,white,no,Mozilla,Netscape,"5.0 (Windows NT 10.0; Win64; x64) AppleWebKit/537.36 (KHTML, like Gecko) Chrome/98.0.4758.102 Safari/537.36",xpyriment,legacy,legacy,0,uniform,0,0,0,0,24,24,24,0,0,12,12,12,12,12,0,12,0,,,,,,0,,02-02-22,02-02-22,15:08:55,Wed Mar 02 2022 15:08:55 GMT+0100 (közép-európai téli idő),The main experiment item,yes,0,0,C:/Users/rrics/Documents/!!ResearchBMECOGSCI/gnet,0,0,0,prototype3.png,no,mono,no,18,no,black,no,no,768,1169,3.5.6,legacy,xpyriment,osweb,1.3.13,0,space,space,space,,35337,3274,35337,,2,legacy,816,1536,24,864,24,0,0,1536,1646230221333,1024,2,48000,-16,experiment,p5sarrshacol2.png,1,odd,Win32,111,115279,112261,111,111,235466,236972,230469,116796,230469,111,,,,,,visual_patterns,0,0,0,yes,1366
undefined,undefined,undefined,undefined,white,no,Mozilla,Netscape,"5.0 (Windows NT 10.0; Win64; x64) AppleWebKit/537.36 (KHTML, like Gecko) Chrome/98.0.4758.102 Safari/537.36",xpyriment,legacy,legacy,0,uniform,0,0,0,0,24,24,24,0,0,13,13,13,13,13,0,13,0,,,,,,0,,02-02-22,02-02-22,15:08:55,Wed Mar 02 2022 15:08:55 GMT+0100 (közép-európai téli idő),The main experiment item,yes,0,0,C:/Users/rrics/Documents/!!ResearchBMECOGSCI/gnet,0,0,0,prototype3.png,no,mono,no,18,no,black,no,no,768,1169,3.5.6,legacy,xpyriment,osweb,1.3.13,0,space,space,space,,35337,3274,35337,,2,legacy,816,1536,24,864,24,0,0,1536,1646230221333,1024,2,48000,-16,experiment,p8sarr1.png,1,odd,Win32,111,115279,112261,111,111,241989,243491,236989,116796,236989,111,,,,,,visual_patterns,0,0,0,yes,1366
undefined,undefined,undefined,undefined,white,no,Mozilla,Netscape,"5.0 (Windows NT 10.0; Win64; x64) AppleWebKit/537.36 (KHTML, like Gecko) Chrome/98.0.4758.102 Safari/537.36",xpyriment,legacy,legacy,0,uniform,0,0,0,0,24,24,24,0,0,14,14,14,14,14,0,14,0,,,,,,0,,02-02-22,02-02-22,15:08:55,Wed Mar 02 2022 15:08:55 GMT+0100 (közép-európai téli idő),The main experiment item,yes,0,0,C:/Users/rrics/Documents/!!ResearchBMECOGSCI/gnet,0,0,0,prototype3.png,no,mono,no,18,no,black,no,no,768,1169,3.5.6,legacy,xpyriment,osweb,1.3.13,0,space,space,space,,35337,3274,35337,,2,legacy,816,1536,24,864,24,0,0,1536,1646230221333,1024,2,48000,-16,experiment,p3sarrcol1.png,1,odd,Win32,111,115279,112261,111,111,248509,250011,243508,116796,243508,111,,,,,,visual_patterns,0,0,0,yes,1366
undefined,undefined,undefined,undefined,white,no,Mozilla,Netscape,"5.0 (Windows NT 10.0; Win64; x64) AppleWebKit/537.36 (KHTML, like Gecko) Chrome/98.0.4758.102 Safari/537.36",xpyriment,legacy,legacy,0,uniform,0,0,0,0,24,24,24,0,0,15,15,15,15,15,0,15,0,,,,,,0,,02-02-22,02-02-22,15:08:55,Wed Mar 02 2022 15:08:55 GMT+0100 (közép-európai téli idő),The main experiment item,yes,0,0,C:/Users/rrics/Documents/!!ResearchBMECOGSCI/gnet,0,0,0,prototype3.png,no,mono,no,18,no,black,no,no,768,1169,3.5.6,legacy,xpyriment,osweb,1.3.13,0,space,space,space,,35337,3274,35337,,2,legacy,816,1536,24,864,24,0,0,1536,1646230221333,1024,2,48000,-16,experiment,prototype1.png,1,odd,Win32,111,115279,112261,111,111,255023,256530,250022,116796,250022,111,,,,,,visual_patterns,0,0,0,yes,1366
undefined,undefined,undefined,undefined,white,no,Mozilla,Netscape,"5.0 (Windows NT 10.0; Win64; x64) AppleWebKit/537.36 (KHTML, like Gecko) Chrome/98.0.4758.102 Safari/537.36",xpyriment,legacy,legacy,0,uniform,0,0,0,0,24,24,24,0,0,16,16,16,16,16,0,16,0,,,,,,0,,02-02-22,02-02-22,15:08:55,Wed Mar 02 2022 15:08:55 GMT+0100 (közép-európai téli idő),The main experiment item,yes,0,0,C:/Users/rrics/Documents/!!ResearchBMECOGSCI/gnet,0,0,0,prototype3.png,no,mono,no,18,no,black,no,no,768,1169,3.5.6,legacy,xpyriment,osweb,1.3.13,0,space,space,space,,35337,3274,35337,,2,legacy,816,1536,24,864,24,0,0,1536,1646230221333,1024,2,48000,-16,experiment,p2sarr2.png,1,odd,Win32,111,115279,112261,111,111,261548,263049,256544,116796,256544,111,,,,,,visual_patterns,0,0,0,yes,1366
undefined,undefined,undefined,undefined,white,no,Mozilla,Netscape,"5.0 (Windows NT 10.0; Win64; x64) AppleWebKit/537.36 (KHTML, like Gecko) Chrome/98.0.4758.102 Safari/537.36",xpyriment,legacy,legacy,0,uniform,0,0,0,0,24,24,24,0,0,17,17,17,17,17,0,17,0,,,,,,0,,02-02-22,02-02-22,15:08:55,Wed Mar 02 2022 15:08:55 GMT+0100 (közép-európai téli idő),The main experiment item,yes,0,0,C:/Users/rrics/Documents/!!ResearchBMECOGSCI/gnet,0,0,0,prototype3.png,no,mono,no,18,no,black,no,no,768,1169,3.5.6,legacy,xpyriment,osweb,1.3.13,0,space,space,space,,35337,3274,35337,,2,legacy,816,1536,24,864,24,0,0,1536,1646230221333,1024,2,48000,-16,experiment,p3sarrsha2.png,1,odd,Win32,111,115279,112261,111,111,268059,269568,263063,116796,263063,111,,,,,,visual_patterns,0,0,0,yes,1366
undefined,undefined,undefined,undefined,white,no,Mozilla,Netscape,"5.0 (Windows NT 10.0; Win64; x64) AppleWebKit/537.36 (KHTML, like Gecko) Chrome/98.0.4758.102 Safari/537.36",xpyriment,legacy,legacy,0,uniform,0,0,0,0,24,24,24,0,0,18,18,18,18,18,0,18,0,,,,,,0,,02-02-22,02-02-22,15:08:55,Wed Mar 02 2022 15:08:55 GMT+0100 (közép-európai téli idő),The main experiment item,yes,0,0,C:/Users/rrics/Documents/!!ResearchBMECOGSCI/gnet,0,0,0,prototype3.png,no,mono,no,18,no,black,no,no,768,1169,3.5.6,legacy,xpyriment,osweb,1.3.13,0,space,space,space,,35337,3274,35337,,2,legacy,816,1536,24,864,24,0,0,1536,1646230221333,1024,2,48000,-16,experiment,prototype4.png,1,odd,Win32,111,115279,112261,111,111,274580,276087,269580,116796,269580,111,,,,,,visual_patterns,0,0,0,yes,1366
undefined,undefined,undefined,undefined,white,no,Mozilla,Netscape,"5.0 (Windows NT 10.0; Win64; x64) AppleWebKit/537.36 (KHTML, like Gecko) Chrome/98.0.4758.102 Safari/537.36",xpyriment,legacy,legacy,0,uniform,0,0,0,0,24,24,24,0,0,19,19,19,19,19,0,19,0,,,,,,0,,02-02-22,02-02-22,15:08:55,Wed Mar 02 2022 15:08:55 GMT+0100 (közép-európai téli idő),The main experiment item,yes,0,0,C:/Users/rrics/Documents/!!ResearchBMECOGSCI/gnet,0,0,0,prototype3.png,no,mono,no,18,no,black,no,no,768,1169,3.5.6,legacy,xpyriment,osweb,1.3.13,0,space,space,space,,35337,3274,35337,,2,legacy,816,1536,24,864,24,0,0,1536,1646230221333,1024,2,48000,-16,experiment,p3sarrsha1.png,1,odd,Win32,111,115279,112261,111,111,281099,282606,276102,116796,276102,111,,,,,,visual_patterns,0,0,0,yes,1366
undefined,undefined,undefined,undefined,white,no,Mozilla,Netscape,"5.0 (Windows NT 10.0; Win64; x64) AppleWebKit/537.36 (KHTML, like Gecko) Chrome/98.0.4758.102 Safari/537.36",xpyriment,legacy,legacy,0,uniform,0,0,0,0,24,24,24,0,0,20,20,20,20,20,0,20,0,,,,,,0,,02-02-22,02-02-22,15:08:55,Wed Mar 02 2022 15:08:55 GMT+0100 (közép-európai téli idő),The main experiment item,yes,0,0,C:/Users/rrics/Documents/!!ResearchBMECOGSCI/gnet,0,0,0,prototype3.png,no,mono,no,18,no,black,no,no,768,1169,3.5.6,legacy,xpyriment,osweb,1.3.13,0,space,space,space,,35337,3274,35337,,2,legacy,816,1536,24,864,24,0,0,1536,1646230221333,1024,2,48000,-16,experiment,prototype2.png,1,odd,Win32,111,115279,112261,111,111,287618,289125,282619,116796,282619,111,,,,,,visual_patterns,0,0,0,yes,1366
undefined,undefined,undefined,undefined,white,no,Mozilla,Netscape,"5.0 (Windows NT 10.0; Win64; x64) AppleWebKit/537.36 (KHTML, like Gecko) Chrome/98.0.4758.102 Safari/537.36",xpyriment,legacy,legacy,0,uniform,0,0,0,0,24,24,24,0,0,21,21,21,21,21,0,21,0,,,,,,0,,02-02-22,02-02-22,15:08:55,Wed Mar 02 2022 15:08:55 GMT+0100 (közép-európai téli idő),The main experiment item,yes,0,0,C:/Users/rrics/Documents/!!ResearchBMECOGSCI/gnet,0,0,0,prototype3.png,no,mono,no,18,no,black,no,no,768,1169,3.5.6,legacy,xpyriment,osweb,1.3.13,0,space,space,space,,35337,3274,35337,,2,legacy,816,1536,24,864,24,0,0,1536,1646230221333,1024,2,48000,-16,experiment,p4sarrcol2.png,1,odd,Win32,111,115279,112261,111,111,294136,295644,289139,116796,289139,111,,,,,,visual_patterns,0,0,0,yes,1366
undefined,undefined,undefined,undefined,white,no,Mozilla,Netscape,"5.0 (Windows NT 10.0; Win64; x64) AppleWebKit/537.36 (KHTML, like Gecko) Chrome/98.0.4758.102 Safari/537.36",xpyriment,legacy,legacy,0,uniform,0,0,0,0,24,24,24,0,0,22,22,22,22,22,0,22,0,,,,,,0,,02-02-22,02-02-22,15:08:55,Wed Mar 02 2022 15:08:55 GMT+0100 (közép-európai téli idő),The main experiment item,yes,0,0,C:/Users/rrics/Documents/!!ResearchBMECOGSCI/gnet,0,0,0,prototype3.png,no,mono,no,18,no,black,no,no,768,1169,3.5.6,legacy,xpyriment,osweb,1.3.13,0,space,space,space,,35337,3274,35337,,2,legacy,816,1536,24,864,24,0,0,1536,1646230221333,1024,2,48000,-16,experiment,p5sarrshacol1.png,1,odd,Win32,111,115279,112261,111,111,300656,302164,295659,116796,295659,111,,,,,,visual_patterns,0,0,0,yes,1366
undefined,undefined,undefined,undefined,white,no,Mozilla,Netscape,"5.0 (Windows NT 10.0; Win64; x64) AppleWebKit/537.36 (KHTML, like Gecko) Chrome/98.0.4758.102 Safari/537.36",xpyriment,legacy,legacy,0,uniform,0,0,0,0,24,24,24,0,0,23,23,23,23,23,0,23,0,,,,,,0,,02-02-22,02-02-22,15:08:55,Wed Mar 02 2022 15:08:55 GMT+0100 (közép-európai téli idő),The main experiment item,yes,0,0,C:/Users/rrics/Documents/!!ResearchBMECOGSCI/gnet,0,0,0,prototype3.png,no,mono,no,18,no,black,no,no,768,1169,3.5.6,legacy,xpyriment,osweb,1.3.13,0,space,space,space,,35337,3274,35337,,2,legacy,816,1536,24,864,24,0,0,1536,1646230221333,1024,2,48000,-16,experiment,prototype2.png,1,odd,Win32,111,115279,112261,111,111,307175,308683,302174,116796,302174,111,,,,,,visual_patterns,0,0,0,yes,1366
undefined,undefined,undefined,undefined,white,no,Mozilla,Netscape,"5.0 (Windows NT 10.0; Win64; x64) AppleWebKit/537.36 (KHTML, like Gecko) Chrome/98.0.4758.102 Safari/537.36",xpyriment,legacy,legacy,0,uniform,0,0,0,0,24,24,24,0,0,24,24,24,24,24,0,24,0,,,,,,0,,02-02-22,02-02-22,15:08:55,Wed Mar 02 2022 15:08:55 GMT+0100 (közép-európai téli idő),The main experiment item,yes,0,0,C:/Users/rrics/Documents/!!ResearchBMECOGSCI/gnet,0,0,0,prototype3.png,no,mono,no,18,no,black,no,no,768,1169,3.5.6,legacy,xpyriment,osweb,1.3.13,0,space,space,space,,35337,3274,35337,,2,legacy,816,1536,24,864,24,0,0,1536,1646230221333,1024,2,48000,-16,experiment,p4sarrsha2.png,1,odd,Win32,111,115279,112261,111,111,313728,315235,308724,116796,308724,111,,,,,,visual_patterns,0,0,0,yes,1366
undefined,undefined,undefined,undefined,white,no,Mozilla,Netscape,"5.0 (Windows NT 10.0; Win64; x64) AppleWebKit/537.36 (KHTML, like Gecko) Chrome/98.0.4758.102 Safari/537.36",xpyriment,legacy,legacy,0,uniform,0,0,0,0,24,24,24,0,0,25,25,25,25,25,0,25,0,,,,,,0,,02-02-22,02-02-22,15:08:55,Wed Mar 02 2022 15:08:55 GMT+0100 (közép-európai téli idő),The main experiment item,yes,0,0,C:/Users/rrics/Documents/!!ResearchBMECOGSCI/gnet,0,0,0,prototype3.png,no,mono,no,18,no,black,no,no,768,1169,3.5.6,legacy,xpyriment,osweb,1.3.13,0,space,space,space,,35337,3274,35337,,2,legacy,816,1536,24,864,24,0,0,1536,1646230221333,1024,2,48000,-16,experiment,p9sarr1.png,1,odd,Win32,111,115279,112261,111,111,320248,321755,315249,116796,315249,111,,,,,,visual_patterns,0,0,0,yes,1366
undefined,undefined,undefined,undefined,white,no,Mozilla,Netscape,"5.0 (Windows NT 10.0; Win64; x64) AppleWebKit/537.36 (KHTML, like Gecko) Chrome/98.0.4758.102 Safari/537.36",xpyriment,legacy,legacy,0,uniform,0,0,0,0,24,24,24,0,0,26,26,26,26,26,0,26,0,,,,,,0,,02-02-22,02-02-22,15:08:55,Wed Mar 02 2022 15:08:55 GMT+0100 (közép-európai téli idő),The main experiment item,yes,0,0,C:/Users/rrics/Documents/!!ResearchBMECOGSCI/gnet,0,0,0,prototype3.png,no,mono,no,18,no,black,no,no,768,1169,3.5.6,legacy,xpyriment,osweb,1.3.13,0,space,space,space,,35337,3274,35337,,2,legacy,816,1536,24,864,24,0,0,1536,1646230221333,1024,2,48000,-16,experiment,prototype1.png,1,odd,Win32,111,115279,112261,111,111,326766,328274,321766,116796,321766,111,,,,,,visual_patterns,0,0,0,yes,1366
undefined,undefined,undefined,undefined,white,no,Mozilla,Netscape,"5.0 (Windows NT 10.0; Win64; x64) AppleWebKit/537.36 (KHTML, like Gecko) Chrome/98.0.4758.102 Safari/537.36",xpyriment,legacy,legacy,0,uniform,0,0,0,0,24,24,24,0,0,27,27,27,27,27,0,27,0,,,,,,0,,02-02-22,02-02-22,15:08:55,Wed Mar 02 2022 15:08:55 GMT+0100 (közép-európai téli idő),The main experiment item,yes,0,0,C:/Users/rrics/Documents/!!ResearchBMECOGSCI/gnet,0,0,0,prototype3.png,no,mono,no,18,no,black,no,no,768,1169,3.5.6,legacy,xpyriment,osweb,1.3.13,0,space,space,space,,35337,3274,35337,,2,legacy,816,1536,24,864,24,0,0,1536,1646230221333,1024,2,48000,-16,experiment,p4sarrcol1.png,1,odd,Win32,111,115279,112261,111,111,333286,334793,328288,116796,328288,111,,,,,,visual_patterns,0,0,0,yes,1366
undefined,undefined,undefined,undefined,white,no,Mozilla,Netscape,"5.0 (Windows NT 10.0; Win64; x64) AppleWebKit/537.36 (KHTML, like Gecko) Chrome/98.0.4758.102 Safari/537.36",xpyriment,legacy,legacy,0,uniform,0,0,0,0,24,24,24,0,0,28,28,28,28,28,0,28,0,,,,,,0,,02-02-22,02-02-22,15:08:55,Wed Mar 02 2022 15:08:55 GMT+0100 (közép-európai téli idő),The main experiment item,yes,0,0,C:/Users/rrics/Documents/!!ResearchBMECOGSCI/gnet,0,0,0,prototype3.png,no,mono,no,18,no,black,no,no,768,1169,3.5.6,legacy,xpyriment,osweb,1.3.13,0,space,space,space,,35337,3274,35337,,2,legacy,816,1536,24,864,24,0,0,1536,1646230221333,1024,2,48000,-16,experiment,prototype4.png,1,odd,Win32,111,115279,112261,111,111,339805,341312,334803,116796,334803,111,,,,,,visual_patterns,0,0,0,yes,1366
undefined,undefined,undefined,undefined,white,no,Mozilla,Netscape,"5.0 (Windows NT 10.0; Win64; x64) AppleWebKit/537.36 (KHTML, like Gecko) Chrome/98.0.4758.102 Safari/537.36",xpyriment,legacy,legacy,0,uniform,0,0,0,0,24,24,24,0,0,29,29,29,29,29,0,29,0,,,,,,0,,02-02-22,02-02-22,15:08:55,Wed Mar 02 2022 15:08:55 GMT+0100 (közép-európai téli idő),The main experiment item,yes,0,0,C:/Users/rrics/Documents/!!ResearchBMECOGSCI/gnet,0,0,0,prototype3.png,no,mono,no,18,no,black,no,no,768,1169,3.5.6,legacy,xpyriment,osweb,1.3.13,0,space,space,space,,35337,3274,35337,,2,legacy,816,1536,24,864,24,0,0,1536,1646230221333,1024,2,48000,-16,experiment,prototype5.png,1,odd,Win32,111,115279,112261,111,111,346357,347865,341349,116796,341349,111,,,,,,visual_patterns,0,0,0,yes,1366
undefined,undefined,undefined,undefined,white,no,Mozilla,Netscape,"5.0 (Windows NT 10.0; Win64; x64) AppleWebKit/537.36 (KHTML, like Gecko) Chrome/98.0.4758.102 Safari/537.36",xpyriment,legacy,legacy,0,uniform,0,0,0,0,24,24,24,0,0,30,30,30,30,30,0,30,0,,,,,,0,,02-02-22,02-02-22,15:08:55,Wed Mar 02 2022 15:08:55 GMT+0100 (közép-európai téli idő),The main experiment item,yes,0,0,C:/Users/rrics/Documents/!!ResearchBMECOGSCI/gnet,0,0,0,prototype3.png,no,mono,no,18,no,black,no,no,768,1169,3.5.6,legacy,xpyriment,osweb,1.3.13,0,space,space,space,,35337,3274,35337,,2,legacy,816,1536,24,864,24,0,0,1536,1646230221333,1024,2,48000,-16,experiment,p5sarrcol2.png,1,odd,Win32,111,115279,112261,111,111,352877,354384,347880,116796,347880,111,,,,,,visual_patterns,0,0,0,yes,1366
undefined,undefined,undefined,undefined,white,no,Mozilla,Netscape,"5.0 (Windows NT 10.0; Win64; x64) AppleWebKit/537.36 (KHTML, like Gecko) Chrome/98.0.4758.102 Safari/537.36",xpyriment,legacy,legacy,0,uniform,0,0,0,0,24,24,24,0,0,31,31,31,31,31,0,31,0,,,,,,0,,02-02-22,02-02-22,15:08:55,Wed Mar 02 2022 15:08:55 GMT+0100 (közép-európai téli idő),The main experiment item,yes,0,0,C:/Users/rrics/Documents/!!ResearchBMECOGSCI/gnet,0,0,0,prototype3.png,no,mono,no,18,no,black,no,no,768,1169,3.5.6,legacy,xpyriment,osweb,1.3.13,0,space,space,space,,35337,3274,35337,,2,legacy,816,1536,24,864,24,0,0,1536,1646230221333,1024,2,48000,-16,experiment,p2sarrsha2.png,1,odd,Win32,111,115279,112261,111,111,359396,360903,354398,116796,354398,111,,,,,,visual_patterns,0,0,0,yes,1366
undefined,undefined,undefined,undefined,white,no,Mozilla,Netscape,"5.0 (Windows NT 10.0; Win64; x64) AppleWebKit/537.36 (KHTML, like Gecko) Chrome/98.0.4758.102 Safari/537.36",xpyriment,legacy,legacy,0,uniform,0,0,0,0,24,24,24,0,0,32,32,32,32,32,0,32,0,,,,,,0,,02-02-22,02-02-22,15:08:55,Wed Mar 02 2022 15:08:55 GMT+0100 (közép-európai téli idő),The main experiment item,yes,0,0,C:/Users/rrics/Documents/!!ResearchBMECOGSCI/gnet,0,0,0,prototype3.png,no,mono,no,18,no,black,no,no,768,1169,3.5.6,legacy,xpyriment,osweb,1.3.13,0,space,space,space,,35337,3274,35337,,2,legacy,816,1536,24,864,24,0,0,1536,1646230221333,1024,2,48000,-16,experiment,p5sarr1.png,1,odd,Win32,111,115279,112261,111,111,365921,367422,360917,116796,360917,111,,,,,,visual_patterns,0,0,0,yes,1366
undefined,undefined,undefined,undefined,white,no,Mozilla,Netscape,"5.0 (Windows NT 10.0; Win64; x64) AppleWebKit/537.36 (KHTML, like Gecko) Chrome/98.0.4758.102 Safari/537.36",xpyriment,legacy,legacy,0,uniform,0,0,0,0,24,24,24,0,0,33,33,33,33,33,0,33,0,,,,,,0,,02-02-22,02-02-22,15:08:55,Wed Mar 02 2022 15:08:55 GMT+0100 (közép-európai téli idő),The main experiment item,yes,0,0,C:/Users/rrics/Documents/!!ResearchBMECOGSCI/gnet,0,0,0,prototype3.png,no,mono,no,18,no,black,no,no,768,1169,3.5.6,legacy,xpyriment,osweb,1.3.13,0,space,space,space,,35337,3274,35337,,2,legacy,816,1536,24,864,24,0,0,1536,1646230221333,1024,2,48000,-16,experiment,p3sarrshacol1.png,1,odd,Win32,111,115279,112261,111,111,372433,373941,367437,116796,367437,111,,,,,,visual_patterns,0,0,0,yes,1366
undefined,undefined,undefined,undefined,white,no,Mozilla,Netscape,"5.0 (Windows NT 10.0; Win64; x64) AppleWebKit/537.36 (KHTML, like Gecko) Chrome/98.0.4758.102 Safari/537.36",xpyriment,legacy,legacy,0,uniform,0,0,0,0,24,24,24,0,0,34,34,34,34,34,0,34,0,,,,,,0,,02-02-22,02-02-22,15:08:55,Wed Mar 02 2022 15:08:55 GMT+0100 (közép-európai téli idő),The main experiment item,yes,0,0,C:/Users/rrics/Documents/!!ResearchBMECOGSCI/gnet,0,0,0,prototype3.png,no,mono,no,18,no,black,no,no,768,1169,3.5.6,legacy,xpyriment,osweb,1.3.13,0,space,space,space,,35337,3274,35337,,2,legacy,816,1536,24,864,24,0,0,1536,1646230221333,1024,2,48000,-16,experiment,prototype1.png,1,odd,Win32,111,115279,112261,111,111,378981,380494,373980,116796,373980,111,,,,,,visual_patterns,0,0,0,yes,1366
undefined,undefined,undefined,undefined,white,no,Mozilla,Netscape,"5.0 (Windows NT 10.0; Win64; x64) AppleWebKit/537.36 (KHTML, like Gecko) Chrome/98.0.4758.102 Safari/537.36",xpyriment,legacy,legacy,0,uniform,0,0,0,0,24,24,24,0,0,35,35,35,35,35,0,35,0,,,,,,0,,02-02-22,02-02-22,15:08:55,Wed Mar 02 2022 15:08:55 GMT+0100 (közép-európai téli idő),The main experiment item,yes,0,0,C:/Users/rrics/Documents/!!ResearchBMECOGSCI/gnet,0,0,0,prototype3.png,no,mono,no,18,no,black,no,no,768,1169,3.5.6,legacy,xpyriment,osweb,1.3.13,0,space,space,space,,35337,3274,35337,,2,legacy,816,1536,24,864,24,0,0,1536,1646230221333,1024,2,48000,-16,experiment,p4sarrshacol1.png,1,odd,Win32,111,115279,112261,111,111,385511,387012,380507,116796,380507,111,,,,,,visual_patterns,0,0,0,yes,1366
undefined,undefined,undefined,undefined,white,no,Mozilla,Netscape,"5.0 (Windows NT 10.0; Win64; x64) AppleWebKit/537.36 (KHTML, like Gecko) Chrome/98.0.4758.102 Safari/537.36",xpyriment,legacy,legacy,0,uniform,0,0,0,0,24,24,24,0,0,36,36,36,36,36,0,36,0,,,,,,0,,02-02-22,02-02-22,15:08:55,Wed Mar 02 2022 15:08:55 GMT+0100 (közép-európai téli idő),The main experiment item,yes,0,0,C:/Users/rrics/Documents/!!ResearchBMECOGSCI/gnet,0,0,0,prototype3.png,no,mono,no,18,no,black,no,no,768,1169,3.5.6,legacy,xpyriment,osweb,1.3.13,0,space,space,space,,35337,3274,35337,,2,legacy,816,1536,24,864,24,0,0,1536,1646230221333,1024,2,48000,-16,experiment,prototype3.png,1,odd,Win32,111,115279,112261,111,111,392024,393532,387023,116796,387023,111,,,,,,visual_patterns,0,0,0,yes,1366
undefined,undefined,undefined,undefined,white,no,Mozilla,Netscape,"5.0 (Windows NT 10.0; Win64; x64) AppleWebKit/537.36 (KHTML, like Gecko) Chrome/98.0.4758.102 Safari/537.36",xpyriment,legacy,legacy,0,uniform,0,0,0,0,24,24,24,0,0,37,37,37,37,37,0,37,0,,,,,,0,,02-02-22,02-02-22,15:08:55,Wed Mar 02 2022 15:08:55 GMT+0100 (közép-európai téli idő),The main experiment item,yes,0,0,C:/Users/rrics/Documents/!!ResearchBMECOGSCI/gnet,0,0,0,prototype3.png,no,mono,no,18,no,black,no,no,768,1169,3.5.6,legacy,xpyriment,osweb,1.3.13,0,space,space,space,,35337,3274,35337,,2,legacy,816,1536,24,864,24,0,0,1536,1646230221333,1024,2,48000,-16,experiment,prototype3.png,1,odd,Win32,111,115279,112261,111,111,398544,400051,393542,116796,393542,111,,,,,,visual_patterns,0,0,0,yes,1366
undefined,undefined,undefined,undefined,white,no,Mozilla,Netscape,"5.0 (Windows NT 10.0; Win64; x64) AppleWebKit/537.36 (KHTML, like Gecko) Chrome/98.0.4758.102 Safari/537.36",xpyriment,legacy,legacy,0,uniform,0,0,0,0,24,24,24,0,0,38,38,38,38,38,0,38,0,,,,,,0,,02-02-22,02-02-22,15:08:55,Wed Mar 02 2022 15:08:55 GMT+0100 (közép-európai téli idő),The main experiment item,yes,0,0,C:/Users/rrics/Documents/!!ResearchBMECOGSCI/gnet,0,0,0,prototype3.png,no,mono,no,18,no,black,no,no,768,1169,3.5.6,legacy,xpyriment,osweb,1.3.13,0,space,space,space,,35337,3274,35337,,2,legacy,816,1536,24,864,24,0,0,1536,1646230221333,1024,2,48000,-16,experiment,p7sarr1.png,1,odd,Win32,111,115279,112261,111,111,405063,406571,400067,116796,400066,111,,,,,,visual_patterns,0,0,0,yes,1366
undefined,undefined,undefined,undefined,white,no,Mozilla,Netscape,"5.0 (Windows NT 10.0; Win64; x64) AppleWebKit/537.36 (KHTML, like Gecko) Chrome/98.0.4758.102 Safari/537.36",xpyriment,legacy,legacy,0,uniform,0,0,0,0,24,24,24,0,0,39,39,39,39,39,0,39,0,,,,,,0,,02-02-22,02-02-22,15:08:55,Wed Mar 02 2022 15:08:55 GMT+0100 (közép-európai téli idő),The main experiment item,yes,0,0,C:/Users/rrics/Documents/!!ResearchBMECOGSCI/gnet,0,0,0,prototype3.png,no,mono,no,18,no,black,no,no,768,1169,3.5.6,legacy,xpyriment,osweb,1.3.13,0,space,space,space,,35337,3274,35337,,2,legacy,816,1536,24,864,24,0,0,1536,1646230221333,1024,2,48000,-16,experiment,p1sarrsha1.png,1,odd,Win32,111,115279,112261,111,111,411582,413090,406586,116796,406586,111,,,,,,visual_patterns,0,0,0,yes,1366
undefined,undefined,undefined,undefined,white,no,Mozilla,Netscape,"5.0 (Windows NT 10.0; Win64; x64) AppleWebKit/537.36 (KHTML, like Gecko) Chrome/98.0.4758.102 Safari/537.36",xpyriment,legacy,legacy,0,uniform,0,0,0,0,24,24,24,0,0,40,40,40,40,40,0,40,0,,,,,,0,,02-02-22,02-02-22,15:08:55,Wed Mar 02 2022 15:08:55 GMT+0100 (közép-európai téli idő),The main experiment item,yes,0,0,C:/Users/rrics/Documents/!!ResearchBMECOGSCI/gnet,0,0,0,prototype3.png,no,mono,no,18,no,black,no,no,768,1169,3.5.6,legacy,xpyriment,osweb,1.3.13,0,space,space,space,,35337,3274,35337,,2,legacy,816,1536,24,864,24,0,0,1536,1646230221333,1024,2,48000,-16,experiment,prototype5.png,1,odd,Win32,111,115279,112261,111,111,418101,419609,413101,116796,413101,111,,,,,,visual_patterns,0,0,0,yes,1366
undefined,undefined,undefined,undefined,white,no,Mozilla,Netscape,"5.0 (Windows NT 10.0; Win64; x64) AppleWebKit/537.36 (KHTML, like Gecko) Chrome/98.0.4758.102 Safari/537.36",xpyriment,legacy,legacy,0,uniform,0,0,0,0,24,24,24,0,0,41,41,41,41,41,0,41,0,,,,,,0,,02-02-22,02-02-22,15:08:55,Wed Mar 02 2022 15:08:55 GMT+0100 (közép-európai téli idő),The main experiment item,yes,0,0,C:/Users/rrics/Documents/!!ResearchBMECOGSCI/gnet,0,0,0,prototype3.png,no,mono,no,18,no,black,no,no,768,1169,3.5.6,legacy,xpyriment,osweb,1.3.13,0,space,space,space,,35337,3274,35337,,2,legacy,816,1536,24,864,24,0,0,1536,1646230221333,1024,2,48000,-16,experiment,p3sarrshacol2.png,1,odd,Win32,111,115279,112261,111,111,424625,426128,419625,116796,419625,111,,,,,,visual_patterns,0,0,0,yes,1366
undefined,undefined,undefined,undefined,white,no,Mozilla,Netscape,"5.0 (Windows NT 10.0; Win64; x64) AppleWebKit/537.36 (KHTML, like Gecko) Chrome/98.0.4758.102 Safari/537.36",xpyriment,legacy,legacy,0,uniform,0,0,0,0,24,24,24,0,0,42,42,42,42,42,0,42,0,,,,,,0,,02-02-22,02-02-22,15:08:55,Wed Mar 02 2022 15:08:55 GMT+0100 (közép-európai téli idő),The main experiment item,yes,0,0,C:/Users/rrics/Documents/!!ResearchBMECOGSCI/gnet,0,0,0,prototype3.png,no,mono,no,18,no,black,no,no,768,1169,3.5.6,legacy,xpyriment,osweb,1.3.13,0,space,space,space,,35337,3274,35337,,2,legacy,816,1536,24,864,24,0,0,1536,1646230221333,1024,2,48000,-16,experiment,p3sarrcol2.png,1,odd,Win32,111,115279,112261,111,111,431140,432647,426142,116796,426142,111,,,,,,visual_patterns,0,0,0,yes,1366
undefined,undefined,undefined,undefined,white,no,Mozilla,Netscape,"5.0 (Windows NT 10.0; Win64; x64) AppleWebKit/537.36 (KHTML, like Gecko) Chrome/98.0.4758.102 Safari/537.36",xpyriment,legacy,legacy,0,uniform,0,0,0,0,24,24,24,0,0,43,43,43,43,43,0,43,0,,,,,,0,,02-02-22,02-02-22,15:08:55,Wed Mar 02 2022 15:08:55 GMT+0100 (közép-európai téli idő),The main experiment item,yes,0,0,C:/Users/rrics/Documents/!!ResearchBMECOGSCI/gnet,0,0,0,prototype3.png,no,mono,no,18,no,black,no,no,768,1169,3.5.6,legacy,xpyriment,osweb,1.3.13,0,space,space,space,,35337,3274,35337,,2,legacy,816,1536,24,864,24,0,0,1536,1646230221333,1024,2,48000,-16,experiment,p3sarr2.png,1,odd,Win32,111,115279,112261,111,111,437660,439166,432662,116796,432662,111,,,,,,visual_patterns,0,0,0,yes,1366
undefined,undefined,undefined,undefined,white,no,Mozilla,Netscape,"5.0 (Windows NT 10.0; Win64; x64) AppleWebKit/537.36 (KHTML, like Gecko) Chrome/98.0.4758.102 Safari/537.36",xpyriment,legacy,legacy,0,uniform,0,0,0,0,24,24,24,0,0,44,44,44,44,44,0,44,0,,,,,,0,,02-02-22,02-02-22,15:08:55,Wed Mar 02 2022 15:08:55 GMT+0100 (közép-európai téli idő),The main experiment item,yes,0,0,C:/Users/rrics/Documents/!!ResearchBMECOGSCI/gnet,0,0,0,prototype3.png,no,mono,no,18,no,black,no,no,768,1169,3.5.6,legacy,xpyriment,osweb,1.3.13,0,space,space,space,,35337,3274,35337,,2,legacy,816,1536,24,864,24,0,0,1536,1646230221333,1024,2,48000,-16,experiment,p2sarrsha1.png,1,odd,Win32,111,115279,112261,111,111,444178,445685,439181,116796,439181,111,,,,,,visual_patterns,0,0,0,yes,1366
undefined,undefined,undefined,undefined,white,no,Mozilla,Netscape,"5.0 (Windows NT 10.0; Win64; x64) AppleWebKit/537.36 (KHTML, like Gecko) Chrome/98.0.4758.102 Safari/537.36",xpyriment,legacy,legacy,0,uniform,0,0,0,0,24,24,24,0,0,45,45,45,45,45,0,45,0,,,,,,0,,02-02-22,02-02-22,15:08:55,Wed Mar 02 2022 15:08:55 GMT+0100 (közép-európai téli idő),The main experiment item,yes,0,0,C:/Users/rrics/Documents/!!ResearchBMECOGSCI/gnet,0,0,0,prototype3.png,no,mono,no,18,no,black,no,no,768,1169,3.5.6,legacy,xpyriment,osweb,1.3.13,0,space,space,space,,35337,3274,35337,,2,legacy,816,1536,24,864,24,0,0,1536,1646230221333,1024,2,48000,-16,experiment,p4sarrsha1.png,1,odd,Win32,111,115279,112261,111,111,450696,452204,445699,116796,445699,111,,,,,,visual_patterns,0,0,0,yes,1366
undefined,undefined,undefined,undefined,white,no,Mozilla,Netscape,"5.0 (Windows NT 10.0; Win64; x64) AppleWebKit/537.36 (KHTML, like Gecko) Chrome/98.0.4758.102 Safari/537.36",xpyriment,legacy,legacy,0,uniform,0,0,0,0,24,24,24,0,0,46,46,46,46,46,0,46,0,,,,,,0,,02-02-22,02-02-22,15:08:55,Wed Mar 02 2022 15:08:55 GMT+0100 (közép-európai téli idő),The main experiment item,yes,0,0,C:/Users/rrics/Documents/!!ResearchBMECOGSCI/gnet,0,0,0,prototype3.png,no,mono,no,18,no,black,no,no,768,1169,3.5.6,legacy,xpyriment,osweb,1.3.13,0,space,space,space,,35337,3274,35337,,2,legacy,816,1536,24,864,24,0,0,1536,1646230221333,1024,2,48000,-16,experiment,p1sarrcol1.png,1,odd,Win32,111,115279,112261,111,111,457216,458723,452220,116796,452220,111,,,,,,visual_patterns,0,0,0,yes,1366
undefined,undefined,undefined,undefined,white,no,Mozilla,Netscape,"5.0 (Windows NT 10.0; Win64; x64) AppleWebKit/537.36 (KHTML, like Gecko) Chrome/98.0.4758.102 Safari/537.36",xpyriment,legacy,legacy,0,uniform,0,0,0,0,24,24,24,0,0,47,47,47,47,47,0,47,0,,,,,,0,,02-02-22,02-02-22,15:08:55,Wed Mar 02 2022 15:08:55 GMT+0100 (közép-európai téli idő),The main experiment item,yes,0,0,C:/Users/rrics/Documents/!!ResearchBMECOGSCI/gnet,0,0,0,prototype3.png,no,mono,no,18,no,black,no,no,768,1169,3.5.6,legacy,xpyriment,osweb,1.3.13,0,space,space,space,,35337,3274,35337,,2,legacy,816,1536,24,864,24,0,0,1536,1646230221333,1024,2,48000,-16,experiment,p1sarrsha2.png,1,odd,Win32,111,115279,112261,111,111,463743,465259,458743,116796,458743,111,,,,,,visual_patterns,0,0,0,yes,1366
undefined,undefined,undefined,undefined,white,no,Mozilla,Netscape,"5.0 (Windows NT 10.0; Win64; x64) AppleWebKit/537.36 (KHTML, like Gecko) Chrome/98.0.4758.102 Safari/537.36",xpyriment,legacy,legacy,0,uniform,0,0,0,0,24,24,24,0,0,48,48,48,48,48,0,48,0,,,,,,0,,02-02-22,02-02-22,15:08:55,Wed Mar 02 2022 15:08:55 GMT+0100 (közép-európai téli idő),The main experiment item,yes,0,0,C:/Users/rrics/Documents/!!ResearchBMECOGSCI/gnet,0,0,0,prototype3.png,no,mono,no,18,no,black,no,no,768,1169,3.5.6,legacy,xpyriment,osweb,1.3.13,0,space,space,space,,35337,3274,35337,,2,legacy,816,1536,24,864,24,0,0,1536,1646230221333,1024,2,48000,-16,experiment,p7sarr2.png,1,odd,Win32,111,115279,112261,111,111,470271,471779,465275,116796,465275,111,,,,,,visual_patterns,0,0,0,yes,1366
undefined,undefined,undefined,undefined,white,no,Mozilla,Netscape,"5.0 (Windows NT 10.0; Win64; x64) AppleWebKit/537.36 (KHTML, like Gecko) Chrome/98.0.4758.102 Safari/537.36",xpyriment,legacy,legacy,0,uniform,0,0,0,0,24,24,24,0,0,49,49,49,49,49,0,49,0,,,,,,0,,02-02-22,02-02-22,15:08:55,Wed Mar 02 2022 15:08:55 GMT+0100 (közép-európai téli idő),The main experiment item,yes,0,0,C:/Users/rrics/Documents/!!ResearchBMECOGSCI/gnet,0,0,0,prototype3.png,no,mono,no,18,no,black,no,no,768,1169,3.5.6,legacy,xpyriment,osweb,1.3.13,0,space,space,space,,35337,3274,35337,,2,legacy,816,1536,24,864,24,0,0,1536,1646230221333,1024,2,48000,-16,experiment,p4sarr1.png,1,odd,Win32,111,115279,112261,111,111,476791,478298,471792,116796,471792,111,,,,,,visual_patterns,0,0,0,yes,1366
undefined,undefined,undefined,undefined,white,no,Mozilla,Netscape,"5.0 (Windows NT 10.0; Win64; x64) AppleWebKit/537.36 (KHTML, like Gecko) Chrome/98.0.4758.102 Safari/537.36",xpyriment,legacy,legacy,0,uniform,0,0,0,0,24,24,24,0,0,50,50,50,50,50,0,50,0,,,,,,0,,02-02-22,02-02-22,15:08:55,Wed Mar 02 2022 15:08:55 GMT+0100 (közép-európai téli idő),The main experiment item,yes,0,0,C:/Users/rrics/Documents/!!ResearchBMECOGSCI/gnet,0,0,0,prototype3.png,no,mono,no,18,no,black,no,no,768,1169,3.5.6,legacy,xpyriment,osweb,1.3.13,0,space,space,space,,35337,3274,35337,,2,legacy,816,1536,24,864,24,0,0,1536,1646230221333,1024,2,48000,-16,experiment,p10sarr1.png,1,odd,Win32,111,115279,112261,111,111,483315,484817,478313,116796,478313,111,,,,,,visual_patterns,0,0,0,yes,1366
undefined,undefined,undefined,undefined,white,no,Mozilla,Netscape,"5.0 (Windows NT 10.0; Win64; x64) AppleWebKit/537.36 (KHTML, like Gecko) Chrome/98.0.4758.102 Safari/537.36",xpyriment,legacy,legacy,0,uniform,0,0,0,0,24,24,24,0,0,51,51,51,51,51,0,51,0,,,,,,0,,02-02-22,02-02-22,15:08:55,Wed Mar 02 2022 15:08:55 GMT+0100 (közép-európai téli idő),The main experiment item,yes,0,0,C:/Users/rrics/Documents/!!ResearchBMECOGSCI/gnet,0,0,0,prototype3.png,no,mono,no,18,no,black,no,no,768,1169,3.5.6,legacy,xpyriment,osweb,1.3.13,0,space,space,space,,35337,3274,35337,,2,legacy,816,1536,24,864,24,0,0,1536,1646230221333,1024,2,48000,-16,experiment,prototype3.png,1,odd,Win32,111,115279,112261,111,111,489828,491336,484828,116796,484828,111,,,,,,visual_patterns,0,0,0,yes,1366
undefined,undefined,undefined,undefined,white,no,Mozilla,Netscape,"5.0 (Windows NT 10.0; Win64; x64) AppleWebKit/537.36 (KHTML, like Gecko) Chrome/98.0.4758.102 Safari/537.36",xpyriment,legacy,legacy,0,uniform,0,0,0,0,24,24,24,0,0,52,52,52,52,52,0,52,0,,,,,,0,,02-02-22,02-02-22,15:08:55,Wed Mar 02 2022 15:08:55 GMT+0100 (közép-európai téli idő),The main experiment item,yes,0,0,C:/Users/rrics/Documents/!!ResearchBMECOGSCI/gnet,0,0,0,prototype3.png,no,mono,no,18,no,black,no,no,768,1169,3.5.6,legacy,xpyriment,osweb,1.3.13,0,space,space,space,,35337,3274,35337,,2,legacy,816,1536,24,864,24,0,0,1536,1646230221333,1024,2,48000,-16,experiment,p1sarr1.png,1,odd,Win32,111,115279,112261,111,111,496348,497855,491353,116796,491353,111,,,,,,visual_patterns,0,0,0,yes,1366
undefined,undefined,undefined,undefined,white,no,Mozilla,Netscape,"5.0 (Windows NT 10.0; Win64; x64) AppleWebKit/537.36 (KHTML, like Gecko) Chrome/98.0.4758.102 Safari/537.36",xpyriment,legacy,legacy,0,uniform,0,0,0,0,24,24,24,0,0,53,53,53,53,53,0,53,0,,,,,,0,,02-02-22,02-02-22,15:08:55,Wed Mar 02 2022 15:08:55 GMT+0100 (közép-európai téli idő),The main experiment item,yes,0,0,C:/Users/rrics/Documents/!!ResearchBMECOGSCI/gnet,0,0,0,prototype3.png,no,mono,no,18,no,black,no,no,768,1169,3.5.6,legacy,xpyriment,osweb,1.3.13,0,space,space,space,,35337,3274,35337,,2,legacy,816,1536,24,864,24,0,0,1536,1646230221333,1024,2,48000,-16,experiment,p1sarrcol2.png,1,odd,Win32,111,115279,112261,111,111,502867,504374,497866,116796,497866,111,,,,,,visual_patterns,0,0,0,yes,1366
undefined,undefined,undefined,undefined,white,no,Mozilla,Netscape,"5.0 (Windows NT 10.0; Win64; x64) AppleWebKit/537.36 (KHTML, like Gecko) Chrome/98.0.4758.102 Safari/537.36",xpyriment,legacy,legacy,0,uniform,0,0,0,0,24,24,24,0,0,54,54,54,54,54,0,54,0,,,,,,0,,02-02-22,02-02-22,15:08:55,Wed Mar 02 2022 15:08:55 GMT+0100 (közép-európai téli idő),The main experiment item,yes,0,0,C:/Users/rrics/Documents/!!ResearchBMECOGSCI/gnet,0,0,0,prototype3.png,no,mono,no,18,no,black,no,no,768,1169,3.5.6,legacy,xpyriment,osweb,1.3.13,0,space,space,space,,35337,3274,35337,,2,legacy,816,1536,24,864,24,0,0,1536,1646230221333,1024,2,48000,-16,experiment,p2sarrcol2.png,1,odd,Win32,111,115279,112261,111,111,509415,510927,504417,116796,504416,111,,,,,,visual_patterns,0,0,0,yes,1366
undefined,undefined,undefined,undefined,white,no,Mozilla,Netscape,"5.0 (Windows NT 10.0; Win64; x64) AppleWebKit/537.36 (KHTML, like Gecko) Chrome/98.0.4758.102 Safari/537.36",xpyriment,legacy,legacy,0,uniform,0,0,0,0,24,24,24,0,0,55,55,55,55,55,0,55,0,,,,,,0,,02-02-22,02-02-22,15:08:55,Wed Mar 02 2022 15:08:55 GMT+0100 (közép-európai téli idő),The main experiment item,yes,0,0,C:/Users/rrics/Documents/!!ResearchBMECOGSCI/gnet,0,0,0,prototype3.png,no,mono,no,18,no,black,no,no,768,1169,3.5.6,legacy,xpyriment,osweb,1.3.13,0,space,space,space,,35337,3274,35337,,2,legacy,816,1536,24,864,24,0,0,1536,1646230221333,1024,2,48000,-16,experiment,prototype4.png,1,odd,Win32,111,115279,112261,111,111,515940,517446,510938,116796,510938,111,,,,,,visual_patterns,0,0,0,yes,1366
undefined,undefined,undefined,undefined,white,no,Mozilla,Netscape,"5.0 (Windows NT 10.0; Win64; x64) AppleWebKit/537.36 (KHTML, like Gecko) Chrome/98.0.4758.102 Safari/537.36",xpyriment,legacy,legacy,0,uniform,0,0,0,0,24,24,24,0,0,56,56,56,56,56,0,56,0,,,,,,0,,02-02-22,02-02-22,15:08:55,Wed Mar 02 2022 15:08:55 GMT+0100 (közép-európai téli idő),The main experiment item,yes,0,0,C:/Users/rrics/Documents/!!ResearchBMECOGSCI/gnet,0,0,0,prototype3.png,no,mono,no,18,no,black,no,no,768,1169,3.5.6,legacy,xpyriment,osweb,1.3.13,0,space,space,space,,35337,3274,35337,,2,legacy,816,1536,24,864,24,0,0,1536,1646230221333,1024,2,48000,-16,experiment,p2sarrshacol1.png,1,odd,Win32,111,115279,112261,111,111,522457,523965,517460,116796,517460,111,,,,,,visual_patterns,0,0,0,yes,1366
undefined,undefined,undefined,undefined,white,no,Mozilla,Netscape,"5.0 (Windows NT 10.0; Win64; x64) AppleWebKit/537.36 (KHTML, like Gecko) Chrome/98.0.4758.102 Safari/537.36",xpyriment,legacy,legacy,0,uniform,0,0,0,0,24,24,24,0,0,57,57,57,57,57,0,57,0,,,,,,0,,02-02-22,02-02-22,15:08:55,Wed Mar 02 2022 15:08:55 GMT+0100 (közép-európai téli idő),The main experiment item,yes,0,0,C:/Users/rrics/Documents/!!ResearchBMECOGSCI/gnet,0,0,0,prototype3.png,no,mono,no,18,no,black,no,no,768,1169,3.5.6,legacy,xpyriment,osweb,1.3.13,0,space,space,space,,35337,3274,35337,,2,legacy,816,1536,24,864,24,0,0,1536,1646230221333,1024,2,48000,-16,experiment,prototype5.png,1,odd,Win32,111,115279,112261,111,111,528977,530484,523976,116796,523976,111,,,,,,visual_patterns,0,0,0,yes,1366
undefined,undefined,undefined,undefined,white,no,Mozilla,Netscape,"5.0 (Windows NT 10.0; Win64; x64) AppleWebKit/537.36 (KHTML, like Gecko) Chrome/98.0.4758.102 Safari/537.36",xpyriment,legacy,legacy,0,uniform,0,0,0,0,24,24,24,0,0,58,58,58,58,58,0,58,0,,,,,,0,,02-02-22,02-02-22,15:08:55,Wed Mar 02 2022 15:08:55 GMT+0100 (közép-európai téli idő),The main experiment item,yes,0,0,C:/Users/rrics/Documents/!!ResearchBMECOGSCI/gnet,0,0,0,prototype3.png,no,mono,no,18,no,black,no,no,768,1169,3.5.6,legacy,xpyriment,osweb,1.3.13,0,space,space,space,,35337,3274,35337,,2,legacy,816,1536,24,864,24,0,0,1536,1646230221333,1024,2,48000,-16,experiment,prototype2.png,1,odd,Win32,111,115279,112261,111,111,535497,537003,530495,116796,530495,111,,,,,,visual_patterns,0,0,0,yes,1366
undefined,undefined,undefined,undefined,white,no,Mozilla,Netscape,"5.0 (Windows NT 10.0; Win64; x64) AppleWebKit/537.36 (KHTML, like Gecko) Chrome/98.0.4758.102 Safari/537.36",xpyriment,legacy,legacy,0,uniform,0,0,0,0,24,24,24,0,0,59,59,59,59,59,0,59,0,,,,,,0,,02-02-22,02-02-22,15:08:55,Wed Mar 02 2022 15:08:55 GMT+0100 (közép-európai téli idő),The main experiment item,yes,0,0,C:/Users/rrics/Documents/!!ResearchBMECOGSCI/gnet,0,0,0,prototype3.png,no,mono,no,18,no,black,no,no,768,1169,3.5.6,legacy,xpyriment,osweb,1.3.13,0,space,space,space,,35337,3274,35337,,2,legacy,816,1536,24,864,24,0,0,1536,1646230221333,1024,2,48000,-16,experiment,prototype5.png,1,odd,Win32,111,115279,112261,111,111,542045,543556,537045,116796,537045,111,,,,,,visual_patterns,0,0,0,yes,1366
undefined,undefined,undefined,undefined,white,no,Mozilla,Netscape,"5.0 (Windows NT 10.0; Win64; x64) AppleWebKit/537.36 (KHTML, like Gecko) Chrome/98.0.4758.102 Safari/537.36",xpyriment,legacy,legacy,0,uniform,0,0,0,0,24,24,24,0,0,60,60,60,60,60,0,60,0,,,,,,0,,02-02-22,02-02-22,15:08:55,Wed Mar 02 2022 15:08:55 GMT+0100 (közép-európai téli idő),The main experiment item,yes,0,0,C:/Users/rrics/Documents/!!ResearchBMECOGSCI/gnet,0,0,0,prototype3.png,no,mono,no,18,no,black,no,no,768,1169,3.5.6,legacy,xpyriment,osweb,1.3.13,0,space,space,space,,35337,3274,35337,,2,legacy,816,1536,24,864,24,0,0,1536,1646230221333,1024,2,48000,-16,experiment,p1sarrshacol2.png,1,odd,Win32,111,115279,112261,111,111,548572,550075,543571,116796,543571,111,,,,,,visual_patterns,0,0,0,yes,1366
undefined,undefined,undefined,undefined,white,no,Mozilla,Netscape,"5.0 (Windows NT 10.0; Win64; x64) AppleWebKit/537.36 (KHTML, like Gecko) Chrome/98.0.4758.102 Safari/537.36",xpyriment,legacy,legacy,0,uniform,0,0,0,0,24,24,24,0,0,61,61,61,61,61,0,61,0,,,,,,0,,02-02-22,02-02-22,15:08:55,Wed Mar 02 2022 15:08:55 GMT+0100 (közép-európai téli idő),The main experiment item,yes,0,0,C:/Users/rrics/Documents/!!ResearchBMECOGSCI/gnet,0,0,0,prototype3.png,no,mono,no,18,no,black,no,no,768,1169,3.5.6,legacy,xpyriment,osweb,1.3.13,0,space,space,space,,35337,3274,35337,,2,legacy,816,1536,24,864,24,0,0,1536,1646230221333,1024,2,48000,-16,experiment,p2sarrcol1.png,1,odd,Win32,111,115279,112261,111,111,555093,556594,550090,116796,550090,111,,,,,,visual_patterns,0,0,0,yes,1366
undefined,undefined,undefined,undefined,white,no,Mozilla,Netscape,"5.0 (Windows NT 10.0; Win64; x64) AppleWebKit/537.36 (KHTML, like Gecko) Chrome/98.0.4758.102 Safari/537.36",xpyriment,legacy,legacy,0,uniform,0,0,0,0,24,24,24,0,0,62,62,62,62,62,0,62,0,,,,,,0,,02-02-22,02-02-22,15:08:55,Wed Mar 02 2022 15:08:55 GMT+0100 (közép-európai téli idő),The main experiment item,yes,0,0,C:/Users/rrics/Documents/!!ResearchBMECOGSCI/gnet,0,0,0,prototype3.png,no,mono,no,18,no,black,no,no,768,1169,3.5.6,legacy,xpyriment,osweb,1.3.13,0,space,space,space,,35337,3274,35337,,2,legacy,816,1536,24,864,24,0,0,1536,1646230221333,1024,2,48000,-16,experiment,p5sarr2.png,1,odd,Win32,111,115279,112261,111,111,561604,563114,556609,116796,556609,111,,,,,,visual_patterns,0,0,0,yes,1366
undefined,undefined,undefined,undefined,white,no,Mozilla,Netscape,"5.0 (Windows NT 10.0; Win64; x64) AppleWebKit/537.36 (KHTML, like Gecko) Chrome/98.0.4758.102 Safari/537.36",xpyriment,legacy,legacy,0,uniform,0,0,0,0,24,24,24,0,0,63,63,63,63,63,0,63,0,,,,,,0,,02-02-22,02-02-22,15:08:55,Wed Mar 02 2022 15:08:55 GMT+0100 (közép-európai téli idő),The main experiment item,yes,0,0,C:/Users/rrics/Documents/!!ResearchBMECOGSCI/gnet,0,0,0,prototype3.png,no,mono,no,18,no,black,no,no,768,1169,3.5.6,legacy,xpyriment,osweb,1.3.13,0,space,space,space,,35337,3274,35337,,2,legacy,816,1536,24,864,24,0,0,1536,1646230221333,1024,2,48000,-16,experiment,p10sarr2.png,1,odd,Win32,111,115279,112261,111,111,568129,569633,563131,116796,563131,111,,,,,,visual_patterns,0,0,0,yes,1366
undefined,undefined,undefined,undefined,white,no,Mozilla,Netscape,"5.0 (Windows NT 10.0; Win64; x64) AppleWebKit/537.36 (KHTML, like Gecko) Chrome/98.0.4758.102 Safari/537.36",xpyriment,legacy,legacy,0,uniform,0,0,0,0,24,24,24,0,0,64,64,64,64,64,0,64,0,,,,,,0,,02-02-22,02-02-22,15:08:55,Wed Mar 02 2022 15:08:55 GMT+0100 (közép-európai téli idő),The main experiment item,yes,0,0,C:/Users/rrics/Documents/!!ResearchBMECOGSCI/gnet,0,0,0,prototype3.png,no,mono,no,18,no,black,no,no,768,1169,3.5.6,legacy,xpyriment,osweb,1.3.13,0,space,space,space,,35337,3274,35337,,2,legacy,816,1536,24,864,24,0,0,1536,1646230221333,1024,2,48000,-16,experiment,prototype1.png,1,odd,Win32,111,115279,112261,111,111,574652,576169,569647,116796,569647,111,,,,,,visual_patterns,0,0,0,yes,1366
undefined,undefined,undefined,undefined,white,no,Mozilla,Netscape,"5.0 (Windows NT 10.0; Win64; x64) AppleWebKit/537.36 (KHTML, like Gecko) Chrome/98.0.4758.102 Safari/537.36",xpyriment,legacy,legacy,0,uniform,0,0,0,0,24,24,24,0,0,65,65,65,65,65,0,65,0,,,,,,0,,02-02-22,02-02-22,15:08:55,Wed Mar 02 2022 15:08:55 GMT+0100 (közép-európai téli idő),The main experiment item,yes,0,0,C:/Users/rrics/Documents/!!ResearchBMECOGSCI/gnet,0,0,0,prototype3.png,no,mono,no,18,no,black,no,no,768,1169,3.5.6,legacy,xpyriment,osweb,1.3.13,0,space,space,space,,35337,3274,35337,,2,legacy,816,1536,24,864,24,0,0,1536,1646230221333,1024,2,48000,-16,experiment,prototype4.png,1,odd,Win32,111,115279,112261,111,111,581179,582688,576180,116796,576180,111,,,,,,visual_patterns,0,0,0,yes,1366
undefined,undefined,undefined,undefined,white,no,Mozilla,Netscape,"5.0 (Windows NT 10.0; Win64; x64) AppleWebKit/537.36 (KHTML, like Gecko) Chrome/98.0.4758.102 Safari/537.36",xpyriment,legacy,legacy,0,uniform,0,0,0,0,24,24,24,0,0,66,66,66,66,66,0,66,0,,,,,,0,,02-02-22,02-02-22,15:08:55,Wed Mar 02 2022 15:08:55 GMT+0100 (közép-európai téli idő),The main experiment item,yes,0,0,C:/Users/rrics/Documents/!!ResearchBMECOGSCI/gnet,0,0,0,prototype3.png,no,mono,no,18,no,black,no,no,768,1169,3.5.6,legacy,xpyriment,osweb,1.3.13,0,space,space,space,,35337,3274,35337,,2,legacy,816,1536,24,864,24,0,0,1536,1646230221333,1024,2,48000,-16,experiment,p2sarrshacol2.png,1,odd,Win32,111,115279,112261,111,111,587700,589207,582702,116796,582702,111,,,,,,visual_patterns,0,0,0,yes,1366
undefined,undefined,undefined,undefined,white,no,Mozilla,Netscape,"5.0 (Windows NT 10.0; Win64; x64) AppleWebKit/537.36 (KHTML, like Gecko) Chrome/98.0.4758.102 Safari/537.36",xpyriment,legacy,legacy,0,uniform,0,0,0,0,24,24,24,0,0,67,67,67,67,67,0,67,0,,,,,,0,,02-02-22,02-02-22,15:08:55,Wed Mar 02 2022 15:08:55 GMT+0100 (közép-európai téli idő),The main experiment item,yes,0,0,C:/Users/rrics/Documents/!!ResearchBMECOGSCI/gnet,0,0,0,prototype3.png,no,mono,no,18,no,black,no,no,768,1169,3.5.6,legacy,xpyriment,osweb,1.3.13,0,space,space,space,,35337,3274,35337,,2,legacy,816,1536,24,864,24,0,0,1536,1646230221333,1024,2,48000,-16,experiment,p1sarr2.png,1,odd,Win32,111,115279,112261,111,111,594221,595726,589223,116796,589222,111,,,,,,visual_patterns,0,0,0,yes,1366
undefined,undefined,undefined,undefined,white,no,Mozilla,Netscape,"5.0 (Windows NT 10.0; Win64; x64) AppleWebKit/537.36 (KHTML, like Gecko) Chrome/98.0.4758.102 Safari/537.36",xpyriment,legacy,legacy,0,uniform,0,0,0,0,24,24,24,0,0,68,68,68,68,68,0,68,0,,,,,,0,,02-02-22,02-02-22,15:08:55,Wed Mar 02 2022 15:08:55 GMT+0100 (közép-európai téli idő),The main experiment item,yes,0,0,C:/Users/rrics/Documents/!!ResearchBMECOGSCI/gnet,0,0,0,prototype3.png,no,mono,no,18,no,black,no,no,768,1169,3.5.6,legacy,xpyriment,osweb,1.3.13,0,space,space,space,,35337,3274,35337,,2,legacy,816,1536,24,864,24,0,0,1536,1646230221333,1024,2,48000,-16,experiment,p6sarr2.png,1,odd,Win32,111,115279,112261,111,111,600739,602245,595740,116796,595740,111,,,,,,visual_patterns,0,0,0,yes,1366
undefined,undefined,undefined,undefined,white,no,Mozilla,Netscape,"5.0 (Windows NT 10.0; Win64; x64) AppleWebKit/537.36 (KHTML, like Gecko) Chrome/98.0.4758.102 Safari/537.36",xpyriment,legacy,legacy,0,uniform,0,0,0,0,24,24,24,0,0,69,69,69,69,69,0,69,0,,,,,,0,,02-02-22,02-02-22,15:08:55,Wed Mar 02 2022 15:08:55 GMT+0100 (közép-európai téli idő),The main experiment item,yes,0,0,C:/Users/rrics/Documents/!!ResearchBMECOGSCI/gnet,0,0,0,prototype3.png,no,mono,no,18,no,black,no,no,768,1169,3.5.6,legacy,xpyriment,osweb,1.3.13,0,space,space,space,,35337,3274,35337,,2,legacy,816,1536,24,864,24,0,0,1536,1646230221333,1024,2,48000,-16,experiment,prototype2.png,1,odd,Win32,111,115279,112261,111,111,607258,608764,602256,116796,602256,111,,,,,,visual_patterns,0,0,0,yes,1366
undefined,undefined,undefined,undefined,white,no,Mozilla,Netscape,"5.0 (Windows NT 10.0; Win64; x64) AppleWebKit/537.36 (KHTML, like Gecko) Chrome/98.0.4758.102 Safari/537.36",xpyriment,legacy,legacy,0,uniform,0,0,0,0,24,24,24,0,0,70,70,70,70,70,0,70,0,,,,,,0,,02-02-22,02-02-22,15:08:55,Wed Mar 02 2022 15:08:55 GMT+0100 (közép-európai téli idő),The main experiment item,yes,0,0,C:/Users/rrics/Documents/!!ResearchBMECOGSCI/gnet,0,0,0,prototype3.png,no,mono,no,18,no,black,no,no,768,1169,3.5.6,legacy,xpyriment,osweb,1.3.13,0,space,space,space,,35337,3274,35337,,2,legacy,816,1536,24,864,24,0,0,1536,1646230221333,1024,2,48000,-16,experiment,p1sarrshacol1.png,1,odd,Win32,111,115279,112261,111,111,613776,615283,608778,116796,608778,111,,,,,,visual_patterns,0,0,0,yes,1366
undefined,undefined,undefined,undefined,white,no,Mozilla,Netscape,"5.0 (Windows NT 10.0; Win64; x64) AppleWebKit/537.36 (KHTML, like Gecko) Chrome/98.0.4758.102 Safari/537.36",xpyriment,legacy,legacy,0,uniform,0,0,0,0,24,24,24,0,0,71,71,71,71,71,0,71,0,,,,,,0,,02-02-22,02-02-22,15:08:55,Wed Mar 02 2022 15:08:55 GMT+0100 (közép-európai téli idő),The main experiment item,yes,0,0,C:/Users/rrics/Documents/!!ResearchBMECOGSCI/gnet,0,0,0,prototype3.png,no,mono,no,18,no,black,no,no,768,1169,3.5.6,legacy,xpyriment,osweb,1.3.13,0,space,space,space,,35337,3274,35337,,2,legacy,816,1536,24,864,24,0,0,1536,1646230221333,1024,2,48000,-16,experiment,prototype1.png,1,odd,Win32,111,115279,112261,111,111,620294,621802,615294,116796,615294,111,,,,,,visual_patterns,0,0,0,yes,1366
undefined,undefined,undefined,undefined,white,no,Mozilla,Netscape,"5.0 (Windows NT 10.0; Win64; x64) AppleWebKit/537.36 (KHTML, like Gecko) Chrome/98.0.4758.102 Safari/537.36",xpyriment,legacy,legacy,0,uniform,0,0,0,0,24,24,24,0,0,72,72,72,72,72,0,72,0,,,,,,0,,02-02-22,02-02-22,15:08:55,Wed Mar 02 2022 15:08:55 GMT+0100 (közép-európai téli idő),The main experiment item,yes,0,0,C:/Users/rrics/Documents/!!ResearchBMECOGSCI/gnet,0,0,0,prototype3.png,no,mono,no,18,no,black,no,no,768,1169,3.5.6,legacy,xpyriment,osweb,1.3.13,0,space,space,space,,35337,3274,35337,,2,legacy,816,1536,24,864,24,0,0,1536,1646230221333,1024,2,48000,-16,experiment,prototype5.png,1,odd,Win32,111,115279,112261,111,111,626814,628322,621810,116796,621810,111,,,,,,visual_patterns,0,0,0,yes,1366
undefined,undefined,undefined,undefined,white,no,Mozilla,Netscape,"5.0 (Windows NT 10.0; Win64; x64) AppleWebKit/537.36 (KHTML, like Gecko) Chrome/98.0.4758.102 Safari/537.36",xpyriment,legacy,legacy,0,uniform,0,0,0,0,24,24,24,0,0,73,73,73,73,73,0,73,0,,,,,,0,,02-02-22,02-02-22,15:08:55,Wed Mar 02 2022 15:08:55 GMT+0100 (közép-európai téli idő),The main experiment item,yes,0,0,C:/Users/rrics/Documents/!!ResearchBMECOGSCI/gnet,0,0,0,prototype3.png,no,mono,no,18,no,black,no,no,768,1169,3.5.6,legacy,xpyriment,osweb,1.3.13,0,space,space,space,,35337,3274,35337,,2,legacy,816,1536,24,864,24,0,0,1536,1646230221333,1024,2,48000,-16,experiment,prototype3.png,1,odd,Win32,111,115279,112261,111,111,633334,634841,628333,116796,628333,111,,,,,,visual_patterns,0,0,0,yes,1366
undefined,undefined,undefined,undefined,white,no,Mozilla,Netscape,"5.0 (Windows NT 10.0; Win64; x64) AppleWebKit/537.36 (KHTML, like Gecko) Chrome/98.0.4758.102 Safari/537.36",xpyriment,legacy,legacy,0,uniform,0,0,0,0,24,24,24,0,0,74,74,74,74,74,0,74,0,,,,,,0,,02-02-22,02-02-22,15:08:55,Wed Mar 02 2022 15:08:55 GMT+0100 (közép-európai téli idő),The main experiment item,yes,0,0,C:/Users/rrics/Documents/!!ResearchBMECOGSCI/gnet,0,0,0,prototype3.png,no,mono,no,18,no,black,no,no,768,1169,3.5.6,legacy,xpyriment,osweb,1.3.13,0,space,space,space,,35337,3274,35337,,2,legacy,816,1536,24,864,24,0,0,1536,1646230221333,1024,2,48000,-16,experiment,prototype2.png,1,odd,Win32,111,115279,112261,111,111,639853,641360,634853,116796,634853,111,,,,,,visual_patterns,0,0,0,yes,1366
undefined,undefined,undefined,undefined,white,no,Mozilla,Netscape,"5.0 (Windows NT 10.0; Win64; x64) AppleWebKit/537.36 (KHTML, like Gecko) Chrome/98.0.4758.102 Safari/537.36",xpyriment,legacy,legacy,0,uniform,0,0,0,0,24,24,24,0,0,74,74,74,74,74,0,74,0,0,0,0,0,0,0,0,02-02-22,02-02-22,15:08:55,Wed Mar 02 2022 15:08:55 GMT+0100 (közép-európai téli idő),The main experiment item,yes,0,0,C:/Users/rrics/Documents/!!ResearchBMECOGSCI/gnet,0,0,0,prototype3.png,no,mono,no,18,no,black,no,no,768,1169,3.5.6,legacy,xpyriment,osweb,1.3.13,0,right,space,space,right,22768,3274,35337,22768,2,legacy,816,1536,24,864,24,0,0,1536,1646230221333,1024,2,48000,-16,experiment,p5sarrsha3.png,1,odd,Win32,111,115279,112261,111,111,639853,641360,634853,116796,634853,111,667164,668671,664169,641364,664168,visual_patterns,0,0,0,yes,1366
undefined,undefined,undefined,undefined,white,no,Mozilla,Netscape,"5.0 (Windows NT 10.0; Win64; x64) AppleWebKit/537.36 (KHTML, like Gecko) Chrome/98.0.4758.102 Safari/537.36",xpyriment,legacy,legacy,0,uniform,0,0,0,0,24,24,24,0,0,74,74,74,74,74,0,74,0,1,1,1,1,1,0,1,02-02-22,02-02-22,15:08:55,Wed Mar 02 2022 15:08:55 GMT+0100 (közép-európai téli idő),The main experiment item,yes,0,0,C:/Users/rrics/Documents/!!ResearchBMECOGSCI/gnet,0,0,0,prototype3.png,no,mono,no,18,no,black,no,no,768,1169,3.5.6,legacy,xpyriment,osweb,1.3.13,0,right,space,space,right,22768,3274,35337,22768,2,legacy,816,1536,24,864,24,0,0,1536,1646230221333,1024,2,48000,-16,experiment,p2sarrshacol1.png,1,odd,Win32,111,115279,112261,111,111,639853,641360,634853,116796,634853,111,671722,673239,668719,641364,668719,visual_patterns,0,0,0,yes,1366
undefined,undefined,undefined,undefined,white,no,Mozilla,Netscape,"5.0 (Windows NT 10.0; Win64; x64) AppleWebKit/537.36 (KHTML, like Gecko) Chrome/98.0.4758.102 Safari/537.36",xpyriment,legacy,legacy,0,uniform,0,0,0,0,24,24,24,0,0,74,74,74,74,74,0,74,0,2,2,2,2,2,0,2,02-02-22,02-02-22,15:08:55,Wed Mar 02 2022 15:08:55 GMT+0100 (közép-európai téli idő),The main experiment item,yes,0,0,C:/Users/rrics/Documents/!!ResearchBMECOGSCI/gnet,0,0,0,prototype3.png,no,mono,no,18,no,black,no,no,768,1169,3.5.6,legacy,xpyriment,osweb,1.3.13,0,right,space,space,right,22768,3274,35337,22768,2,legacy,816,1536,24,864,24,0,0,1536,1646230221333,1024,2,48000,-16,experiment,p4sarr4.png,1,odd,Win32,111,115279,112261,111,111,639853,641360,634853,116796,634853,111,676257,677774,673255,641364,673255,visual_patterns,0,0,0,yes,1366
undefined,undefined,undefined,undefined,white,no,Mozilla,Netscape,"5.0 (Windows NT 10.0; Win64; x64) AppleWebKit/537.36 (KHTML, like Gecko) Chrome/98.0.4758.102 Safari/537.36",xpyriment,legacy,legacy,0,uniform,0,0,0,0,24,24,24,0,0,74,74,74,74,74,0,74,0,3,3,3,3,3,0,3,02-02-22,02-02-22,15:08:55,Wed Mar 02 2022 15:08:55 GMT+0100 (közép-európai téli idő),The main experiment item,yes,0,0,C:/Users/rrics/Documents/!!ResearchBMECOGSCI/gnet,0,0,0,prototype3.png,no,mono,no,18,no,black,no,no,768,1169,3.5.6,legacy,xpyriment,osweb,1.3.13,0,right,space,space,right,22768,3274,35337,22768,2,legacy,816,1536,24,864,24,0,0,1536,1646230221333,1024,2,48000,-16,experiment,p5sarrsha2.png,1,odd,Win32,111,115279,112261,111,111,639853,641360,634853,116796,634853,111,680792,682309,677789,641364,677789,visual_patterns,0,0,0,yes,1366
undefined,undefined,undefined,undefined,white,no,Mozilla,Netscape,"5.0 (Windows NT 10.0; Win64; x64) AppleWebKit/537.36 (KHTML, like Gecko) Chrome/98.0.4758.102 Safari/537.36",xpyriment,legacy,legacy,0,uniform,0,0,0,0,24,24,24,0,0,74,74,74,74,74,0,74,0,4,4,4,4,4,0,4,02-02-22,02-02-22,15:08:55,Wed Mar 02 2022 15:08:55 GMT+0100 (közép-európai téli idő),The main experiment item,yes,0,0,C:/Users/rrics/Documents/!!ResearchBMECOGSCI/gnet,0,0,0,prototype3.png,no,mono,no,18,no,black,no,no,768,1169,3.5.6,legacy,xpyriment,osweb,1.3.13,0,right,space,space,right,22768,3274,35337,22768,2,legacy,816,1536,24,864,24,0,0,1536,1646230221333,1024,2,48000,-16,experiment,p7sarr2.png,1,odd,Win32,111,115279,112261,111,111,639853,641360,634853,116796,634853,111,685328,686844,682323,641364,682323,visual_patterns,0,0,0,yes,1366
undefined,undefined,undefined,undefined,white,no,Mozilla,Netscape,"5.0 (Windows NT 10.0; Win64; x64) AppleWebKit/537.36 (KHTML, like Gecko) Chrome/98.0.4758.102 Safari/537.36",xpyriment,legacy,legacy,0,uniform,0,0,0,0,24,24,24,0,0,74,74,74,74,74,0,74,0,5,5,5,5,5,0,5,02-02-22,02-02-22,15:08:55,Wed Mar 02 2022 15:08:55 GMT+0100 (közép-európai téli idő),The main experiment item,yes,0,0,C:/Users/rrics/Documents/!!ResearchBMECOGSCI/gnet,0,0,0,prototype3.png,no,mono,no,18,no,black,no,no,768,1169,3.5.6,legacy,xpyriment,osweb,1.3.13,0,right,space,space,right,22768,3274,35337,22768,2,legacy,816,1536,24,864,24,0,0,1536,1646230221333,1024,2,48000,-16,experiment,p1sarrsha4.png,1,odd,Win32,111,115279,112261,111,111,639853,641360,634853,116796,634853,111,689860,691363,686862,641364,686862,visual_patterns,0,0,0,yes,1366
undefined,undefined,undefined,undefined,white,no,Mozilla,Netscape,"5.0 (Windows NT 10.0; Win64; x64) AppleWebKit/537.36 (KHTML, like Gecko) Chrome/98.0.4758.102 Safari/537.36",xpyriment,legacy,legacy,0,uniform,0,0,0,0,24,24,24,0,0,74,74,74,74,74,0,74,0,6,6,6,6,6,0,6,02-02-22,02-02-22,15:08:55,Wed Mar 02 2022 15:08:55 GMT+0100 (közép-európai téli idő),The main experiment item,yes,0,0,C:/Users/rrics/Documents/!!ResearchBMECOGSCI/gnet,0,0,0,prototype3.png,no,mono,no,18,no,black,no,no,768,1169,3.5.6,legacy,xpyriment,osweb,1.3.13,0,right,space,space,right,22768,3274,35337,22768,2,legacy,816,1536,24,864,24,0,0,1536,1646230221333,1024,2,48000,-16,experiment,p3sarrcol2.png,1,odd,Win32,111,115279,112261,111,111,639853,641360,634853,116796,634853,111,694381,695898,691377,641364,691377,visual_patterns,0,0,0,yes,1366
undefined,undefined,undefined,undefined,white,no,Mozilla,Netscape,"5.0 (Windows NT 10.0; Win64; x64) AppleWebKit/537.36 (KHTML, like Gecko) Chrome/98.0.4758.102 Safari/537.36",xpyriment,legacy,legacy,0,uniform,0,0,0,0,24,24,24,0,0,74,74,74,74,74,0,74,0,7,7,7,7,7,0,7,02-02-22,02-02-22,15:08:55,Wed Mar 02 2022 15:08:55 GMT+0100 (közép-európai téli idő),The main experiment item,yes,0,0,C:/Users/rrics/Documents/!!ResearchBMECOGSCI/gnet,0,0,0,prototype3.png,no,mono,no,18,no,black,no,no,768,1169,3.5.6,legacy,xpyriment,osweb,1.3.13,0,right,space,space,right,22768,3274,35337,22768,2,legacy,816,1536,24,864,24,0,0,1536,1646230221333,1024,2,48000,-16,experiment,p3sarrcol3.png,1,odd,Win32,111,115279,112261,111,111,639853,641360,634853,116796,634853,111,698916,700433,695917,641364,695917,visual_patterns,0,0,0,yes,1366
undefined,undefined,undefined,undefined,white,no,Mozilla,Netscape,"5.0 (Windows NT 10.0; Win64; x64) AppleWebKit/537.36 (KHTML, like Gecko) Chrome/98.0.4758.102 Safari/537.36",xpyriment,legacy,legacy,0,uniform,0,0,0,0,24,24,24,0,0,74,74,74,74,74,0,74,0,8,8,8,8,8,0,8,02-02-22,02-02-22,15:08:55,Wed Mar 02 2022 15:08:55 GMT+0100 (közép-európai téli idő),The main experiment item,yes,0,0,C:/Users/rrics/Documents/!!ResearchBMECOGSCI/gnet,0,0,0,prototype3.png,no,mono,no,18,no,black,no,no,768,1169,3.5.6,legacy,xpyriment,osweb,1.3.13,0,right,space,space,right,22768,3274,35337,22768,2,legacy,816,1536,24,864,24,0,0,1536,1646230221333,1024,2,48000,-16,experiment,p1sarrsha1.png,1,odd,Win32,111,115279,112261,111,111,639853,641360,634853,116796,634853,111,703451,704968,700446,641364,700446,visual_patterns,0,0,0,yes,1366
undefined,undefined,undefined,undefined,white,no,Mozilla,Netscape,"5.0 (Windows NT 10.0; Win64; x64) AppleWebKit/537.36 (KHTML, like Gecko) Chrome/98.0.4758.102 Safari/537.36",xpyriment,legacy,legacy,0,uniform,0,0,0,0,24,24,24,0,0,74,74,74,74,74,0,74,0,9,9,9,9,9,0,9,02-02-22,02-02-22,15:08:55,Wed Mar 02 2022 15:08:55 GMT+0100 (közép-európai téli idő),The main experiment item,yes,0,0,C:/Users/rrics/Documents/!!ResearchBMECOGSCI/gnet,0,0,0,prototype3.png,no,mono,no,18,no,black,no,no,768,1169,3.5.6,legacy,xpyriment,osweb,1.3.13,0,right,space,space,right,22768,3274,35337,22768,2,legacy,816,1536,24,864,24,0,0,1536,1646230221333,1024,2,48000,-16,experiment,p4sarr1.png,1,odd,Win32,111,115279,112261,111,111,639853,641360,634853,116796,634853,111,707986,709503,704983,641364,704983,visual_patterns,0,0,0,yes,1366
undefined,undefined,undefined,undefined,white,no,Mozilla,Netscape,"5.0 (Windows NT 10.0; Win64; x64) AppleWebKit/537.36 (KHTML, like Gecko) Chrome/98.0.4758.102 Safari/537.36",xpyriment,legacy,legacy,0,uniform,0,0,0,0,24,24,24,0,0,74,74,74,74,74,0,74,0,10,10,10,10,10,0,10,02-02-22,02-02-22,15:08:55,Wed Mar 02 2022 15:08:55 GMT+0100 (közép-európai téli idő),The main experiment item,yes,0,0,C:/Users/rrics/Documents/!!ResearchBMECOGSCI/gnet,0,0,0,prototype3.png,no,mono,no,18,no,black,no,no,768,1169,3.5.6,legacy,xpyriment,osweb,1.3.13,0,right,space,space,right,22768,3274,35337,22768,2,legacy,816,1536,24,864,24,0,0,1536,1646230221333,1024,2,48000,-16,experiment,p9sarr2.png,1,odd,Win32,111,115279,112261,111,111,639853,641360,634853,116796,634853,111,712517,714021,709516,641364,709516,visual_patterns,0,0,0,yes,1366
undefined,undefined,undefined,undefined,white,no,Mozilla,Netscape,"5.0 (Windows NT 10.0; Win64; x64) AppleWebKit/537.36 (KHTML, like Gecko) Chrome/98.0.4758.102 Safari/537.36",xpyriment,legacy,legacy,0,uniform,0,0,0,0,24,24,24,0,0,74,74,74,74,74,0,74,0,11,11,11,11,11,0,11,02-02-22,02-02-22,15:08:55,Wed Mar 02 2022 15:08:55 GMT+0100 (közép-európai téli idő),The main experiment item,yes,0,0,C:/Users/rrics/Documents/!!ResearchBMECOGSCI/gnet,0,0,0,prototype3.png,no,mono,no,18,no,black,no,no,768,1169,3.5.6,legacy,xpyriment,osweb,1.3.13,0,right,space,space,right,22768,3274,35337,22768,2,legacy,816,1536,24,864,24,0,0,1536,1646230221333,1024,2,48000,-16,experiment,p1sarr2.png,1,odd,Win32,111,115279,112261,111,111,639853,641360,634853,116796,634853,111,717064,718573,714064,641364,714064,visual_patterns,0,0,0,yes,1366
undefined,undefined,undefined,undefined,white,no,Mozilla,Netscape,"5.0 (Windows NT 10.0; Win64; x64) AppleWebKit/537.36 (KHTML, like Gecko) Chrome/98.0.4758.102 Safari/537.36",xpyriment,legacy,legacy,0,uniform,0,0,0,0,24,24,24,0,0,74,74,74,74,74,0,74,0,12,12,12,12,12,0,12,02-02-22,02-02-22,15:08:55,Wed Mar 02 2022 15:08:55 GMT+0100 (közép-európai téli idő),The main experiment item,yes,0,0,C:/Users/rrics/Documents/!!ResearchBMECOGSCI/gnet,0,0,0,prototype3.png,no,mono,no,18,no,black,no,no,768,1169,3.5.6,legacy,xpyriment,osweb,1.3.13,0,right,space,space,right,22768,3274,35337,22768,2,legacy,816,1536,24,864,24,0,0,1536,1646230221333,1024,2,48000,-16,experiment,p3sarrcol4.png,1,odd,Win32,111,115279,112261,111,111,639853,641360,634853,116796,634853,111,721592,723108,718590,641364,718590,visual_patterns,0,0,0,yes,1366
undefined,undefined,undefined,undefined,white,no,Mozilla,Netscape,"5.0 (Windows NT 10.0; Win64; x64) AppleWebKit/537.36 (KHTML, like Gecko) Chrome/98.0.4758.102 Safari/537.36",xpyriment,legacy,legacy,0,uniform,0,0,0,0,24,24,24,0,0,74,74,74,74,74,0,74,0,13,13,13,13,13,0,13,02-02-22,02-02-22,15:08:55,Wed Mar 02 2022 15:08:55 GMT+0100 (közép-európai téli idő),The main experiment item,yes,0,0,C:/Users/rrics/Documents/!!ResearchBMECOGSCI/gnet,0,0,0,prototype3.png,no,mono,no,18,no,black,no,no,768,1169,3.5.6,legacy,xpyriment,osweb,1.3.13,0,right,space,space,right,22768,3274,35337,22768,2,legacy,816,1536,24,864,24,0,0,1536,1646230221333,1024,2,48000,-16,experiment,p2sarrshacol2.png,1,odd,Win32,111,115279,112261,111,111,639853,641360,634853,116796,634853,111,726126,727643,723122,641364,723122,visual_patterns,0,0,0,yes,1366
undefined,undefined,undefined,undefined,white,no,Mozilla,Netscape,"5.0 (Windows NT 10.0; Win64; x64) AppleWebKit/537.36 (KHTML, like Gecko) Chrome/98.0.4758.102 Safari/537.36",xpyriment,legacy,legacy,0,uniform,0,0,0,0,24,24,24,0,0,74,74,74,74,74,0,74,0,14,14,14,14,14,0,14,02-02-22,02-02-22,15:08:55,Wed Mar 02 2022 15:08:55 GMT+0100 (közép-európai téli idő),The main experiment item,yes,0,0,C:/Users/rrics/Documents/!!ResearchBMECOGSCI/gnet,0,0,0,prototype3.png,no,mono,no,18,no,black,no,no,768,1169,3.5.6,legacy,xpyriment,osweb,1.3.13,0,right,space,space,right,22768,3274,35337,22768,2,legacy,816,1536,24,864,24,0,0,1536,1646230221333,1024,2,48000,-16,experiment,p6sarr1.png,1,odd,Win32,111,115279,112261,111,111,639853,641360,634853,116796,634853,111,730656,732162,727656,641364,727656,visual_patterns,0,0,0,yes,1366
undefined,undefined,undefined,undefined,white,no,Mozilla,Netscape,"5.0 (Windows NT 10.0; Win64; x64) AppleWebKit/537.36 (KHTML, like Gecko) Chrome/98.0.4758.102 Safari/537.36",xpyriment,legacy,legacy,0,uniform,0,0,0,0,24,24,24,0,0,74,74,74,74,74,0,74,0,15,15,15,15,15,0,15,02-02-22,02-02-22,15:08:55,Wed Mar 02 2022 15:08:55 GMT+0100 (közép-európai téli idő),The main experiment item,yes,0,0,C:/Users/rrics/Documents/!!ResearchBMECOGSCI/gnet,0,0,0,prototype3.png,no,mono,no,18,no,black,no,no,768,1169,3.5.6,legacy,xpyriment,osweb,1.3.13,0,right,space,space,right,22768,3274,35337,22768,2,legacy,816,1536,24,864,24,0,0,1536,1646230221333,1024,2,48000,-16,experiment,p4sarrshacol3.png,1,odd,Win32,111,115279,112261,111,111,639853,641360,634853,116796,634853,111,735180,736697,732183,641364,732183,visual_patterns,0,0,0,yes,1366
undefined,undefined,undefined,undefined,white,no,Mozilla,Netscape,"5.0 (Windows NT 10.0; Win64; x64) AppleWebKit/537.36 (KHTML, like Gecko) Chrome/98.0.4758.102 Safari/537.36",xpyriment,legacy,legacy,0,uniform,0,0,0,0,24,24,24,0,0,74,74,74,74,74,0,74,0,16,16,16,16,16,0,16,02-02-22,02-02-22,15:08:55,Wed Mar 02 2022 15:08:55 GMT+0100 (közép-európai téli idő),The main experiment item,yes,0,0,C:/Users/rrics/Documents/!!ResearchBMECOGSCI/gnet,0,0,0,prototype3.png,no,mono,no,18,no,black,no,no,768,1169,3.5.6,legacy,xpyriment,osweb,1.3.13,0,right,space,space,right,22768,3274,35337,22768,2,legacy,816,1536,24,864,24,0,0,1536,1646230221333,1024,2,48000,-16,experiment,p4sarrshacol4.png,1,odd,Win32,111,115279,112261,111,111,639853,641360,634853,116796,634853,111,739740,741248,736741,641364,736741,visual_patterns,0,0,0,yes,1366
undefined,undefined,undefined,undefined,white,no,Mozilla,Netscape,"5.0 (Windows NT 10.0; Win64; x64) AppleWebKit/537.36 (KHTML, like Gecko) Chrome/98.0.4758.102 Safari/537.36",xpyriment,legacy,legacy,0,uniform,0,0,0,0,24,24,24,0,0,74,74,74,74,74,0,74,0,17,17,17,17,17,0,17,02-02-22,02-02-22,15:08:55,Wed Mar 02 2022 15:08:55 GMT+0100 (közép-európai téli idő),The main experiment item,yes,0,0,C:/Users/rrics/Documents/!!ResearchBMECOGSCI/gnet,0,0,0,prototype3.png,no,mono,no,18,no,black,no,no,768,1169,3.5.6,legacy,xpyriment,osweb,1.3.13,0,right,space,space,right,22768,3274,35337,22768,2,legacy,816,1536,24,864,24,0,0,1536,1646230221333,1024,2,48000,-16,experiment,p2sarrcol1.png,1,odd,Win32,111,115279,112261,111,111,639853,641360,634853,116796,634853,111,744261,745767,741256,641364,741256,visual_patterns,0,0,0,yes,1366
undefined,undefined,undefined,undefined,white,no,Mozilla,Netscape,"5.0 (Windows NT 10.0; Win64; x64) AppleWebKit/537.36 (KHTML, like Gecko) Chrome/98.0.4758.102 Safari/537.36",xpyriment,legacy,legacy,0,uniform,0,0,0,0,24,24,24,0,0,74,74,74,74,74,0,74,0,18,18,18,18,18,0,18,02-02-22,02-02-22,15:08:55,Wed Mar 02 2022 15:08:55 GMT+0100 (közép-európai téli idő),The main experiment item,yes,0,0,C:/Users/rrics/Documents/!!ResearchBMECOGSCI/gnet,0,0,0,prototype3.png,no,mono,no,18,no,black,no,no,768,1169,3.5.6,legacy,xpyriment,osweb,1.3.13,0,right,space,space,right,22768,3274,35337,22768,2,legacy,816,1536,24,864,24,0,0,1536,1646230221333,1024,2,48000,-16,experiment,p1sarr4.png,1,odd,Win32,111,115279,112261,111,111,639853,641360,634853,116796,634853,111,748785,750302,745785,641364,745784,visual_patterns,0,0,0,yes,1366
undefined,undefined,undefined,undefined,white,no,Mozilla,Netscape,"5.0 (Windows NT 10.0; Win64; x64) AppleWebKit/537.36 (KHTML, like Gecko) Chrome/98.0.4758.102 Safari/537.36",xpyriment,legacy,legacy,0,uniform,0,0,0,0,24,24,24,0,0,74,74,74,74,74,0,74,0,19,19,19,19,19,0,19,02-02-22,02-02-22,15:08:55,Wed Mar 02 2022 15:08:55 GMT+0100 (közép-európai téli idő),The main experiment item,yes,0,0,C:/Users/rrics/Documents/!!ResearchBMECOGSCI/gnet,0,0,0,prototype3.png,no,mono,no,18,no,black,no,no,768,1169,3.5.6,legacy,xpyriment,osweb,1.3.13,0,right,space,space,right,22768,3274,35337,22768,2,legacy,816,1536,24,864,24,0,0,1536,1646230221333,1024,2,48000,-16,experiment,p10sarr1.png,1,odd,Win32,111,115279,112261,111,111,639853,641360,634853,116796,634853,111,753319,754820,750315,641364,750315,visual_patterns,0,0,0,yes,1366
undefined,undefined,undefined,undefined,white,no,Mozilla,Netscape,"5.0 (Windows NT 10.0; Win64; x64) AppleWebKit/537.36 (KHTML, like Gecko) Chrome/98.0.4758.102 Safari/537.36",xpyriment,legacy,legacy,0,uniform,0,0,0,0,24,24,24,0,0,74,74,74,74,74,0,74,0,20,20,20,20,20,0,20,02-02-22,02-02-22,15:08:55,Wed Mar 02 2022 15:08:55 GMT+0100 (közép-európai téli idő),The main experiment item,yes,0,0,C:/Users/rrics/Documents/!!ResearchBMECOGSCI/gnet,0,0,0,prototype3.png,no,mono,no,18,no,black,no,no,768,1169,3.5.6,legacy,xpyriment,osweb,1.3.13,0,right,space,space,right,22768,3274,35337,22768,2,legacy,816,1536,24,864,24,0,0,1536,1646230221333,1024,2,48000,-16,experiment,p8sarr3.png,1,odd,Win32,111,115279,112261,111,111,639853,641360,634853,116796,634853,111,757839,759355,754837,641364,754837,visual_patterns,0,0,0,yes,1366
undefined,undefined,undefined,undefined,white,no,Mozilla,Netscape,"5.0 (Windows NT 10.0; Win64; x64) AppleWebKit/537.36 (KHTML, like Gecko) Chrome/98.0.4758.102 Safari/537.36",xpyriment,legacy,legacy,0,uniform,0,0,0,0,24,24,24,0,0,74,74,74,74,74,0,74,0,21,21,21,21,21,0,21,02-02-22,02-02-22,15:08:55,Wed Mar 02 2022 15:08:55 GMT+0100 (közép-európai téli idő),The main experiment item,yes,0,0,C:/Users/rrics/Documents/!!ResearchBMECOGSCI/gnet,0,0,0,prototype3.png,no,mono,no,18,no,black,no,no,768,1169,3.5.6,legacy,xpyriment,osweb,1.3.13,0,right,space,space,right,22768,3274,35337,22768,2,legacy,816,1536,24,864,24,0,0,1536,1646230221333,1024,2,48000,-16,experiment,p9sarr4.png,1,odd,Win32,111,115279,112261,111,111,639853,641360,634853,116796,634853,111,762400,763907,759402,641364,759402,visual_patterns,0,0,0,yes,1366
undefined,undefined,undefined,undefined,white,no,Mozilla,Netscape,"5.0 (Windows NT 10.0; Win64; x64) AppleWebKit/537.36 (KHTML, like Gecko) Chrome/98.0.4758.102 Safari/537.36",xpyriment,legacy,legacy,0,uniform,0,0,0,0,24,24,24,0,0,74,74,74,74,74,0,74,0,22,22,22,22,22,0,22,02-02-22,02-02-22,15:08:55,Wed Mar 02 2022 15:08:55 GMT+0100 (közép-európai téli idő),The main experiment item,yes,0,0,C:/Users/rrics/Documents/!!ResearchBMECOGSCI/gnet,0,0,0,prototype3.png,no,mono,no,18,no,black,no,no,768,1169,3.5.6,legacy,xpyriment,osweb,1.3.13,0,right,space,space,right,22768,3274,35337,22768,2,legacy,816,1536,24,864,24,0,0,1536,1646230221333,1024,2,48000,-16,experiment,p5sarrcol2.png,1,odd,Win32,111,115279,112261,111,111,639853,641360,634853,116796,634853,111,766921,768426,763921,641364,763921,visual_patterns,0,0,0,yes,1366
undefined,undefined,undefined,undefined,white,no,Mozilla,Netscape,"5.0 (Windows NT 10.0; Win64; x64) AppleWebKit/537.36 (KHTML, like Gecko) Chrome/98.0.4758.102 Safari/537.36",xpyriment,legacy,legacy,0,uniform,0,0,0,0,24,24,24,0,0,74,74,74,74,74,0,74,0,23,23,23,23,23,0,23,02-02-22,02-02-22,15:08:55,Wed Mar 02 2022 15:08:55 GMT+0100 (közép-európai téli idő),The main experiment item,yes,0,0,C:/Users/rrics/Documents/!!ResearchBMECOGSCI/gnet,0,0,0,prototype3.png,no,mono,no,18,no,black,no,no,768,1169,3.5.6,legacy,xpyriment,osweb,1.3.13,0,right,space,space,right,22768,3274,35337,22768,2,legacy,816,1536,24,864,24,0,0,1536,1646230221333,1024,2,48000,-16,experiment,p7sarr4.png,1,odd,Win32,111,115279,112261,111,111,639853,641360,634853,116796,634853,111,771439,772944,768444,641364,768444,visual_patterns,0,0,0,yes,1366
undefined,undefined,undefined,undefined,white,no,Mozilla,Netscape,"5.0 (Windows NT 10.0; Win64; x64) AppleWebKit/537.36 (KHTML, like Gecko) Chrome/98.0.4758.102 Safari/537.36",xpyriment,legacy,legacy,0,uniform,0,0,0,0,24,24,24,0,0,74,74,74,74,74,0,74,0,24,24,24,24,24,0,24,02-02-22,02-02-22,15:08:55,Wed Mar 02 2022 15:08:55 GMT+0100 (közép-európai téli idő),The main experiment item,yes,0,0,C:/Users/rrics/Documents/!!ResearchBMECOGSCI/gnet,0,0,0,prototype3.png,no,mono,no,18,no,black,no,no,768,1169,3.5.6,legacy,xpyriment,osweb,1.3.13,0,right,space,space,right,22768,3274,35337,22768,2,legacy,816,1536,24,864,24,0,0,1536,1646230221333,1024,2,48000,-16,experiment,p3sarrsha3.png,1,odd,Win32,111,115279,112261,111,111,639853,641360,634853,116796,634853,111,775962,777463,772961,641364,772961,visual_patterns,0,0,0,yes,1366
undefined,undefined,undefined,undefined,white,no,Mozilla,Netscape,"5.0 (Windows NT 10.0; Win64; x64) AppleWebKit/537.36 (KHTML, like Gecko) Chrome/98.0.4758.102 Safari/537.36",xpyriment,legacy,legacy,0,uniform,0,0,0,0,24,24,24,0,0,74,74,74,74,74,0,74,0,25,25,25,25,25,0,25,02-02-22,02-02-22,15:08:55,Wed Mar 02 2022 15:08:55 GMT+0100 (közép-európai téli idő),The main experiment item,yes,0,0,C:/Users/rrics/Documents/!!ResearchBMECOGSCI/gnet,0,0,0,prototype3.png,no,mono,no,18,no,black,no,no,768,1169,3.5.6,legacy,xpyriment,osweb,1.3.13,0,right,space,space,right,22768,3274,35337,22768,2,legacy,816,1536,24,864,24,0,0,1536,1646230221333,1024,2,48000,-16,experiment,p8sarr4.png,1,odd,Win32,111,115279,112261,111,111,639853,641360,634853,116796,634853,111,780477,781980,777481,641364,777481,visual_patterns,0,0,0,yes,1366
undefined,undefined,undefined,undefined,white,no,Mozilla,Netscape,"5.0 (Windows NT 10.0; Win64; x64) AppleWebKit/537.36 (KHTML, like Gecko) Chrome/98.0.4758.102 Safari/537.36",xpyriment,legacy,legacy,0,uniform,0,0,0,0,24,24,24,0,0,74,74,74,74,74,0,74,0,26,26,26,26,26,0,26,02-02-22,02-02-22,15:08:55,Wed Mar 02 2022 15:08:55 GMT+0100 (közép-európai téli idő),The main experiment item,yes,0,0,C:/Users/rrics/Documents/!!ResearchBMECOGSCI/gnet,0,0,0,prototype3.png,no,mono,no,18,no,black,no,no,768,1169,3.5.6,legacy,xpyriment,osweb,1.3.13,0,right,space,space,right,22768,3274,35337,22768,2,legacy,816,1536,24,864,24,0,0,1536,1646230221333,1024,2,48000,-16,experiment,p2sarrshacol4.png,1,odd,Win32,111,115279,112261,111,111,639853,641360,634853,116796,634853,111,784999,786516,781999,641364,781999,visual_patterns,0,0,0,yes,1366
undefined,undefined,undefined,undefined,white,no,Mozilla,Netscape,"5.0 (Windows NT 10.0; Win64; x64) AppleWebKit/537.36 (KHTML, like Gecko) Chrome/98.0.4758.102 Safari/537.36",xpyriment,legacy,legacy,0,uniform,0,0,0,0,24,24,24,0,0,74,74,74,74,74,0,74,0,27,27,27,27,27,0,27,02-02-22,02-02-22,15:08:55,Wed Mar 02 2022 15:08:55 GMT+0100 (közép-európai téli idő),The main experiment item,yes,0,0,C:/Users/rrics/Documents/!!ResearchBMECOGSCI/gnet,0,0,0,prototype3.png,no,mono,no,18,no,black,no,no,768,1169,3.5.6,legacy,xpyriment,osweb,1.3.13,0,right,space,space,right,22768,3274,35337,22768,2,legacy,816,1536,24,864,24,0,0,1536,1646230221333,1024,2,48000,-16,experiment,p4sarrshacol1.png,1,odd,Win32,111,115279,112261,111,111,639853,641360,634853,116796,634853,111,789533,791034,786530,641364,786530,visual_patterns,0,0,0,yes,1366
undefined,undefined,undefined,undefined,white,no,Mozilla,Netscape,"5.0 (Windows NT 10.0; Win64; x64) AppleWebKit/537.36 (KHTML, like Gecko) Chrome/98.0.4758.102 Safari/537.36",xpyriment,legacy,legacy,0,uniform,0,0,0,0,24,24,24,0,0,74,74,74,74,74,0,74,0,28,28,28,28,28,0,28,02-02-22,02-02-22,15:08:55,Wed Mar 02 2022 15:08:55 GMT+0100 (közép-európai téli idő),The main experiment item,yes,0,0,C:/Users/rrics/Documents/!!ResearchBMECOGSCI/gnet,0,0,0,prototype3.png,no,mono,no,18,no,black,no,no,768,1169,3.5.6,legacy,xpyriment,osweb,1.3.13,0,right,space,space,right,22768,3274,35337,22768,2,legacy,816,1536,24,864,24,0,0,1536,1646230221333,1024,2,48000,-16,experiment,p1sarrshacol3.png,1,odd,Win32,111,115279,112261,111,111,639853,641360,634853,116796,634853,111,794047,795552,791051,641364,791051,visual_patterns,0,0,0,yes,1366
undefined,undefined,undefined,undefined,white,no,Mozilla,Netscape,"5.0 (Windows NT 10.0; Win64; x64) AppleWebKit/537.36 (KHTML, like Gecko) Chrome/98.0.4758.102 Safari/537.36",xpyriment,legacy,legacy,0,uniform,0,0,0,0,24,24,24,0,0,74,74,74,74,74,0,74,0,29,29,29,29,29,0,29,02-02-22,02-02-22,15:08:55,Wed Mar 02 2022 15:08:55 GMT+0100 (közép-európai téli idő),The main experiment item,yes,0,0,C:/Users/rrics/Documents/!!ResearchBMECOGSCI/gnet,0,0,0,prototype3.png,no,mono,no,18,no,black,no,no,768,1169,3.5.6,legacy,xpyriment,osweb,1.3.13,0,right,space,space,right,22768,3274,35337,22768,2,legacy,816,1536,24,864,24,0,0,1536,1646230221333,1024,2,48000,-16,experiment,p2sarrsha1.png,1,odd,Win32,111,115279,112261,111,111,639853,641360,634853,116796,634853,111,798571,800087,795568,641364,795568,visual_patterns,0,0,0,yes,1366
undefined,undefined,undefined,undefined,white,no,Mozilla,Netscape,"5.0 (Windows NT 10.0; Win64; x64) AppleWebKit/537.36 (KHTML, like Gecko) Chrome/98.0.4758.102 Safari/537.36",xpyriment,legacy,legacy,0,uniform,0,0,0,0,24,24,24,0,0,74,74,74,74,74,0,74,0,30,30,30,30,30,0,30,02-02-22,02-02-22,15:08:55,Wed Mar 02 2022 15:08:55 GMT+0100 (közép-európai téli idő),The main experiment item,yes,0,0,C:/Users/rrics/Documents/!!ResearchBMECOGSCI/gnet,0,0,0,prototype3.png,no,mono,no,18,no,black,no,no,768,1169,3.5.6,legacy,xpyriment,osweb,1.3.13,0,right,space,space,right,22768,3274,35337,22768,2,legacy,816,1536,24,864,24,0,0,1536,1646230221333,1024,2,48000,-16,experiment,p3sarr2.png,1,odd,Win32,111,115279,112261,111,111,639853,641360,634853,116796,634853,111,803106,804623,800103,641364,800103,visual_patterns,0,0,0,yes,1366
undefined,undefined,undefined,undefined,white,no,Mozilla,Netscape,"5.0 (Windows NT 10.0; Win64; x64) AppleWebKit/537.36 (KHTML, like Gecko) Chrome/98.0.4758.102 Safari/537.36",xpyriment,legacy,legacy,0,uniform,0,0,0,0,24,24,24,0,0,74,74,74,74,74,0,74,0,31,31,31,31,31,0,31,02-02-22,02-02-22,15:08:55,Wed Mar 02 2022 15:08:55 GMT+0100 (közép-európai téli idő),The main experiment item,yes,0,0,C:/Users/rrics/Documents/!!ResearchBMECOGSCI/gnet,0,0,0,prototype3.png,no,mono,no,18,no,black,no,no,768,1169,3.5.6,legacy,xpyriment,osweb,1.3.13,0,right,space,space,right,22768,3274,35337,22768,2,legacy,816,1536,24,864,24,0,0,1536,1646230221333,1024,2,48000,-16,experiment,p3sarrshacol3.png,1,odd,Win32,111,115279,112261,111,111,639853,641360,634853,116796,634853,111,807670,809174,804672,641364,804671,visual_patterns,0,0,0,yes,1366
undefined,undefined,undefined,undefined,white,no,Mozilla,Netscape,"5.0 (Windows NT 10.0; Win64; x64) AppleWebKit/537.36 (KHTML, like Gecko) Chrome/98.0.4758.102 Safari/537.36",xpyriment,legacy,legacy,0,uniform,0,0,0,0,24,24,24,0,0,74,74,74,74,74,0,74,0,32,32,32,32,32,0,32,02-02-22,02-02-22,15:08:55,Wed Mar 02 2022 15:08:55 GMT+0100 (közép-európai téli idő),The main experiment item,yes,0,0,C:/Users/rrics/Documents/!!ResearchBMECOGSCI/gnet,0,0,0,prototype3.png,no,mono,no,18,no,black,no,no,768,1169,3.5.6,legacy,xpyriment,osweb,1.3.13,0,right,space,space,right,22768,3274,35337,22768,2,legacy,816,1536,24,864,24,0,0,1536,1646230221333,1024,2,48000,-16,experiment,p2sarrcol4.png,1,odd,Win32,111,115279,112261,111,111,639853,641360,634853,116796,634853,111,812193,813709,809193,641364,809193,visual_patterns,0,0,0,yes,1366
undefined,undefined,undefined,undefined,white,no,Mozilla,Netscape,"5.0 (Windows NT 10.0; Win64; x64) AppleWebKit/537.36 (KHTML, like Gecko) Chrome/98.0.4758.102 Safari/537.36",xpyriment,legacy,legacy,0,uniform,0,0,0,0,24,24,24,0,0,74,74,74,74,74,0,74,0,33,33,33,33,33,0,33,02-02-22,02-02-22,15:08:55,Wed Mar 02 2022 15:08:55 GMT+0100 (közép-európai téli idő),The main experiment item,yes,0,0,C:/Users/rrics/Documents/!!ResearchBMECOGSCI/gnet,0,0,0,prototype3.png,no,mono,no,18,no,black,no,no,768,1169,3.5.6,legacy,xpyriment,osweb,1.3.13,0,right,space,space,right,22768,3274,35337,22768,2,legacy,816,1536,24,864,24,0,0,1536,1646230221333,1024,2,48000,-16,experiment,p5sarrcol1.png,1,odd,Win32,111,115279,112261,111,111,639853,641360,634853,116796,634853,111,816728,818244,813723,641364,813723,visual_patterns,0,0,0,yes,1366
undefined,undefined,undefined,undefined,white,no,Mozilla,Netscape,"5.0 (Windows NT 10.0; Win64; x64) AppleWebKit/537.36 (KHTML, like Gecko) Chrome/98.0.4758.102 Safari/537.36",xpyriment,legacy,legacy,0,uniform,0,0,0,0,24,24,24,0,0,74,74,74,74,74,0,74,0,34,34,34,34,34,0,34,02-02-22,02-02-22,15:08:55,Wed Mar 02 2022 15:08:55 GMT+0100 (közép-európai téli idő),The main experiment item,yes,0,0,C:/Users/rrics/Documents/!!ResearchBMECOGSCI/gnet,0,0,0,prototype3.png,no,mono,no,18,no,black,no,no,768,1169,3.5.6,legacy,xpyriment,osweb,1.3.13,0,right,space,space,right,22768,3274,35337,22768,2,legacy,816,1536,24,864,24,0,0,1536,1646230221333,1024,2,48000,-16,experiment,p8sarr2.png,1,odd,Win32,111,115279,112261,111,111,639853,641360,634853,116796,634853,111,821262,822763,818257,641364,818257,visual_patterns,0,0,0,yes,1366
undefined,undefined,undefined,undefined,white,no,Mozilla,Netscape,"5.0 (Windows NT 10.0; Win64; x64) AppleWebKit/537.36 (KHTML, like Gecko) Chrome/98.0.4758.102 Safari/537.36",xpyriment,legacy,legacy,0,uniform,0,0,0,0,24,24,24,0,0,74,74,74,74,74,0,74,0,35,35,35,35,35,0,35,02-02-22,02-02-22,15:08:55,Wed Mar 02 2022 15:08:55 GMT+0100 (közép-európai téli idő),The main experiment item,yes,0,0,C:/Users/rrics/Documents/!!ResearchBMECOGSCI/gnet,0,0,0,prototype3.png,no,mono,no,18,no,black,no,no,768,1169,3.5.6,legacy,xpyriment,osweb,1.3.13,0,right,space,space,right,22768,3274,35337,22768,2,legacy,816,1536,24,864,24,0,0,1536,1646230221333,1024,2,48000,-16,experiment,p5sarr3.png,1,odd,Win32,111,115279,112261,111,111,639853,641360,634853,116796,634853,111,825781,827298,822781,641364,822781,visual_patterns,0,0,0,yes,1366
undefined,undefined,undefined,undefined,white,no,Mozilla,Netscape,"5.0 (Windows NT 10.0; Win64; x64) AppleWebKit/537.36 (KHTML, like Gecko) Chrome/98.0.4758.102 Safari/537.36",xpyriment,legacy,legacy,0,uniform,0,0,0,0,24,24,24,0,0,74,74,74,74,74,0,74,0,36,36,36,36,36,0,36,02-02-22,02-02-22,15:08:55,Wed Mar 02 2022 15:08:55 GMT+0100 (közép-európai téli idő),The main experiment item,yes,0,0,C:/Users/rrics/Documents/!!ResearchBMECOGSCI/gnet,0,0,0,prototype3.png,no,mono,no,18,no,black,no,no,768,1169,3.5.6,legacy,xpyriment,osweb,1.3.13,0,right,space,space,right,22768,3274,35337,22768,2,legacy,816,1536,24,864,24,0,0,1536,1646230221333,1024,2,48000,-16,experiment,p7sarr1.png,1,odd,Win32,111,115279,112261,111,111,639853,641360,634853,116796,634853,111,830342,831850,827343,641364,827343,visual_patterns,0,0,0,yes,1366
undefined,undefined,undefined,undefined,white,no,Mozilla,Netscape,"5.0 (Windows NT 10.0; Win64; x64) AppleWebKit/537.36 (KHTML, like Gecko) Chrome/98.0.4758.102 Safari/537.36",xpyriment,legacy,legacy,0,uniform,0,0,0,0,24,24,24,0,0,74,74,74,74,74,0,74,0,37,37,37,37,37,0,37,02-02-22,02-02-22,15:08:55,Wed Mar 02 2022 15:08:55 GMT+0100 (közép-európai téli idő),The main experiment item,yes,0,0,C:/Users/rrics/Documents/!!ResearchBMECOGSCI/gnet,0,0,0,prototype3.png,no,mono,no,18,no,black,no,no,768,1169,3.5.6,legacy,xpyriment,osweb,1.3.13,0,right,space,space,right,22768,3274,35337,22768,2,legacy,816,1536,24,864,24,0,0,1536,1646230221333,1024,2,48000,-16,experiment,p1sarrcol4.png,1,odd,Win32,111,115279,112261,111,111,639853,641360,634853,116796,634853,111,834867,836368,831868,641364,831868,visual_patterns,0,0,0,yes,1366
undefined,undefined,undefined,undefined,white,no,Mozilla,Netscape,"5.0 (Windows NT 10.0; Win64; x64) AppleWebKit/537.36 (KHTML, like Gecko) Chrome/98.0.4758.102 Safari/537.36",xpyriment,legacy,legacy,0,uniform,0,0,0,0,24,24,24,0,0,74,74,74,74,74,0,74,0,38,38,38,38,38,0,38,02-02-22,02-02-22,15:08:55,Wed Mar 02 2022 15:08:55 GMT+0100 (közép-európai téli idő),The main experiment item,yes,0,0,C:/Users/rrics/Documents/!!ResearchBMECOGSCI/gnet,0,0,0,prototype3.png,no,mono,no,18,no,black,no,no,768,1169,3.5.6,legacy,xpyriment,osweb,1.3.13,0,right,space,space,right,22768,3274,35337,22768,2,legacy,816,1536,24,864,24,0,0,1536,1646230221333,1024,2,48000,-16,experiment,p3sarrsha4.png,1,odd,Win32,111,115279,112261,111,111,639853,641360,634853,116796,634853,111,839387,840903,836384,641364,836384,visual_patterns,0,0,0,yes,1366
undefined,undefined,undefined,undefined,white,no,Mozilla,Netscape,"5.0 (Windows NT 10.0; Win64; x64) AppleWebKit/537.36 (KHTML, like Gecko) Chrome/98.0.4758.102 Safari/537.36",xpyriment,legacy,legacy,0,uniform,0,0,0,0,24,24,24,0,0,74,74,74,74,74,0,74,0,39,39,39,39,39,0,39,02-02-22,02-02-22,15:08:55,Wed Mar 02 2022 15:08:55 GMT+0100 (közép-európai téli idő),The main experiment item,yes,0,0,C:/Users/rrics/Documents/!!ResearchBMECOGSCI/gnet,0,0,0,prototype3.png,no,mono,no,18,no,black,no,no,768,1169,3.5.6,legacy,xpyriment,osweb,1.3.13,0,right,space,space,right,22768,3274,35337,22768,2,legacy,816,1536,24,864,24,0,0,1536,1646230221333,1024,2,48000,-16,experiment,p3sarr1.png,1,odd,Win32,111,115279,112261,111,111,639853,641360,634853,116796,634853,111,843922,845438,840919,641364,840919,visual_patterns,0,0,0,yes,1366
undefined,undefined,undefined,undefined,white,no,Mozilla,Netscape,"5.0 (Windows NT 10.0; Win64; x64) AppleWebKit/537.36 (KHTML, like Gecko) Chrome/98.0.4758.102 Safari/537.36",xpyriment,legacy,legacy,0,uniform,0,0,0,0,24,24,24,0,0,74,74,74,74,74,0,74,0,40,40,40,40,40,0,40,02-02-22,02-02-22,15:08:55,Wed Mar 02 2022 15:08:55 GMT+0100 (közép-európai téli idő),The main experiment item,yes,0,0,C:/Users/rrics/Documents/!!ResearchBMECOGSCI/gnet,0,0,0,prototype3.png,no,mono,no,18,no,black,no,no,768,1169,3.5.6,legacy,xpyriment,osweb,1.3.13,0,right,space,space,right,22768,3274,35337,22768,2,legacy,816,1536,24,864,24,0,0,1536,1646230221333,1024,2,48000,-16,experiment,p2sarrsha3.png,1,odd,Win32,111,115279,112261,111,111,639853,641360,634853,116796,634853,111,848457,849973,845455,641364,845455,visual_patterns,0,0,0,yes,1366
undefined,undefined,undefined,undefined,white,no,Mozilla,Netscape,"5.0 (Windows NT 10.0; Win64; x64) AppleWebKit/537.36 (KHTML, like Gecko) Chrome/98.0.4758.102 Safari/537.36",xpyriment,legacy,legacy,0,uniform,0,0,0,0,24,24,24,0,0,74,74,74,74,74,0,74,0,41,41,41,41,41,0,41,02-02-22,02-02-22,15:08:55,Wed Mar 02 2022 15:08:55 GMT+0100 (közép-európai téli idő),The main experiment item,yes,0,0,C:/Users/rrics/Documents/!!ResearchBMECOGSCI/gnet,0,0,0,prototype3.png,no,mono,no,18,no,black,no,no,768,1169,3.5.6,legacy,xpyriment,osweb,1.3.13,0,right,space,space,right,22768,3274,35337,22768,2,legacy,816,1536,24,864,24,0,0,1536,1646230221333,1024,2,48000,-16,experiment,p9sarr3.png,1,odd,Win32,111,115279,112261,111,111,639853,641360,634853,116796,634853,111,853025,854542,850027,641364,850027,visual_patterns,0,0,0,yes,1366
undefined,undefined,undefined,undefined,white,no,Mozilla,Netscape,"5.0 (Windows NT 10.0; Win64; x64) AppleWebKit/537.36 (KHTML, like Gecko) Chrome/98.0.4758.102 Safari/537.36",xpyriment,legacy,legacy,0,uniform,0,0,0,0,24,24,24,0,0,74,74,74,74,74,0,74,0,42,42,42,42,42,0,42,02-02-22,02-02-22,15:08:55,Wed Mar 02 2022 15:08:55 GMT+0100 (közép-európai téli idő),The main experiment item,yes,0,0,C:/Users/rrics/Documents/!!ResearchBMECOGSCI/gnet,0,0,0,prototype3.png,no,mono,no,18,no,black,no,no,768,1169,3.5.6,legacy,xpyriment,osweb,1.3.13,0,right,space,space,right,22768,3274,35337,22768,2,legacy,816,1536,24,864,24,0,0,1536,1646230221333,1024,2,48000,-16,experiment,p10sarr4.png,1,odd,Win32,111,115279,112261,111,111,639853,641360,634853,116796,634853,111,857556,859060,854559,641364,854559,visual_patterns,0,0,0,yes,1366
undefined,undefined,undefined,undefined,white,no,Mozilla,Netscape,"5.0 (Windows NT 10.0; Win64; x64) AppleWebKit/537.36 (KHTML, like Gecko) Chrome/98.0.4758.102 Safari/537.36",xpyriment,legacy,legacy,0,uniform,0,0,0,0,24,24,24,0,0,74,74,74,74,74,0,74,0,43,43,43,43,43,0,43,02-02-22,02-02-22,15:08:55,Wed Mar 02 2022 15:08:55 GMT+0100 (közép-európai téli idő),The main experiment item,yes,0,0,C:/Users/rrics/Documents/!!ResearchBMECOGSCI/gnet,0,0,0,prototype3.png,no,mono,no,18,no,black,no,no,768,1169,3.5.6,legacy,xpyriment,osweb,1.3.13,0,right,space,space,right,22768,3274,35337,22768,2,legacy,816,1536,24,864,24,0,0,1536,1646230221333,1024,2,48000,-16,experiment,p4sarrcol1.png,1,odd,Win32,111,115279,112261,111,111,639853,641360,634853,116796,634853,111,862078,863595,859075,641364,859075,visual_patterns,0,0,0,yes,1366
undefined,undefined,undefined,undefined,white,no,Mozilla,Netscape,"5.0 (Windows NT 10.0; Win64; x64) AppleWebKit/537.36 (KHTML, like Gecko) Chrome/98.0.4758.102 Safari/537.36",xpyriment,legacy,legacy,0,uniform,0,0,0,0,24,24,24,0,0,74,74,74,74,74,0,74,0,44,44,44,44,44,0,44,02-02-22,02-02-22,15:08:55,Wed Mar 02 2022 15:08:55 GMT+0100 (közép-európai téli idő),The main experiment item,yes,0,0,C:/Users/rrics/Documents/!!ResearchBMECOGSCI/gnet,0,0,0,prototype3.png,no,mono,no,18,no,black,no,no,768,1169,3.5.6,legacy,xpyriment,osweb,1.3.13,0,right,space,space,right,22768,3274,35337,22768,2,legacy,816,1536,24,864,24,0,0,1536,1646230221333,1024,2,48000,-16,experiment,p5sarrshacol4.png,1,odd,Win32,111,115279,112261,111,111,639853,641360,634853,116796,634853,111,866613,868123,863614,641364,863614,visual_patterns,0,0,0,yes,1366
undefined,undefined,undefined,undefined,white,no,Mozilla,Netscape,"5.0 (Windows NT 10.0; Win64; x64) AppleWebKit/537.36 (KHTML, like Gecko) Chrome/98.0.4758.102 Safari/537.36",xpyriment,legacy,legacy,0,uniform,0,0,0,0,24,24,24,0,0,74,74,74,74,74,0,74,0,45,45,45,45,45,0,45,02-02-22,02-02-22,15:08:55,Wed Mar 02 2022 15:08:55 GMT+0100 (közép-európai téli idő),The main experiment item,yes,0,0,C:/Users/rrics/Documents/!!ResearchBMECOGSCI/gnet,0,0,0,prototype3.png,no,mono,no,18,no,black,no,no,768,1169,3.5.6,legacy,xpyriment,osweb,1.3.13,0,right,space,space,right,22768,3274,35337,22768,2,legacy,816,1536,24,864,24,0,0,1536,1646230221333,1024,2,48000,-16,experiment,p3sarr3.png,1,odd,Win32,111,115279,112261,111,111,639853,641360,634853,116796,634853,111,871140,872649,868143,641364,868143,visual_patterns,0,0,0,yes,1366
undefined,undefined,undefined,undefined,white,no,Mozilla,Netscape,"5.0 (Windows NT 10.0; Win64; x64) AppleWebKit/537.36 (KHTML, like Gecko) Chrome/98.0.4758.102 Safari/537.36",xpyriment,legacy,legacy,0,uniform,0,0,0,0,24,24,24,0,0,74,74,74,74,74,0,74,0,46,46,46,46,46,0,46,02-02-22,02-02-22,15:08:55,Wed Mar 02 2022 15:08:55 GMT+0100 (közép-európai téli idő),The main experiment item,yes,0,0,C:/Users/rrics/Documents/!!ResearchBMECOGSCI/gnet,0,0,0,prototype3.png,no,mono,no,18,no,black,no,no,768,1169,3.5.6,legacy,xpyriment,osweb,1.3.13,0,right,space,space,right,22768,3274,35337,22768,2,legacy,816,1536,24,864,24,0,0,1536,1646230221333,1024,2,48000,-16,experiment,p2sarr3.png,1,odd,Win32,111,115279,112261,111,111,639853,641360,634853,116796,634853,111,875667,877183,872667,641364,872667,visual_patterns,0,0,0,yes,1366
undefined,undefined,undefined,undefined,white,no,Mozilla,Netscape,"5.0 (Windows NT 10.0; Win64; x64) AppleWebKit/537.36 (KHTML, like Gecko) Chrome/98.0.4758.102 Safari/537.36",xpyriment,legacy,legacy,0,uniform,0,0,0,0,24,24,24,0,0,74,74,74,74,74,0,74,0,47,47,47,47,47,0,47,02-02-22,02-02-22,15:08:55,Wed Mar 02 2022 15:08:55 GMT+0100 (közép-európai téli idő),The main experiment item,yes,0,0,C:/Users/rrics/Documents/!!ResearchBMECOGSCI/gnet,0,0,0,prototype3.png,no,mono,no,18,no,black,no,no,768,1169,3.5.6,legacy,xpyriment,osweb,1.3.13,0,right,space,space,right,22768,3274,35337,22768,2,legacy,816,1536,24,864,24,0,0,1536,1646230221333,1024,2,48000,-16,experiment,p4sarr2.png,1,odd,Win32,111,115279,112261,111,111,639853,641360,634853,116796,634853,111,880201,881702,877197,641364,877197,visual_patterns,0,0,0,yes,1366
undefined,undefined,undefined,undefined,white,no,Mozilla,Netscape,"5.0 (Windows NT 10.0; Win64; x64) AppleWebKit/537.36 (KHTML, like Gecko) Chrome/98.0.4758.102 Safari/537.36",xpyriment,legacy,legacy,0,uniform,0,0,0,0,24,24,24,0,0,74,74,74,74,74,0,74,0,48,48,48,48,48,0,48,02-02-22,02-02-22,15:08:55,Wed Mar 02 2022 15:08:55 GMT+0100 (közép-európai téli idő),The main experiment item,yes,0,0,C:/Users/rrics/Documents/!!ResearchBMECOGSCI/gnet,0,0,0,prototype3.png,no,mono,no,18,no,black,no,no,768,1169,3.5.6,legacy,xpyriment,osweb,1.3.13,0,right,space,space,right,22768,3274,35337,22768,2,legacy,816,1536,24,864,24,0,0,1536,1646230221333,1024,2,48000,-16,experiment,p2sarrshacol3.png,1,odd,Win32,111,115279,112261,111,111,639853,641360,634853,116796,634853,111,884721,886237,881719,641364,881719,visual_patterns,0,0,0,yes,1366
