acc,accuracy,average_response_time,avg_rt,background,bidi,browser_codename,browser_name,browser_version,canvas_backend,clock_backend,color_backend,compensation,coordinates,count_end,count_experiment,count_osweb,count_prestudy,count_prestudy_isi,count_prestudy_sequence,count_prestudy_stimpres,count_start,count_study,count_study_coroutines,count_study_isi,count_study_logger,count_study_response,count_study_sequence,count_study_start,count_study_stimpres,count_test,count_test_coroutines,count_test_isi,count_test_logger,count_test_response,count_test_sequence,count_test_start,count_test_stimpres,date_startdate,date_startdateUTC,date_starttime,datetime,description,disable_garbage_collection,experiment_debug,experiment_parameters,experiment_path,experiment_pilot,experiment_taskname,experiment_taskversion,fampict,font_bold,font_family,font_italic,font_size,font_underline,foreground,form_clicks,fullscreen,height,jatosStudyResultId,jatosVersion,keyboard_backend,mouse_backend,opensesame_codename,opensesame_version,repeat_cycle,response,response_start,response_study_start,response_test_start,response_time,response_time_start,response_time_study_start,response_time_test_start,round_decimals,sampler_backend,screen_availableHeight,screen_availableWidth,screen_colorDepth,screen_height,screen_pixelDepth,screen_screenX,screen_screenY,screen_width,sessionid,sound_buf_size,sound_channels,sound_freq,sound_sample_size,start,stim,subject_nr,subject_parity,system_os,time_prestudy,time_prestudy_isi,time_prestudy_stimpres,time_start,time_study,time_study_isi,time_study_logger,time_study_response,time_study_start,time_study_stimpres,time_test,time_test_isi,time_test_logger,time_test_response,time_test_start,time_test_stimpres,title,total_correct,total_response_time,total_responses,uniform_coordinates,width
undefined,undefined,undefined,undefined,white,no,Mozilla,Netscape,"5.0 (Windows NT 10.0; Win64; x64) AppleWebKit/537.36 (KHTML, like Gecko) Chrome/98.0.4758.102 Safari/537.36 Edg/98.0.1108.62",xpyriment,legacy,legacy,0,uniform,0,0,0,0,24,24,24,0,0,0,0,0,0,0,0,0,0,,,,,,0,,02-02-22,02-02-22,18:02:52,Wed Mar 02 2022 18:02:52 GMT+0100 (közép-európai téli idő),The main experiment item,yes,0,0,C:/Users/rrics/Documents/!!ResearchBMECOGSCI/gnet,0,0,0,prototype3.png,no,mono,no,18,no,black,no,no,768,1170,3.5.6,legacy,xpyriment,osweb,1.3.13,0,space,space,space,,86507,13828,86507,,2,legacy,728,1366,24,768,24,0,0,1366,1646240610817,1024,2,48000,-16,experiment,p6sarr1.png,0,even,Win32,749,126460,123450,748,749,219529,221042,214536,127979,214536,749,,,,,,visual_patterns,0,0,0,yes,1366
undefined,undefined,undefined,undefined,white,no,Mozilla,Netscape,"5.0 (Windows NT 10.0; Win64; x64) AppleWebKit/537.36 (KHTML, like Gecko) Chrome/98.0.4758.102 Safari/537.36 Edg/98.0.1108.62",xpyriment,legacy,legacy,0,uniform,0,0,0,0,24,24,24,0,0,1,1,1,1,1,0,1,0,,,,,,0,,02-02-22,02-02-22,18:02:52,Wed Mar 02 2022 18:02:52 GMT+0100 (közép-európai téli idő),The main experiment item,yes,0,0,C:/Users/rrics/Documents/!!ResearchBMECOGSCI/gnet,0,0,0,prototype3.png,no,mono,no,18,no,black,no,no,768,1170,3.5.6,legacy,xpyriment,osweb,1.3.13,0,space,space,space,,86507,13828,86507,,2,legacy,728,1366,24,768,24,0,0,1366,1646240610817,1024,2,48000,-16,experiment,prototype3.png,0,even,Win32,749,126460,123450,748,749,226065,227570,221068,127979,221068,749,,,,,,visual_patterns,0,0,0,yes,1366
undefined,undefined,undefined,undefined,white,no,Mozilla,Netscape,"5.0 (Windows NT 10.0; Win64; x64) AppleWebKit/537.36 (KHTML, like Gecko) Chrome/98.0.4758.102 Safari/537.36 Edg/98.0.1108.62",xpyriment,legacy,legacy,0,uniform,0,0,0,0,24,24,24,0,0,2,2,2,2,2,0,2,0,,,,,,0,,02-02-22,02-02-22,18:02:52,Wed Mar 02 2022 18:02:52 GMT+0100 (közép-európai téli idő),The main experiment item,yes,0,0,C:/Users/rrics/Documents/!!ResearchBMECOGSCI/gnet,0,0,0,prototype3.png,no,mono,no,18,no,black,no,no,768,1170,3.5.6,legacy,xpyriment,osweb,1.3.13,0,space,space,space,,86507,13828,86507,,2,legacy,728,1366,24,768,24,0,0,1366,1646240610817,1024,2,48000,-16,experiment,p3sarr1.png,0,even,Win32,749,126460,123450,748,749,232621,234131,227627,127979,227627,749,,,,,,visual_patterns,0,0,0,yes,1366
undefined,undefined,undefined,undefined,white,no,Mozilla,Netscape,"5.0 (Windows NT 10.0; Win64; x64) AppleWebKit/537.36 (KHTML, like Gecko) Chrome/98.0.4758.102 Safari/537.36 Edg/98.0.1108.62",xpyriment,legacy,legacy,0,uniform,0,0,0,0,24,24,24,0,0,3,3,3,3,3,0,3,0,,,,,,0,,02-02-22,02-02-22,18:02:52,Wed Mar 02 2022 18:02:52 GMT+0100 (közép-európai téli idő),The main experiment item,yes,0,0,C:/Users/rrics/Documents/!!ResearchBMECOGSCI/gnet,0,0,0,prototype3.png,no,mono,no,18,no,black,no,no,768,1170,3.5.6,legacy,xpyriment,osweb,1.3.13,0,space,space,space,,86507,13828,86507,,2,legacy,728,1366,24,768,24,0,0,1366,1646240610817,1024,2,48000,-16,experiment,p9sarr2.png,0,even,Win32,749,126460,123450,748,749,239151,240660,234157,127979,234156,749,,,,,,visual_patterns,0,0,0,yes,1366
undefined,undefined,undefined,undefined,white,no,Mozilla,Netscape,"5.0 (Windows NT 10.0; Win64; x64) AppleWebKit/537.36 (KHTML, like Gecko) Chrome/98.0.4758.102 Safari/537.36 Edg/98.0.1108.62",xpyriment,legacy,legacy,0,uniform,0,0,0,0,24,24,24,0,0,4,4,4,4,4,0,4,0,,,,,,0,,02-02-22,02-02-22,18:02:52,Wed Mar 02 2022 18:02:52 GMT+0100 (közép-európai téli idő),The main experiment item,yes,0,0,C:/Users/rrics/Documents/!!ResearchBMECOGSCI/gnet,0,0,0,prototype3.png,no,mono,no,18,no,black,no,no,768,1170,3.5.6,legacy,xpyriment,osweb,1.3.13,0,space,space,space,,86507,13828,86507,,2,legacy,728,1366,24,768,24,0,0,1366,1646240610817,1024,2,48000,-16,experiment,p4sarr2.png,0,even,Win32,749,126460,123450,748,749,245683,247189,240687,127979,240686,749,,,,,,visual_patterns,0,0,0,yes,1366
undefined,undefined,undefined,undefined,white,no,Mozilla,Netscape,"5.0 (Windows NT 10.0; Win64; x64) AppleWebKit/537.36 (KHTML, like Gecko) Chrome/98.0.4758.102 Safari/537.36 Edg/98.0.1108.62",xpyriment,legacy,legacy,0,uniform,0,0,0,0,24,24,24,0,0,5,5,5,5,5,0,5,0,,,,,,0,,02-02-22,02-02-22,18:02:52,Wed Mar 02 2022 18:02:52 GMT+0100 (közép-európai téli idő),The main experiment item,yes,0,0,C:/Users/rrics/Documents/!!ResearchBMECOGSCI/gnet,0,0,0,prototype3.png,no,mono,no,18,no,black,no,no,768,1170,3.5.6,legacy,xpyriment,osweb,1.3.13,0,space,space,space,,86507,13828,86507,,2,legacy,728,1366,24,768,24,0,0,1366,1646240610817,1024,2,48000,-16,experiment,p4sarrshacol2.png,0,even,Win32,749,126460,123450,748,749,252214,253717,247218,127979,247218,749,,,,,,visual_patterns,0,0,0,yes,1366
undefined,undefined,undefined,undefined,white,no,Mozilla,Netscape,"5.0 (Windows NT 10.0; Win64; x64) AppleWebKit/537.36 (KHTML, like Gecko) Chrome/98.0.4758.102 Safari/537.36 Edg/98.0.1108.62",xpyriment,legacy,legacy,0,uniform,0,0,0,0,24,24,24,0,0,6,6,6,6,6,0,6,0,,,,,,0,,02-02-22,02-02-22,18:02:52,Wed Mar 02 2022 18:02:52 GMT+0100 (közép-európai téli idő),The main experiment item,yes,0,0,C:/Users/rrics/Documents/!!ResearchBMECOGSCI/gnet,0,0,0,prototype3.png,no,mono,no,18,no,black,no,no,768,1170,3.5.6,legacy,xpyriment,osweb,1.3.13,0,space,space,space,,86507,13828,86507,,2,legacy,728,1366,24,768,24,0,0,1366,1646240610817,1024,2,48000,-16,experiment,p5sarrsha2.png,0,even,Win32,749,126460,123450,748,749,258739,260245,253745,127979,253745,749,,,,,,visual_patterns,0,0,0,yes,1366
undefined,undefined,undefined,undefined,white,no,Mozilla,Netscape,"5.0 (Windows NT 10.0; Win64; x64) AppleWebKit/537.36 (KHTML, like Gecko) Chrome/98.0.4758.102 Safari/537.36 Edg/98.0.1108.62",xpyriment,legacy,legacy,0,uniform,0,0,0,0,24,24,24,0,0,7,7,7,7,7,0,7,0,,,,,,0,,02-02-22,02-02-22,18:02:52,Wed Mar 02 2022 18:02:52 GMT+0100 (közép-európai téli idő),The main experiment item,yes,0,0,C:/Users/rrics/Documents/!!ResearchBMECOGSCI/gnet,0,0,0,prototype3.png,no,mono,no,18,no,black,no,no,768,1170,3.5.6,legacy,xpyriment,osweb,1.3.13,0,space,space,space,,86507,13828,86507,,2,legacy,728,1366,24,768,24,0,0,1366,1646240610817,1024,2,48000,-16,experiment,p2sarr1.png,0,even,Win32,749,126460,123450,748,749,265269,266774,260272,127979,260272,749,,,,,,visual_patterns,0,0,0,yes,1366
undefined,undefined,undefined,undefined,white,no,Mozilla,Netscape,"5.0 (Windows NT 10.0; Win64; x64) AppleWebKit/537.36 (KHTML, like Gecko) Chrome/98.0.4758.102 Safari/537.36 Edg/98.0.1108.62",xpyriment,legacy,legacy,0,uniform,0,0,0,0,24,24,24,0,0,8,8,8,8,8,0,8,0,,,,,,0,,02-02-22,02-02-22,18:02:52,Wed Mar 02 2022 18:02:52 GMT+0100 (közép-európai téli idő),The main experiment item,yes,0,0,C:/Users/rrics/Documents/!!ResearchBMECOGSCI/gnet,0,0,0,prototype3.png,no,mono,no,18,no,black,no,no,768,1170,3.5.6,legacy,xpyriment,osweb,1.3.13,0,space,space,space,,86507,13828,86507,,2,legacy,728,1366,24,768,24,0,0,1366,1646240610817,1024,2,48000,-16,experiment,prototype4.png,0,even,Win32,749,126460,123450,748,749,271799,273302,266796,127979,266796,749,,,,,,visual_patterns,0,0,0,yes,1366
undefined,undefined,undefined,undefined,white,no,Mozilla,Netscape,"5.0 (Windows NT 10.0; Win64; x64) AppleWebKit/537.36 (KHTML, like Gecko) Chrome/98.0.4758.102 Safari/537.36 Edg/98.0.1108.62",xpyriment,legacy,legacy,0,uniform,0,0,0,0,24,24,24,0,0,9,9,9,9,9,0,9,0,,,,,,0,,02-02-22,02-02-22,18:02:52,Wed Mar 02 2022 18:02:52 GMT+0100 (közép-európai téli idő),The main experiment item,yes,0,0,C:/Users/rrics/Documents/!!ResearchBMECOGSCI/gnet,0,0,0,prototype3.png,no,mono,no,18,no,black,no,no,768,1170,3.5.6,legacy,xpyriment,osweb,1.3.13,0,space,space,space,,86507,13828,86507,,2,legacy,728,1366,24,768,24,0,0,1366,1646240610817,1024,2,48000,-16,experiment,p5sarrsha1.png,0,even,Win32,749,126460,123450,748,749,278320,279830,273327,127979,273327,749,,,,,,visual_patterns,0,0,0,yes,1366
undefined,undefined,undefined,undefined,white,no,Mozilla,Netscape,"5.0 (Windows NT 10.0; Win64; x64) AppleWebKit/537.36 (KHTML, like Gecko) Chrome/98.0.4758.102 Safari/537.36 Edg/98.0.1108.62",xpyriment,legacy,legacy,0,uniform,0,0,0,0,24,24,24,0,0,10,10,10,10,10,0,10,0,,,,,,0,,02-02-22,02-02-22,18:02:52,Wed Mar 02 2022 18:02:52 GMT+0100 (közép-európai téli idő),The main experiment item,yes,0,0,C:/Users/rrics/Documents/!!ResearchBMECOGSCI/gnet,0,0,0,prototype3.png,no,mono,no,18,no,black,no,no,768,1170,3.5.6,legacy,xpyriment,osweb,1.3.13,0,space,space,space,,86507,13828,86507,,2,legacy,728,1366,24,768,24,0,0,1366,1646240610817,1024,2,48000,-16,experiment,p5sarrcol1.png,0,even,Win32,749,126460,123450,748,749,284852,286360,279859,127979,279859,749,,,,,,visual_patterns,0,0,0,yes,1366
undefined,undefined,undefined,undefined,white,no,Mozilla,Netscape,"5.0 (Windows NT 10.0; Win64; x64) AppleWebKit/537.36 (KHTML, like Gecko) Chrome/98.0.4758.102 Safari/537.36 Edg/98.0.1108.62",xpyriment,legacy,legacy,0,uniform,0,0,0,0,24,24,24,0,0,11,11,11,11,11,0,11,0,,,,,,0,,02-02-22,02-02-22,18:02:52,Wed Mar 02 2022 18:02:52 GMT+0100 (közép-európai téli idő),The main experiment item,yes,0,0,C:/Users/rrics/Documents/!!ResearchBMECOGSCI/gnet,0,0,0,prototype3.png,no,mono,no,18,no,black,no,no,768,1170,3.5.6,legacy,xpyriment,osweb,1.3.13,0,space,space,space,,86507,13828,86507,,2,legacy,728,1366,24,768,24,0,0,1366,1646240610817,1024,2,48000,-16,experiment,p8sarr2.png,0,even,Win32,749,126460,123450,748,749,291382,292888,286388,127979,286388,749,,,,,,visual_patterns,0,0,0,yes,1366
undefined,undefined,undefined,undefined,white,no,Mozilla,Netscape,"5.0 (Windows NT 10.0; Win64; x64) AppleWebKit/537.36 (KHTML, like Gecko) Chrome/98.0.4758.102 Safari/537.36 Edg/98.0.1108.62",xpyriment,legacy,legacy,0,uniform,0,0,0,0,24,24,24,0,0,12,12,12,12,12,0,12,0,,,,,,0,,02-02-22,02-02-22,18:02:52,Wed Mar 02 2022 18:02:52 GMT+0100 (közép-európai téli idő),The main experiment item,yes,0,0,C:/Users/rrics/Documents/!!ResearchBMECOGSCI/gnet,0,0,0,prototype3.png,no,mono,no,18,no,black,no,no,768,1170,3.5.6,legacy,xpyriment,osweb,1.3.13,0,space,space,space,,86507,13828,86507,,2,legacy,728,1366,24,768,24,0,0,1366,1646240610817,1024,2,48000,-16,experiment,p5sarrshacol2.png,0,even,Win32,749,126460,123450,748,749,297943,299450,292947,127979,292947,749,,,,,,visual_patterns,0,0,0,yes,1366
undefined,undefined,undefined,undefined,white,no,Mozilla,Netscape,"5.0 (Windows NT 10.0; Win64; x64) AppleWebKit/537.36 (KHTML, like Gecko) Chrome/98.0.4758.102 Safari/537.36 Edg/98.0.1108.62",xpyriment,legacy,legacy,0,uniform,0,0,0,0,24,24,24,0,0,13,13,13,13,13,0,13,0,,,,,,0,,02-02-22,02-02-22,18:02:52,Wed Mar 02 2022 18:02:52 GMT+0100 (közép-európai téli idő),The main experiment item,yes,0,0,C:/Users/rrics/Documents/!!ResearchBMECOGSCI/gnet,0,0,0,prototype3.png,no,mono,no,18,no,black,no,no,768,1170,3.5.6,legacy,xpyriment,osweb,1.3.13,0,space,space,space,,86507,13828,86507,,2,legacy,728,1366,24,768,24,0,0,1366,1646240610817,1024,2,48000,-16,experiment,p8sarr1.png,0,even,Win32,749,126460,123450,748,749,304470,305979,299478,127979,299478,749,,,,,,visual_patterns,0,0,0,yes,1366
undefined,undefined,undefined,undefined,white,no,Mozilla,Netscape,"5.0 (Windows NT 10.0; Win64; x64) AppleWebKit/537.36 (KHTML, like Gecko) Chrome/98.0.4758.102 Safari/537.36 Edg/98.0.1108.62",xpyriment,legacy,legacy,0,uniform,0,0,0,0,24,24,24,0,0,14,14,14,14,14,0,14,0,,,,,,0,,02-02-22,02-02-22,18:02:52,Wed Mar 02 2022 18:02:52 GMT+0100 (közép-európai téli idő),The main experiment item,yes,0,0,C:/Users/rrics/Documents/!!ResearchBMECOGSCI/gnet,0,0,0,prototype3.png,no,mono,no,18,no,black,no,no,768,1170,3.5.6,legacy,xpyriment,osweb,1.3.13,0,space,space,space,,86507,13828,86507,,2,legacy,728,1366,24,768,24,0,0,1366,1646240610817,1024,2,48000,-16,experiment,p3sarrcol1.png,0,even,Win32,749,126460,123450,748,749,311000,312507,306004,127979,306004,749,,,,,,visual_patterns,0,0,0,yes,1366
undefined,undefined,undefined,undefined,white,no,Mozilla,Netscape,"5.0 (Windows NT 10.0; Win64; x64) AppleWebKit/537.36 (KHTML, like Gecko) Chrome/98.0.4758.102 Safari/537.36 Edg/98.0.1108.62",xpyriment,legacy,legacy,0,uniform,0,0,0,0,24,24,24,0,0,15,15,15,15,15,0,15,0,,,,,,0,,02-02-22,02-02-22,18:02:52,Wed Mar 02 2022 18:02:52 GMT+0100 (közép-európai téli idő),The main experiment item,yes,0,0,C:/Users/rrics/Documents/!!ResearchBMECOGSCI/gnet,0,0,0,prototype3.png,no,mono,no,18,no,black,no,no,768,1170,3.5.6,legacy,xpyriment,osweb,1.3.13,0,space,space,space,,86507,13828,86507,,2,legacy,728,1366,24,768,24,0,0,1366,1646240610817,1024,2,48000,-16,experiment,prototype1.png,0,even,Win32,749,126460,123450,748,749,317527,319036,312529,127979,312529,749,,,,,,visual_patterns,0,0,0,yes,1366
undefined,undefined,undefined,undefined,white,no,Mozilla,Netscape,"5.0 (Windows NT 10.0; Win64; x64) AppleWebKit/537.36 (KHTML, like Gecko) Chrome/98.0.4758.102 Safari/537.36 Edg/98.0.1108.62",xpyriment,legacy,legacy,0,uniform,0,0,0,0,24,24,24,0,0,16,16,16,16,16,0,16,0,,,,,,0,,02-02-22,02-02-22,18:02:52,Wed Mar 02 2022 18:02:52 GMT+0100 (közép-európai téli idő),The main experiment item,yes,0,0,C:/Users/rrics/Documents/!!ResearchBMECOGSCI/gnet,0,0,0,prototype3.png,no,mono,no,18,no,black,no,no,768,1170,3.5.6,legacy,xpyriment,osweb,1.3.13,0,space,space,space,,86507,13828,86507,,2,legacy,728,1366,24,768,24,0,0,1366,1646240610817,1024,2,48000,-16,experiment,p2sarr2.png,0,even,Win32,749,126460,123450,748,749,324055,325564,319062,127979,319062,749,,,,,,visual_patterns,0,0,0,yes,1366
undefined,undefined,undefined,undefined,white,no,Mozilla,Netscape,"5.0 (Windows NT 10.0; Win64; x64) AppleWebKit/537.36 (KHTML, like Gecko) Chrome/98.0.4758.102 Safari/537.36 Edg/98.0.1108.62",xpyriment,legacy,legacy,0,uniform,0,0,0,0,24,24,24,0,0,17,17,17,17,17,0,17,0,,,,,,0,,02-02-22,02-02-22,18:02:52,Wed Mar 02 2022 18:02:52 GMT+0100 (közép-európai téli idő),The main experiment item,yes,0,0,C:/Users/rrics/Documents/!!ResearchBMECOGSCI/gnet,0,0,0,prototype3.png,no,mono,no,18,no,black,no,no,768,1170,3.5.6,legacy,xpyriment,osweb,1.3.13,0,space,space,space,,86507,13828,86507,,2,legacy,728,1366,24,768,24,0,0,1366,1646240610817,1024,2,48000,-16,experiment,p3sarrsha2.png,0,even,Win32,749,126460,123450,748,749,330586,332093,325589,127979,325589,749,,,,,,visual_patterns,0,0,0,yes,1366
undefined,undefined,undefined,undefined,white,no,Mozilla,Netscape,"5.0 (Windows NT 10.0; Win64; x64) AppleWebKit/537.36 (KHTML, like Gecko) Chrome/98.0.4758.102 Safari/537.36 Edg/98.0.1108.62",xpyriment,legacy,legacy,0,uniform,0,0,0,0,24,24,24,0,0,18,18,18,18,18,0,18,0,,,,,,0,,02-02-22,02-02-22,18:02:52,Wed Mar 02 2022 18:02:52 GMT+0100 (közép-európai téli idő),The main experiment item,yes,0,0,C:/Users/rrics/Documents/!!ResearchBMECOGSCI/gnet,0,0,0,prototype3.png,no,mono,no,18,no,black,no,no,768,1170,3.5.6,legacy,xpyriment,osweb,1.3.13,0,space,space,space,,86507,13828,86507,,2,legacy,728,1366,24,768,24,0,0,1366,1646240610817,1024,2,48000,-16,experiment,prototype4.png,0,even,Win32,749,126460,123450,748,749,337112,338622,332116,127979,332116,749,,,,,,visual_patterns,0,0,0,yes,1366
undefined,undefined,undefined,undefined,white,no,Mozilla,Netscape,"5.0 (Windows NT 10.0; Win64; x64) AppleWebKit/537.36 (KHTML, like Gecko) Chrome/98.0.4758.102 Safari/537.36 Edg/98.0.1108.62",xpyriment,legacy,legacy,0,uniform,0,0,0,0,24,24,24,0,0,19,19,19,19,19,0,19,0,,,,,,0,,02-02-22,02-02-22,18:02:52,Wed Mar 02 2022 18:02:52 GMT+0100 (közép-európai téli idő),The main experiment item,yes,0,0,C:/Users/rrics/Documents/!!ResearchBMECOGSCI/gnet,0,0,0,prototype3.png,no,mono,no,18,no,black,no,no,768,1170,3.5.6,legacy,xpyriment,osweb,1.3.13,0,space,space,space,,86507,13828,86507,,2,legacy,728,1366,24,768,24,0,0,1366,1646240610817,1024,2,48000,-16,experiment,p3sarrsha1.png,0,even,Win32,749,126460,123450,748,749,343643,345150,338648,127979,338648,749,,,,,,visual_patterns,0,0,0,yes,1366
undefined,undefined,undefined,undefined,white,no,Mozilla,Netscape,"5.0 (Windows NT 10.0; Win64; x64) AppleWebKit/537.36 (KHTML, like Gecko) Chrome/98.0.4758.102 Safari/537.36 Edg/98.0.1108.62",xpyriment,legacy,legacy,0,uniform,0,0,0,0,24,24,24,0,0,20,20,20,20,20,0,20,0,,,,,,0,,02-02-22,02-02-22,18:02:52,Wed Mar 02 2022 18:02:52 GMT+0100 (közép-európai téli idő),The main experiment item,yes,0,0,C:/Users/rrics/Documents/!!ResearchBMECOGSCI/gnet,0,0,0,prototype3.png,no,mono,no,18,no,black,no,no,768,1170,3.5.6,legacy,xpyriment,osweb,1.3.13,0,space,space,space,,86507,13828,86507,,2,legacy,728,1366,24,768,24,0,0,1366,1646240610817,1024,2,48000,-16,experiment,prototype2.png,0,even,Win32,749,126460,123450,748,749,350172,351678,345171,127979,345170,749,,,,,,visual_patterns,0,0,0,yes,1366
undefined,undefined,undefined,undefined,white,no,Mozilla,Netscape,"5.0 (Windows NT 10.0; Win64; x64) AppleWebKit/537.36 (KHTML, like Gecko) Chrome/98.0.4758.102 Safari/537.36 Edg/98.0.1108.62",xpyriment,legacy,legacy,0,uniform,0,0,0,0,24,24,24,0,0,21,21,21,21,21,0,21,0,,,,,,0,,02-02-22,02-02-22,18:02:52,Wed Mar 02 2022 18:02:52 GMT+0100 (közép-európai téli idő),The main experiment item,yes,0,0,C:/Users/rrics/Documents/!!ResearchBMECOGSCI/gnet,0,0,0,prototype3.png,no,mono,no,18,no,black,no,no,768,1170,3.5.6,legacy,xpyriment,osweb,1.3.13,0,space,space,space,,86507,13828,86507,,2,legacy,728,1366,24,768,24,0,0,1366,1646240610817,1024,2,48000,-16,experiment,p4sarrcol2.png,0,even,Win32,749,126460,123450,748,749,356701,358207,351706,127979,351705,749,,,,,,visual_patterns,0,0,0,yes,1366
undefined,undefined,undefined,undefined,white,no,Mozilla,Netscape,"5.0 (Windows NT 10.0; Win64; x64) AppleWebKit/537.36 (KHTML, like Gecko) Chrome/98.0.4758.102 Safari/537.36 Edg/98.0.1108.62",xpyriment,legacy,legacy,0,uniform,0,0,0,0,24,24,24,0,0,22,22,22,22,22,0,22,0,,,,,,0,,02-02-22,02-02-22,18:02:52,Wed Mar 02 2022 18:02:52 GMT+0100 (közép-európai téli idő),The main experiment item,yes,0,0,C:/Users/rrics/Documents/!!ResearchBMECOGSCI/gnet,0,0,0,prototype3.png,no,mono,no,18,no,black,no,no,768,1170,3.5.6,legacy,xpyriment,osweb,1.3.13,0,space,space,space,,86507,13828,86507,,2,legacy,728,1366,24,768,24,0,0,1366,1646240610817,1024,2,48000,-16,experiment,p5sarrshacol1.png,0,even,Win32,749,126460,123450,748,749,363255,364769,358265,127979,358264,749,,,,,,visual_patterns,0,0,0,yes,1366
undefined,undefined,undefined,undefined,white,no,Mozilla,Netscape,"5.0 (Windows NT 10.0; Win64; x64) AppleWebKit/537.36 (KHTML, like Gecko) Chrome/98.0.4758.102 Safari/537.36 Edg/98.0.1108.62",xpyriment,legacy,legacy,0,uniform,0,0,0,0,24,24,24,0,0,23,23,23,23,23,0,23,0,,,,,,0,,02-02-22,02-02-22,18:02:52,Wed Mar 02 2022 18:02:52 GMT+0100 (közép-európai téli idő),The main experiment item,yes,0,0,C:/Users/rrics/Documents/!!ResearchBMECOGSCI/gnet,0,0,0,prototype3.png,no,mono,no,18,no,black,no,no,768,1170,3.5.6,legacy,xpyriment,osweb,1.3.13,0,space,space,space,,86507,13828,86507,,2,legacy,728,1366,24,768,24,0,0,1366,1646240610817,1024,2,48000,-16,experiment,prototype2.png,0,even,Win32,749,126460,123450,748,749,369789,371297,364789,127979,364789,749,,,,,,visual_patterns,0,0,0,yes,1366
undefined,undefined,undefined,undefined,white,no,Mozilla,Netscape,"5.0 (Windows NT 10.0; Win64; x64) AppleWebKit/537.36 (KHTML, like Gecko) Chrome/98.0.4758.102 Safari/537.36 Edg/98.0.1108.62",xpyriment,legacy,legacy,0,uniform,0,0,0,0,24,24,24,0,0,24,24,24,24,24,0,24,0,,,,,,0,,02-02-22,02-02-22,18:02:52,Wed Mar 02 2022 18:02:52 GMT+0100 (közép-európai téli idő),The main experiment item,yes,0,0,C:/Users/rrics/Documents/!!ResearchBMECOGSCI/gnet,0,0,0,prototype3.png,no,mono,no,18,no,black,no,no,768,1170,3.5.6,legacy,xpyriment,osweb,1.3.13,0,space,space,space,,86507,13828,86507,,2,legacy,728,1366,24,768,24,0,0,1366,1646240610817,1024,2,48000,-16,experiment,p4sarrsha2.png,0,even,Win32,749,126460,123450,748,749,376319,377826,371325,127979,371324,749,,,,,,visual_patterns,0,0,0,yes,1366
undefined,undefined,undefined,undefined,white,no,Mozilla,Netscape,"5.0 (Windows NT 10.0; Win64; x64) AppleWebKit/537.36 (KHTML, like Gecko) Chrome/98.0.4758.102 Safari/537.36 Edg/98.0.1108.62",xpyriment,legacy,legacy,0,uniform,0,0,0,0,24,24,24,0,0,25,25,25,25,25,0,25,0,,,,,,0,,02-02-22,02-02-22,18:02:52,Wed Mar 02 2022 18:02:52 GMT+0100 (közép-európai téli idő),The main experiment item,yes,0,0,C:/Users/rrics/Documents/!!ResearchBMECOGSCI/gnet,0,0,0,prototype3.png,no,mono,no,18,no,black,no,no,768,1170,3.5.6,legacy,xpyriment,osweb,1.3.13,0,space,space,space,,86507,13828,86507,,2,legacy,728,1366,24,768,24,0,0,1366,1646240610817,1024,2,48000,-16,experiment,p9sarr1.png,0,even,Win32,749,126460,123450,748,749,382844,384354,377852,127979,377852,749,,,,,,visual_patterns,0,0,0,yes,1366
undefined,undefined,undefined,undefined,white,no,Mozilla,Netscape,"5.0 (Windows NT 10.0; Win64; x64) AppleWebKit/537.36 (KHTML, like Gecko) Chrome/98.0.4758.102 Safari/537.36 Edg/98.0.1108.62",xpyriment,legacy,legacy,0,uniform,0,0,0,0,24,24,24,0,0,26,26,26,26,26,0,26,0,,,,,,0,,02-02-22,02-02-22,18:02:52,Wed Mar 02 2022 18:02:52 GMT+0100 (közép-európai téli idő),The main experiment item,yes,0,0,C:/Users/rrics/Documents/!!ResearchBMECOGSCI/gnet,0,0,0,prototype3.png,no,mono,no,18,no,black,no,no,768,1170,3.5.6,legacy,xpyriment,osweb,1.3.13,0,space,space,space,,86507,13828,86507,,2,legacy,728,1366,24,768,24,0,0,1366,1646240610817,1024,2,48000,-16,experiment,prototype1.png,0,even,Win32,749,126460,123450,748,749,389374,390883,384375,127979,384375,749,,,,,,visual_patterns,0,0,0,yes,1366
undefined,undefined,undefined,undefined,white,no,Mozilla,Netscape,"5.0 (Windows NT 10.0; Win64; x64) AppleWebKit/537.36 (KHTML, like Gecko) Chrome/98.0.4758.102 Safari/537.36 Edg/98.0.1108.62",xpyriment,legacy,legacy,0,uniform,0,0,0,0,24,24,24,0,0,27,27,27,27,27,0,27,0,,,,,,0,,02-02-22,02-02-22,18:02:52,Wed Mar 02 2022 18:02:52 GMT+0100 (közép-európai téli idő),The main experiment item,yes,0,0,C:/Users/rrics/Documents/!!ResearchBMECOGSCI/gnet,0,0,0,prototype3.png,no,mono,no,18,no,black,no,no,768,1170,3.5.6,legacy,xpyriment,osweb,1.3.13,0,space,space,space,,86507,13828,86507,,2,legacy,728,1366,24,768,24,0,0,1366,1646240610817,1024,2,48000,-16,experiment,p4sarrcol1.png,0,even,Win32,749,126460,123450,748,749,395900,397412,390909,127979,390909,749,,,,,,visual_patterns,0,0,0,yes,1366
undefined,undefined,undefined,undefined,white,no,Mozilla,Netscape,"5.0 (Windows NT 10.0; Win64; x64) AppleWebKit/537.36 (KHTML, like Gecko) Chrome/98.0.4758.102 Safari/537.36 Edg/98.0.1108.62",xpyriment,legacy,legacy,0,uniform,0,0,0,0,24,24,24,0,0,28,28,28,28,28,0,28,0,,,,,,0,,02-02-22,02-02-22,18:02:52,Wed Mar 02 2022 18:02:52 GMT+0100 (közép-európai téli idő),The main experiment item,yes,0,0,C:/Users/rrics/Documents/!!ResearchBMECOGSCI/gnet,0,0,0,prototype3.png,no,mono,no,18,no,black,no,no,768,1170,3.5.6,legacy,xpyriment,osweb,1.3.13,0,space,space,space,,86507,13828,86507,,2,legacy,728,1366,24,768,24,0,0,1366,1646240610817,1024,2,48000,-16,experiment,prototype4.png,0,even,Win32,749,126460,123450,748,749,402434,403939,397434,127979,397434,749,,,,,,visual_patterns,0,0,0,yes,1366
undefined,undefined,undefined,undefined,white,no,Mozilla,Netscape,"5.0 (Windows NT 10.0; Win64; x64) AppleWebKit/537.36 (KHTML, like Gecko) Chrome/98.0.4758.102 Safari/537.36 Edg/98.0.1108.62",xpyriment,legacy,legacy,0,uniform,0,0,0,0,24,24,24,0,0,29,29,29,29,29,0,29,0,,,,,,0,,02-02-22,02-02-22,18:02:52,Wed Mar 02 2022 18:02:52 GMT+0100 (közép-európai téli idő),The main experiment item,yes,0,0,C:/Users/rrics/Documents/!!ResearchBMECOGSCI/gnet,0,0,0,prototype3.png,no,mono,no,18,no,black,no,no,768,1170,3.5.6,legacy,xpyriment,osweb,1.3.13,0,space,space,space,,86507,13828,86507,,2,legacy,728,1366,24,768,24,0,0,1366,1646240610817,1024,2,48000,-16,experiment,prototype5.png,0,even,Win32,749,126460,123450,748,749,408962,410468,403960,127979,403960,749,,,,,,visual_patterns,0,0,0,yes,1366
undefined,undefined,undefined,undefined,white,no,Mozilla,Netscape,"5.0 (Windows NT 10.0; Win64; x64) AppleWebKit/537.36 (KHTML, like Gecko) Chrome/98.0.4758.102 Safari/537.36 Edg/98.0.1108.62",xpyriment,legacy,legacy,0,uniform,0,0,0,0,24,24,24,0,0,30,30,30,30,30,0,30,0,,,,,,0,,02-02-22,02-02-22,18:02:52,Wed Mar 02 2022 18:02:52 GMT+0100 (közép-európai téli idő),The main experiment item,yes,0,0,C:/Users/rrics/Documents/!!ResearchBMECOGSCI/gnet,0,0,0,prototype3.png,no,mono,no,18,no,black,no,no,768,1170,3.5.6,legacy,xpyriment,osweb,1.3.13,0,space,space,space,,86507,13828,86507,,2,legacy,728,1366,24,768,24,0,0,1366,1646240610817,1024,2,48000,-16,experiment,p5sarrcol2.png,0,even,Win32,749,126460,123450,748,749,415489,416997,410493,127979,410493,749,,,,,,visual_patterns,0,0,0,yes,1366
undefined,undefined,undefined,undefined,white,no,Mozilla,Netscape,"5.0 (Windows NT 10.0; Win64; x64) AppleWebKit/537.36 (KHTML, like Gecko) Chrome/98.0.4758.102 Safari/537.36 Edg/98.0.1108.62",xpyriment,legacy,legacy,0,uniform,0,0,0,0,24,24,24,0,0,31,31,31,31,31,0,31,0,,,,,,0,,02-02-22,02-02-22,18:02:52,Wed Mar 02 2022 18:02:52 GMT+0100 (közép-európai téli idő),The main experiment item,yes,0,0,C:/Users/rrics/Documents/!!ResearchBMECOGSCI/gnet,0,0,0,prototype3.png,no,mono,no,18,no,black,no,no,768,1170,3.5.6,legacy,xpyriment,osweb,1.3.13,0,space,space,space,,86507,13828,86507,,2,legacy,728,1366,24,768,24,0,0,1366,1646240610817,1024,2,48000,-16,experiment,p2sarrsha2.png,0,even,Win32,749,126460,123450,748,749,422016,423526,417036,127979,417036,749,,,,,,visual_patterns,0,0,0,yes,1366
undefined,undefined,undefined,undefined,white,no,Mozilla,Netscape,"5.0 (Windows NT 10.0; Win64; x64) AppleWebKit/537.36 (KHTML, like Gecko) Chrome/98.0.4758.102 Safari/537.36 Edg/98.0.1108.62",xpyriment,legacy,legacy,0,uniform,0,0,0,0,24,24,24,0,0,32,32,32,32,32,0,32,0,,,,,,0,,02-02-22,02-02-22,18:02:52,Wed Mar 02 2022 18:02:52 GMT+0100 (közép-európai téli idő),The main experiment item,yes,0,0,C:/Users/rrics/Documents/!!ResearchBMECOGSCI/gnet,0,0,0,prototype3.png,no,mono,no,18,no,black,no,no,768,1170,3.5.6,legacy,xpyriment,osweb,1.3.13,0,space,space,space,,86507,13828,86507,,2,legacy,728,1366,24,768,24,0,0,1366,1646240610817,1024,2,48000,-16,experiment,p5sarr1.png,0,even,Win32,749,126460,123450,748,749,428548,430055,423554,127979,423553,749,,,,,,visual_patterns,0,0,0,yes,1366
undefined,undefined,undefined,undefined,white,no,Mozilla,Netscape,"5.0 (Windows NT 10.0; Win64; x64) AppleWebKit/537.36 (KHTML, like Gecko) Chrome/98.0.4758.102 Safari/537.36 Edg/98.0.1108.62",xpyriment,legacy,legacy,0,uniform,0,0,0,0,24,24,24,0,0,33,33,33,33,33,0,33,0,,,,,,0,,02-02-22,02-02-22,18:02:52,Wed Mar 02 2022 18:02:52 GMT+0100 (közép-európai téli idő),The main experiment item,yes,0,0,C:/Users/rrics/Documents/!!ResearchBMECOGSCI/gnet,0,0,0,prototype3.png,no,mono,no,18,no,black,no,no,768,1170,3.5.6,legacy,xpyriment,osweb,1.3.13,0,space,space,space,,86507,13828,86507,,2,legacy,728,1366,24,768,24,0,0,1366,1646240610817,1024,2,48000,-16,experiment,p3sarrshacol1.png,0,even,Win32,749,126460,123450,748,749,435077,436583,430082,127979,430082,749,,,,,,visual_patterns,0,0,0,yes,1366
undefined,undefined,undefined,undefined,white,no,Mozilla,Netscape,"5.0 (Windows NT 10.0; Win64; x64) AppleWebKit/537.36 (KHTML, like Gecko) Chrome/98.0.4758.102 Safari/537.36 Edg/98.0.1108.62",xpyriment,legacy,legacy,0,uniform,0,0,0,0,24,24,24,0,0,34,34,34,34,34,0,34,0,,,,,,0,,02-02-22,02-02-22,18:02:52,Wed Mar 02 2022 18:02:52 GMT+0100 (közép-európai téli idő),The main experiment item,yes,0,0,C:/Users/rrics/Documents/!!ResearchBMECOGSCI/gnet,0,0,0,prototype3.png,no,mono,no,18,no,black,no,no,768,1170,3.5.6,legacy,xpyriment,osweb,1.3.13,0,space,space,space,,86507,13828,86507,,2,legacy,728,1366,24,768,24,0,0,1366,1646240610817,1024,2,48000,-16,experiment,prototype1.png,0,even,Win32,749,126460,123450,748,749,441604,443112,436605,127979,436605,749,,,,,,visual_patterns,0,0,0,yes,1366
undefined,undefined,undefined,undefined,white,no,Mozilla,Netscape,"5.0 (Windows NT 10.0; Win64; x64) AppleWebKit/537.36 (KHTML, like Gecko) Chrome/98.0.4758.102 Safari/537.36 Edg/98.0.1108.62",xpyriment,legacy,legacy,0,uniform,0,0,0,0,24,24,24,0,0,35,35,35,35,35,0,35,0,,,,,,0,,02-02-22,02-02-22,18:02:52,Wed Mar 02 2022 18:02:52 GMT+0100 (közép-európai téli idő),The main experiment item,yes,0,0,C:/Users/rrics/Documents/!!ResearchBMECOGSCI/gnet,0,0,0,prototype3.png,no,mono,no,18,no,black,no,no,768,1170,3.5.6,legacy,xpyriment,osweb,1.3.13,0,space,space,space,,86507,13828,86507,,2,legacy,728,1366,24,768,24,0,0,1366,1646240610817,1024,2,48000,-16,experiment,p4sarrshacol1.png,0,even,Win32,749,126460,123450,748,749,448131,449640,443136,127979,443136,749,,,,,,visual_patterns,0,0,0,yes,1366
undefined,undefined,undefined,undefined,white,no,Mozilla,Netscape,"5.0 (Windows NT 10.0; Win64; x64) AppleWebKit/537.36 (KHTML, like Gecko) Chrome/98.0.4758.102 Safari/537.36 Edg/98.0.1108.62",xpyriment,legacy,legacy,0,uniform,0,0,0,0,24,24,24,0,0,36,36,36,36,36,0,36,0,,,,,,0,,02-02-22,02-02-22,18:02:52,Wed Mar 02 2022 18:02:52 GMT+0100 (közép-európai téli idő),The main experiment item,yes,0,0,C:/Users/rrics/Documents/!!ResearchBMECOGSCI/gnet,0,0,0,prototype3.png,no,mono,no,18,no,black,no,no,768,1170,3.5.6,legacy,xpyriment,osweb,1.3.13,0,space,space,space,,86507,13828,86507,,2,legacy,728,1366,24,768,24,0,0,1366,1646240610817,1024,2,48000,-16,experiment,prototype3.png,0,even,Win32,749,126460,123450,748,749,454661,456169,449662,127979,449662,749,,,,,,visual_patterns,0,0,0,yes,1366
undefined,undefined,undefined,undefined,white,no,Mozilla,Netscape,"5.0 (Windows NT 10.0; Win64; x64) AppleWebKit/537.36 (KHTML, like Gecko) Chrome/98.0.4758.102 Safari/537.36 Edg/98.0.1108.62",xpyriment,legacy,legacy,0,uniform,0,0,0,0,24,24,24,0,0,37,37,37,37,37,0,37,0,,,,,,0,,02-02-22,02-02-22,18:02:52,Wed Mar 02 2022 18:02:52 GMT+0100 (közép-európai téli idő),The main experiment item,yes,0,0,C:/Users/rrics/Documents/!!ResearchBMECOGSCI/gnet,0,0,0,prototype3.png,no,mono,no,18,no,black,no,no,768,1170,3.5.6,legacy,xpyriment,osweb,1.3.13,0,space,space,space,,86507,13828,86507,,2,legacy,728,1366,24,768,24,0,0,1366,1646240610817,1024,2,48000,-16,experiment,prototype3.png,0,even,Win32,749,126460,123450,748,749,461189,462697,456189,127979,456189,749,,,,,,visual_patterns,0,0,0,yes,1366
undefined,undefined,undefined,undefined,white,no,Mozilla,Netscape,"5.0 (Windows NT 10.0; Win64; x64) AppleWebKit/537.36 (KHTML, like Gecko) Chrome/98.0.4758.102 Safari/537.36 Edg/98.0.1108.62",xpyriment,legacy,legacy,0,uniform,0,0,0,0,24,24,24,0,0,38,38,38,38,38,0,38,0,,,,,,0,,02-02-22,02-02-22,18:02:52,Wed Mar 02 2022 18:02:52 GMT+0100 (közép-európai téli idő),The main experiment item,yes,0,0,C:/Users/rrics/Documents/!!ResearchBMECOGSCI/gnet,0,0,0,prototype3.png,no,mono,no,18,no,black,no,no,768,1170,3.5.6,legacy,xpyriment,osweb,1.3.13,0,space,space,space,,86507,13828,86507,,2,legacy,728,1366,24,768,24,0,0,1366,1646240610817,1024,2,48000,-16,experiment,p7sarr1.png,0,even,Win32,749,126460,123450,748,749,467717,469226,462725,127979,462725,749,,,,,,visual_patterns,0,0,0,yes,1366
undefined,undefined,undefined,undefined,white,no,Mozilla,Netscape,"5.0 (Windows NT 10.0; Win64; x64) AppleWebKit/537.36 (KHTML, like Gecko) Chrome/98.0.4758.102 Safari/537.36 Edg/98.0.1108.62",xpyriment,legacy,legacy,0,uniform,0,0,0,0,24,24,24,0,0,39,39,39,39,39,0,39,0,,,,,,0,,02-02-22,02-02-22,18:02:52,Wed Mar 02 2022 18:02:52 GMT+0100 (közép-európai téli idő),The main experiment item,yes,0,0,C:/Users/rrics/Documents/!!ResearchBMECOGSCI/gnet,0,0,0,prototype3.png,no,mono,no,18,no,black,no,no,768,1170,3.5.6,legacy,xpyriment,osweb,1.3.13,0,space,space,space,,86507,13828,86507,,2,legacy,728,1366,24,768,24,0,0,1366,1646240610817,1024,2,48000,-16,experiment,p1sarrsha1.png,0,even,Win32,749,126460,123450,748,749,474244,475754,469251,127979,469251,749,,,,,,visual_patterns,0,0,0,yes,1366
undefined,undefined,undefined,undefined,white,no,Mozilla,Netscape,"5.0 (Windows NT 10.0; Win64; x64) AppleWebKit/537.36 (KHTML, like Gecko) Chrome/98.0.4758.102 Safari/537.36 Edg/98.0.1108.62",xpyriment,legacy,legacy,0,uniform,0,0,0,0,24,24,24,0,0,40,40,40,40,40,0,40,0,,,,,,0,,02-02-22,02-02-22,18:02:52,Wed Mar 02 2022 18:02:52 GMT+0100 (közép-európai téli idő),The main experiment item,yes,0,0,C:/Users/rrics/Documents/!!ResearchBMECOGSCI/gnet,0,0,0,prototype3.png,no,mono,no,18,no,black,no,no,768,1170,3.5.6,legacy,xpyriment,osweb,1.3.13,0,space,space,space,,86507,13828,86507,,2,legacy,728,1366,24,768,24,0,0,1366,1646240610817,1024,2,48000,-16,experiment,prototype5.png,0,even,Win32,749,126460,123450,748,749,480775,482283,475774,127979,475774,749,,,,,,visual_patterns,0,0,0,yes,1366
undefined,undefined,undefined,undefined,white,no,Mozilla,Netscape,"5.0 (Windows NT 10.0; Win64; x64) AppleWebKit/537.36 (KHTML, like Gecko) Chrome/98.0.4758.102 Safari/537.36 Edg/98.0.1108.62",xpyriment,legacy,legacy,0,uniform,0,0,0,0,24,24,24,0,0,41,41,41,41,41,0,41,0,,,,,,0,,02-02-22,02-02-22,18:02:52,Wed Mar 02 2022 18:02:52 GMT+0100 (közép-európai téli idő),The main experiment item,yes,0,0,C:/Users/rrics/Documents/!!ResearchBMECOGSCI/gnet,0,0,0,prototype3.png,no,mono,no,18,no,black,no,no,768,1170,3.5.6,legacy,xpyriment,osweb,1.3.13,0,space,space,space,,86507,13828,86507,,2,legacy,728,1366,24,768,24,0,0,1366,1646240610817,1024,2,48000,-16,experiment,p3sarrshacol2.png,0,even,Win32,749,126460,123450,748,749,487303,488811,482312,127979,482312,749,,,,,,visual_patterns,0,0,0,yes,1366
undefined,undefined,undefined,undefined,white,no,Mozilla,Netscape,"5.0 (Windows NT 10.0; Win64; x64) AppleWebKit/537.36 (KHTML, like Gecko) Chrome/98.0.4758.102 Safari/537.36 Edg/98.0.1108.62",xpyriment,legacy,legacy,0,uniform,0,0,0,0,24,24,24,0,0,42,42,42,42,42,0,42,0,,,,,,0,,02-02-22,02-02-22,18:02:52,Wed Mar 02 2022 18:02:52 GMT+0100 (közép-európai téli idő),The main experiment item,yes,0,0,C:/Users/rrics/Documents/!!ResearchBMECOGSCI/gnet,0,0,0,prototype3.png,no,mono,no,18,no,black,no,no,768,1170,3.5.6,legacy,xpyriment,osweb,1.3.13,0,space,space,space,,86507,13828,86507,,2,legacy,728,1366,24,768,24,0,0,1366,1646240610817,1024,2,48000,-16,experiment,p3sarrcol2.png,0,even,Win32,749,126460,123450,748,749,493869,495373,488877,127979,488877,749,,,,,,visual_patterns,0,0,0,yes,1366
undefined,undefined,undefined,undefined,white,no,Mozilla,Netscape,"5.0 (Windows NT 10.0; Win64; x64) AppleWebKit/537.36 (KHTML, like Gecko) Chrome/98.0.4758.102 Safari/537.36 Edg/98.0.1108.62",xpyriment,legacy,legacy,0,uniform,0,0,0,0,24,24,24,0,0,43,43,43,43,43,0,43,0,,,,,,0,,02-02-22,02-02-22,18:02:52,Wed Mar 02 2022 18:02:52 GMT+0100 (közép-európai téli idő),The main experiment item,yes,0,0,C:/Users/rrics/Documents/!!ResearchBMECOGSCI/gnet,0,0,0,prototype3.png,no,mono,no,18,no,black,no,no,768,1170,3.5.6,legacy,xpyriment,osweb,1.3.13,0,space,space,space,,86507,13828,86507,,2,legacy,728,1366,24,768,24,0,0,1366,1646240610817,1024,2,48000,-16,experiment,p3sarr2.png,0,even,Win32,749,126460,123450,748,749,500397,501902,495399,127979,495399,749,,,,,,visual_patterns,0,0,0,yes,1366
undefined,undefined,undefined,undefined,white,no,Mozilla,Netscape,"5.0 (Windows NT 10.0; Win64; x64) AppleWebKit/537.36 (KHTML, like Gecko) Chrome/98.0.4758.102 Safari/537.36 Edg/98.0.1108.62",xpyriment,legacy,legacy,0,uniform,0,0,0,0,24,24,24,0,0,44,44,44,44,44,0,44,0,,,,,,0,,02-02-22,02-02-22,18:02:52,Wed Mar 02 2022 18:02:52 GMT+0100 (közép-európai téli idő),The main experiment item,yes,0,0,C:/Users/rrics/Documents/!!ResearchBMECOGSCI/gnet,0,0,0,prototype3.png,no,mono,no,18,no,black,no,no,768,1170,3.5.6,legacy,xpyriment,osweb,1.3.13,0,space,space,space,,86507,13828,86507,,2,legacy,728,1366,24,768,24,0,0,1366,1646240610817,1024,2,48000,-16,experiment,p2sarrsha1.png,0,even,Win32,749,126460,123450,748,749,506924,508430,501927,127979,501927,749,,,,,,visual_patterns,0,0,0,yes,1366
undefined,undefined,undefined,undefined,white,no,Mozilla,Netscape,"5.0 (Windows NT 10.0; Win64; x64) AppleWebKit/537.36 (KHTML, like Gecko) Chrome/98.0.4758.102 Safari/537.36 Edg/98.0.1108.62",xpyriment,legacy,legacy,0,uniform,0,0,0,0,24,24,24,0,0,45,45,45,45,45,0,45,0,,,,,,0,,02-02-22,02-02-22,18:02:52,Wed Mar 02 2022 18:02:52 GMT+0100 (közép-európai téli idő),The main experiment item,yes,0,0,C:/Users/rrics/Documents/!!ResearchBMECOGSCI/gnet,0,0,0,prototype3.png,no,mono,no,18,no,black,no,no,768,1170,3.5.6,legacy,xpyriment,osweb,1.3.13,0,space,space,space,,86507,13828,86507,,2,legacy,728,1366,24,768,24,0,0,1366,1646240610817,1024,2,48000,-16,experiment,p4sarrsha1.png,0,even,Win32,749,126460,123450,748,749,513451,514959,508457,127979,508457,749,,,,,,visual_patterns,0,0,0,yes,1366
undefined,undefined,undefined,undefined,white,no,Mozilla,Netscape,"5.0 (Windows NT 10.0; Win64; x64) AppleWebKit/537.36 (KHTML, like Gecko) Chrome/98.0.4758.102 Safari/537.36 Edg/98.0.1108.62",xpyriment,legacy,legacy,0,uniform,0,0,0,0,24,24,24,0,0,46,46,46,46,46,0,46,0,,,,,,0,,02-02-22,02-02-22,18:02:52,Wed Mar 02 2022 18:02:52 GMT+0100 (közép-európai téli idő),The main experiment item,yes,0,0,C:/Users/rrics/Documents/!!ResearchBMECOGSCI/gnet,0,0,0,prototype3.png,no,mono,no,18,no,black,no,no,768,1170,3.5.6,legacy,xpyriment,osweb,1.3.13,0,space,space,space,,86507,13828,86507,,2,legacy,728,1366,24,768,24,0,0,1366,1646240610817,1024,2,48000,-16,experiment,p1sarrcol1.png,0,even,Win32,749,126460,123450,748,749,519983,521487,514992,127979,514992,749,,,,,,visual_patterns,0,0,0,yes,1366
undefined,undefined,undefined,undefined,white,no,Mozilla,Netscape,"5.0 (Windows NT 10.0; Win64; x64) AppleWebKit/537.36 (KHTML, like Gecko) Chrome/98.0.4758.102 Safari/537.36 Edg/98.0.1108.62",xpyriment,legacy,legacy,0,uniform,0,0,0,0,24,24,24,0,0,47,47,47,47,47,0,47,0,,,,,,0,,02-02-22,02-02-22,18:02:52,Wed Mar 02 2022 18:02:52 GMT+0100 (közép-európai téli idő),The main experiment item,yes,0,0,C:/Users/rrics/Documents/!!ResearchBMECOGSCI/gnet,0,0,0,prototype3.png,no,mono,no,18,no,black,no,no,768,1170,3.5.6,legacy,xpyriment,osweb,1.3.13,0,space,space,space,,86507,13828,86507,,2,legacy,728,1366,24,768,24,0,0,1366,1646240610817,1024,2,48000,-16,experiment,p1sarrsha2.png,0,even,Win32,749,126460,123450,748,749,526507,528015,521524,127979,521524,749,,,,,,visual_patterns,0,0,0,yes,1366
undefined,undefined,undefined,undefined,white,no,Mozilla,Netscape,"5.0 (Windows NT 10.0; Win64; x64) AppleWebKit/537.36 (KHTML, like Gecko) Chrome/98.0.4758.102 Safari/537.36 Edg/98.0.1108.62",xpyriment,legacy,legacy,0,uniform,0,0,0,0,24,24,24,0,0,48,48,48,48,48,0,48,0,,,,,,0,,02-02-22,02-02-22,18:02:52,Wed Mar 02 2022 18:02:52 GMT+0100 (közép-európai téli idő),The main experiment item,yes,0,0,C:/Users/rrics/Documents/!!ResearchBMECOGSCI/gnet,0,0,0,prototype3.png,no,mono,no,18,no,black,no,no,768,1170,3.5.6,legacy,xpyriment,osweb,1.3.13,0,space,space,space,,86507,13828,86507,,2,legacy,728,1366,24,768,24,0,0,1366,1646240610817,1024,2,48000,-16,experiment,p7sarr2.png,0,even,Win32,749,126460,123450,748,749,533034,534545,528040,127979,528040,749,,,,,,visual_patterns,0,0,0,yes,1366
undefined,undefined,undefined,undefined,white,no,Mozilla,Netscape,"5.0 (Windows NT 10.0; Win64; x64) AppleWebKit/537.36 (KHTML, like Gecko) Chrome/98.0.4758.102 Safari/537.36 Edg/98.0.1108.62",xpyriment,legacy,legacy,0,uniform,0,0,0,0,24,24,24,0,0,49,49,49,49,49,0,49,0,,,,,,0,,02-02-22,02-02-22,18:02:52,Wed Mar 02 2022 18:02:52 GMT+0100 (közép-európai téli idő),The main experiment item,yes,0,0,C:/Users/rrics/Documents/!!ResearchBMECOGSCI/gnet,0,0,0,prototype3.png,no,mono,no,18,no,black,no,no,768,1170,3.5.6,legacy,xpyriment,osweb,1.3.13,0,space,space,space,,86507,13828,86507,,2,legacy,728,1366,24,768,24,0,0,1366,1646240610817,1024,2,48000,-16,experiment,p4sarr1.png,0,even,Win32,749,126460,123450,748,749,539564,541074,534570,127979,534569,749,,,,,,visual_patterns,0,0,0,yes,1366
undefined,undefined,undefined,undefined,white,no,Mozilla,Netscape,"5.0 (Windows NT 10.0; Win64; x64) AppleWebKit/537.36 (KHTML, like Gecko) Chrome/98.0.4758.102 Safari/537.36 Edg/98.0.1108.62",xpyriment,legacy,legacy,0,uniform,0,0,0,0,24,24,24,0,0,50,50,50,50,50,0,50,0,,,,,,0,,02-02-22,02-02-22,18:02:52,Wed Mar 02 2022 18:02:52 GMT+0100 (közép-európai téli idő),The main experiment item,yes,0,0,C:/Users/rrics/Documents/!!ResearchBMECOGSCI/gnet,0,0,0,prototype3.png,no,mono,no,18,no,black,no,no,768,1170,3.5.6,legacy,xpyriment,osweb,1.3.13,0,space,space,space,,86507,13828,86507,,2,legacy,728,1366,24,768,24,0,0,1366,1646240610817,1024,2,48000,-16,experiment,p10sarr1.png,0,even,Win32,749,126460,123450,748,749,546095,547602,541100,127979,541100,749,,,,,,visual_patterns,0,0,0,yes,1366
undefined,undefined,undefined,undefined,white,no,Mozilla,Netscape,"5.0 (Windows NT 10.0; Win64; x64) AppleWebKit/537.36 (KHTML, like Gecko) Chrome/98.0.4758.102 Safari/537.36 Edg/98.0.1108.62",xpyriment,legacy,legacy,0,uniform,0,0,0,0,24,24,24,0,0,51,51,51,51,51,0,51,0,,,,,,0,,02-02-22,02-02-22,18:02:52,Wed Mar 02 2022 18:02:52 GMT+0100 (közép-európai téli idő),The main experiment item,yes,0,0,C:/Users/rrics/Documents/!!ResearchBMECOGSCI/gnet,0,0,0,prototype3.png,no,mono,no,18,no,black,no,no,768,1170,3.5.6,legacy,xpyriment,osweb,1.3.13,0,space,space,space,,86507,13828,86507,,2,legacy,728,1366,24,768,24,0,0,1366,1646240610817,1024,2,48000,-16,experiment,prototype3.png,0,even,Win32,749,126460,123450,748,749,552622,554130,547624,127979,547624,749,,,,,,visual_patterns,0,0,0,yes,1366
undefined,undefined,undefined,undefined,white,no,Mozilla,Netscape,"5.0 (Windows NT 10.0; Win64; x64) AppleWebKit/537.36 (KHTML, like Gecko) Chrome/98.0.4758.102 Safari/537.36 Edg/98.0.1108.62",xpyriment,legacy,legacy,0,uniform,0,0,0,0,24,24,24,0,0,52,52,52,52,52,0,52,0,,,,,,0,,02-02-22,02-02-22,18:02:52,Wed Mar 02 2022 18:02:52 GMT+0100 (közép-európai téli idő),The main experiment item,yes,0,0,C:/Users/rrics/Documents/!!ResearchBMECOGSCI/gnet,0,0,0,prototype3.png,no,mono,no,18,no,black,no,no,768,1170,3.5.6,legacy,xpyriment,osweb,1.3.13,0,space,space,space,,86507,13828,86507,,2,legacy,728,1366,24,768,24,0,0,1366,1646240610817,1024,2,48000,-16,experiment,p1sarr1.png,0,even,Win32,749,126460,123450,748,749,559153,560659,554166,127979,554166,749,,,,,,visual_patterns,0,0,0,yes,1366
undefined,undefined,undefined,undefined,white,no,Mozilla,Netscape,"5.0 (Windows NT 10.0; Win64; x64) AppleWebKit/537.36 (KHTML, like Gecko) Chrome/98.0.4758.102 Safari/537.36 Edg/98.0.1108.62",xpyriment,legacy,legacy,0,uniform,0,0,0,0,24,24,24,0,0,53,53,53,53,53,0,53,0,,,,,,0,,02-02-22,02-02-22,18:02:52,Wed Mar 02 2022 18:02:52 GMT+0100 (közép-európai téli idő),The main experiment item,yes,0,0,C:/Users/rrics/Documents/!!ResearchBMECOGSCI/gnet,0,0,0,prototype3.png,no,mono,no,18,no,black,no,no,768,1170,3.5.6,legacy,xpyriment,osweb,1.3.13,0,space,space,space,,86507,13828,86507,,2,legacy,728,1366,24,768,24,0,0,1366,1646240610817,1024,2,48000,-16,experiment,p1sarrcol2.png,0,even,Win32,749,126460,123450,748,749,565682,567188,560686,127979,560685,749,,,,,,visual_patterns,0,0,0,yes,1366
undefined,undefined,undefined,undefined,white,no,Mozilla,Netscape,"5.0 (Windows NT 10.0; Win64; x64) AppleWebKit/537.36 (KHTML, like Gecko) Chrome/98.0.4758.102 Safari/537.36 Edg/98.0.1108.62",xpyriment,legacy,legacy,0,uniform,0,0,0,0,24,24,24,0,0,54,54,54,54,54,0,54,0,,,,,,0,,02-02-22,02-02-22,18:02:52,Wed Mar 02 2022 18:02:52 GMT+0100 (közép-európai téli idő),The main experiment item,yes,0,0,C:/Users/rrics/Documents/!!ResearchBMECOGSCI/gnet,0,0,0,prototype3.png,no,mono,no,18,no,black,no,no,768,1170,3.5.6,legacy,xpyriment,osweb,1.3.13,0,space,space,space,,86507,13828,86507,,2,legacy,728,1366,24,768,24,0,0,1366,1646240610817,1024,2,48000,-16,experiment,p2sarrcol2.png,0,even,Win32,749,126460,123450,748,749,572206,573716,567214,127979,567214,749,,,,,,visual_patterns,0,0,0,yes,1366
undefined,undefined,undefined,undefined,white,no,Mozilla,Netscape,"5.0 (Windows NT 10.0; Win64; x64) AppleWebKit/537.36 (KHTML, like Gecko) Chrome/98.0.4758.102 Safari/537.36 Edg/98.0.1108.62",xpyriment,legacy,legacy,0,uniform,0,0,0,0,24,24,24,0,0,55,55,55,55,55,0,55,0,,,,,,0,,02-02-22,02-02-22,18:02:52,Wed Mar 02 2022 18:02:52 GMT+0100 (közép-európai téli idő),The main experiment item,yes,0,0,C:/Users/rrics/Documents/!!ResearchBMECOGSCI/gnet,0,0,0,prototype3.png,no,mono,no,18,no,black,no,no,768,1170,3.5.6,legacy,xpyriment,osweb,1.3.13,0,space,space,space,,86507,13828,86507,,2,legacy,728,1366,24,768,24,0,0,1366,1646240610817,1024,2,48000,-16,experiment,prototype4.png,0,even,Win32,749,126460,123450,748,749,578738,580245,573738,127979,573738,749,,,,,,visual_patterns,0,0,0,yes,1366
undefined,undefined,undefined,undefined,white,no,Mozilla,Netscape,"5.0 (Windows NT 10.0; Win64; x64) AppleWebKit/537.36 (KHTML, like Gecko) Chrome/98.0.4758.102 Safari/537.36 Edg/98.0.1108.62",xpyriment,legacy,legacy,0,uniform,0,0,0,0,24,24,24,0,0,56,56,56,56,56,0,56,0,,,,,,0,,02-02-22,02-02-22,18:02:52,Wed Mar 02 2022 18:02:52 GMT+0100 (közép-európai téli idő),The main experiment item,yes,0,0,C:/Users/rrics/Documents/!!ResearchBMECOGSCI/gnet,0,0,0,prototype3.png,no,mono,no,18,no,black,no,no,768,1170,3.5.6,legacy,xpyriment,osweb,1.3.13,0,space,space,space,,86507,13828,86507,,2,legacy,728,1366,24,768,24,0,0,1366,1646240610817,1024,2,48000,-16,experiment,p2sarrshacol1.png,0,even,Win32,749,126460,123450,748,749,585266,586773,580274,127979,580274,749,,,,,,visual_patterns,0,0,0,yes,1366
undefined,undefined,undefined,undefined,white,no,Mozilla,Netscape,"5.0 (Windows NT 10.0; Win64; x64) AppleWebKit/537.36 (KHTML, like Gecko) Chrome/98.0.4758.102 Safari/537.36 Edg/98.0.1108.62",xpyriment,legacy,legacy,0,uniform,0,0,0,0,24,24,24,0,0,57,57,57,57,57,0,57,0,,,,,,0,,02-02-22,02-02-22,18:02:52,Wed Mar 02 2022 18:02:52 GMT+0100 (közép-európai téli idő),The main experiment item,yes,0,0,C:/Users/rrics/Documents/!!ResearchBMECOGSCI/gnet,0,0,0,prototype3.png,no,mono,no,18,no,black,no,no,768,1170,3.5.6,legacy,xpyriment,osweb,1.3.13,0,space,space,space,,86507,13828,86507,,2,legacy,728,1366,24,768,24,0,0,1366,1646240610817,1024,2,48000,-16,experiment,prototype5.png,0,even,Win32,749,126460,123450,748,749,591799,593302,586799,127979,586799,749,,,,,,visual_patterns,0,0,0,yes,1366
undefined,undefined,undefined,undefined,white,no,Mozilla,Netscape,"5.0 (Windows NT 10.0; Win64; x64) AppleWebKit/537.36 (KHTML, like Gecko) Chrome/98.0.4758.102 Safari/537.36 Edg/98.0.1108.62",xpyriment,legacy,legacy,0,uniform,0,0,0,0,24,24,24,0,0,58,58,58,58,58,0,58,0,,,,,,0,,02-02-22,02-02-22,18:02:52,Wed Mar 02 2022 18:02:52 GMT+0100 (közép-európai téli idő),The main experiment item,yes,0,0,C:/Users/rrics/Documents/!!ResearchBMECOGSCI/gnet,0,0,0,prototype3.png,no,mono,no,18,no,black,no,no,768,1170,3.5.6,legacy,xpyriment,osweb,1.3.13,0,space,space,space,,86507,13828,86507,,2,legacy,728,1366,24,768,24,0,0,1366,1646240610817,1024,2,48000,-16,experiment,prototype2.png,0,even,Win32,749,126460,123450,748,749,598322,599831,593328,127979,593328,749,,,,,,visual_patterns,0,0,0,yes,1366
undefined,undefined,undefined,undefined,white,no,Mozilla,Netscape,"5.0 (Windows NT 10.0; Win64; x64) AppleWebKit/537.36 (KHTML, like Gecko) Chrome/98.0.4758.102 Safari/537.36 Edg/98.0.1108.62",xpyriment,legacy,legacy,0,uniform,0,0,0,0,24,24,24,0,0,59,59,59,59,59,0,59,0,,,,,,0,,02-02-22,02-02-22,18:02:52,Wed Mar 02 2022 18:02:52 GMT+0100 (közép-európai téli idő),The main experiment item,yes,0,0,C:/Users/rrics/Documents/!!ResearchBMECOGSCI/gnet,0,0,0,prototype3.png,no,mono,no,18,no,black,no,no,768,1170,3.5.6,legacy,xpyriment,osweb,1.3.13,0,space,space,space,,86507,13828,86507,,2,legacy,728,1366,24,768,24,0,0,1366,1646240610817,1024,2,48000,-16,experiment,prototype5.png,0,even,Win32,749,126460,123450,748,749,604849,606359,599854,127979,599854,749,,,,,,visual_patterns,0,0,0,yes,1366
undefined,undefined,undefined,undefined,white,no,Mozilla,Netscape,"5.0 (Windows NT 10.0; Win64; x64) AppleWebKit/537.36 (KHTML, like Gecko) Chrome/98.0.4758.102 Safari/537.36 Edg/98.0.1108.62",xpyriment,legacy,legacy,0,uniform,0,0,0,0,24,24,24,0,0,60,60,60,60,60,0,60,0,,,,,,0,,02-02-22,02-02-22,18:02:52,Wed Mar 02 2022 18:02:52 GMT+0100 (közép-európai téli idő),The main experiment item,yes,0,0,C:/Users/rrics/Documents/!!ResearchBMECOGSCI/gnet,0,0,0,prototype3.png,no,mono,no,18,no,black,no,no,768,1170,3.5.6,legacy,xpyriment,osweb,1.3.13,0,space,space,space,,86507,13828,86507,,2,legacy,728,1366,24,768,24,0,0,1366,1646240610817,1024,2,48000,-16,experiment,p1sarrshacol2.png,0,even,Win32,749,126460,123450,748,749,611376,612888,606384,127979,606384,749,,,,,,visual_patterns,0,0,0,yes,1366
undefined,undefined,undefined,undefined,white,no,Mozilla,Netscape,"5.0 (Windows NT 10.0; Win64; x64) AppleWebKit/537.36 (KHTML, like Gecko) Chrome/98.0.4758.102 Safari/537.36 Edg/98.0.1108.62",xpyriment,legacy,legacy,0,uniform,0,0,0,0,24,24,24,0,0,61,61,61,61,61,0,61,0,,,,,,0,,02-02-22,02-02-22,18:02:52,Wed Mar 02 2022 18:02:52 GMT+0100 (közép-európai téli idő),The main experiment item,yes,0,0,C:/Users/rrics/Documents/!!ResearchBMECOGSCI/gnet,0,0,0,prototype3.png,no,mono,no,18,no,black,no,no,768,1170,3.5.6,legacy,xpyriment,osweb,1.3.13,0,space,space,space,,86507,13828,86507,,2,legacy,728,1366,24,768,24,0,0,1366,1646240610817,1024,2,48000,-16,experiment,p2sarrcol1.png,0,even,Win32,749,126460,123450,748,749,617907,619416,612913,127979,612913,749,,,,,,visual_patterns,0,0,0,yes,1366
undefined,undefined,undefined,undefined,white,no,Mozilla,Netscape,"5.0 (Windows NT 10.0; Win64; x64) AppleWebKit/537.36 (KHTML, like Gecko) Chrome/98.0.4758.102 Safari/537.36 Edg/98.0.1108.62",xpyriment,legacy,legacy,0,uniform,0,0,0,0,24,24,24,0,0,62,62,62,62,62,0,62,0,,,,,,0,,02-02-22,02-02-22,18:02:52,Wed Mar 02 2022 18:02:52 GMT+0100 (közép-európai téli idő),The main experiment item,yes,0,0,C:/Users/rrics/Documents/!!ResearchBMECOGSCI/gnet,0,0,0,prototype3.png,no,mono,no,18,no,black,no,no,768,1170,3.5.6,legacy,xpyriment,osweb,1.3.13,0,space,space,space,,86507,13828,86507,,2,legacy,728,1366,24,768,24,0,0,1366,1646240610817,1024,2,48000,-16,experiment,p5sarr2.png,0,even,Win32,749,126460,123450,748,749,624476,625978,619484,127979,619484,749,,,,,,visual_patterns,0,0,0,yes,1366
undefined,undefined,undefined,undefined,white,no,Mozilla,Netscape,"5.0 (Windows NT 10.0; Win64; x64) AppleWebKit/537.36 (KHTML, like Gecko) Chrome/98.0.4758.102 Safari/537.36 Edg/98.0.1108.62",xpyriment,legacy,legacy,0,uniform,0,0,0,0,24,24,24,0,0,63,63,63,63,63,0,63,0,,,,,,0,,02-02-22,02-02-22,18:02:52,Wed Mar 02 2022 18:02:52 GMT+0100 (közép-európai téli idő),The main experiment item,yes,0,0,C:/Users/rrics/Documents/!!ResearchBMECOGSCI/gnet,0,0,0,prototype3.png,no,mono,no,18,no,black,no,no,768,1170,3.5.6,legacy,xpyriment,osweb,1.3.13,0,space,space,space,,86507,13828,86507,,2,legacy,728,1366,24,768,24,0,0,1366,1646240610817,1024,2,48000,-16,experiment,p10sarr2.png,0,even,Win32,749,126460,123450,748,749,630995,632506,626001,127979,626001,749,,,,,,visual_patterns,0,0,0,yes,1366
undefined,undefined,undefined,undefined,white,no,Mozilla,Netscape,"5.0 (Windows NT 10.0; Win64; x64) AppleWebKit/537.36 (KHTML, like Gecko) Chrome/98.0.4758.102 Safari/537.36 Edg/98.0.1108.62",xpyriment,legacy,legacy,0,uniform,0,0,0,0,24,24,24,0,0,64,64,64,64,64,0,64,0,,,,,,0,,02-02-22,02-02-22,18:02:52,Wed Mar 02 2022 18:02:52 GMT+0100 (közép-európai téli idő),The main experiment item,yes,0,0,C:/Users/rrics/Documents/!!ResearchBMECOGSCI/gnet,0,0,0,prototype3.png,no,mono,no,18,no,black,no,no,768,1170,3.5.6,legacy,xpyriment,osweb,1.3.13,0,space,space,space,,86507,13828,86507,,2,legacy,728,1366,24,768,24,0,0,1366,1646240610817,1024,2,48000,-16,experiment,prototype1.png,0,even,Win32,749,126460,123450,748,749,637526,639034,632528,127979,632528,749,,,,,,visual_patterns,0,0,0,yes,1366
undefined,undefined,undefined,undefined,white,no,Mozilla,Netscape,"5.0 (Windows NT 10.0; Win64; x64) AppleWebKit/537.36 (KHTML, like Gecko) Chrome/98.0.4758.102 Safari/537.36 Edg/98.0.1108.62",xpyriment,legacy,legacy,0,uniform,0,0,0,0,24,24,24,0,0,65,65,65,65,65,0,65,0,,,,,,0,,02-02-22,02-02-22,18:02:52,Wed Mar 02 2022 18:02:52 GMT+0100 (közép-európai téli idő),The main experiment item,yes,0,0,C:/Users/rrics/Documents/!!ResearchBMECOGSCI/gnet,0,0,0,prototype3.png,no,mono,no,18,no,black,no,no,768,1170,3.5.6,legacy,xpyriment,osweb,1.3.13,0,space,space,space,,86507,13828,86507,,2,legacy,728,1366,24,768,24,0,0,1366,1646240610817,1024,2,48000,-16,experiment,prototype4.png,0,even,Win32,749,126460,123450,748,749,644054,645562,639056,127979,639056,749,,,,,,visual_patterns,0,0,0,yes,1366
undefined,undefined,undefined,undefined,white,no,Mozilla,Netscape,"5.0 (Windows NT 10.0; Win64; x64) AppleWebKit/537.36 (KHTML, like Gecko) Chrome/98.0.4758.102 Safari/537.36 Edg/98.0.1108.62",xpyriment,legacy,legacy,0,uniform,0,0,0,0,24,24,24,0,0,66,66,66,66,66,0,66,0,,,,,,0,,02-02-22,02-02-22,18:02:52,Wed Mar 02 2022 18:02:52 GMT+0100 (közép-európai téli idő),The main experiment item,yes,0,0,C:/Users/rrics/Documents/!!ResearchBMECOGSCI/gnet,0,0,0,prototype3.png,no,mono,no,18,no,black,no,no,768,1170,3.5.6,legacy,xpyriment,osweb,1.3.13,0,space,space,space,,86507,13828,86507,,2,legacy,728,1366,24,768,24,0,0,1366,1646240610817,1024,2,48000,-16,experiment,p2sarrshacol2.png,0,even,Win32,749,126460,123450,748,749,650585,652092,645589,127979,645589,749,,,,,,visual_patterns,0,0,0,yes,1366
undefined,undefined,undefined,undefined,white,no,Mozilla,Netscape,"5.0 (Windows NT 10.0; Win64; x64) AppleWebKit/537.36 (KHTML, like Gecko) Chrome/98.0.4758.102 Safari/537.36 Edg/98.0.1108.62",xpyriment,legacy,legacy,0,uniform,0,0,0,0,24,24,24,0,0,67,67,67,67,67,0,67,0,,,,,,0,,02-02-22,02-02-22,18:02:52,Wed Mar 02 2022 18:02:52 GMT+0100 (közép-európai téli idő),The main experiment item,yes,0,0,C:/Users/rrics/Documents/!!ResearchBMECOGSCI/gnet,0,0,0,prototype3.png,no,mono,no,18,no,black,no,no,768,1170,3.5.6,legacy,xpyriment,osweb,1.3.13,0,space,space,space,,86507,13828,86507,,2,legacy,728,1366,24,768,24,0,0,1366,1646240610817,1024,2,48000,-16,experiment,p1sarr2.png,0,even,Win32,749,126460,123450,748,749,657147,658654,652154,127979,652153,749,,,,,,visual_patterns,0,0,0,yes,1366
undefined,undefined,undefined,undefined,white,no,Mozilla,Netscape,"5.0 (Windows NT 10.0; Win64; x64) AppleWebKit/537.36 (KHTML, like Gecko) Chrome/98.0.4758.102 Safari/537.36 Edg/98.0.1108.62",xpyriment,legacy,legacy,0,uniform,0,0,0,0,24,24,24,0,0,68,68,68,68,68,0,68,0,,,,,,0,,02-02-22,02-02-22,18:02:52,Wed Mar 02 2022 18:02:52 GMT+0100 (közép-európai téli idő),The main experiment item,yes,0,0,C:/Users/rrics/Documents/!!ResearchBMECOGSCI/gnet,0,0,0,prototype3.png,no,mono,no,18,no,black,no,no,768,1170,3.5.6,legacy,xpyriment,osweb,1.3.13,0,space,space,space,,86507,13828,86507,,2,legacy,728,1366,24,768,24,0,0,1366,1646240610817,1024,2,48000,-16,experiment,p6sarr2.png,0,even,Win32,749,126460,123450,748,749,663677,665183,658681,127979,658681,749,,,,,,visual_patterns,0,0,0,yes,1366
undefined,undefined,undefined,undefined,white,no,Mozilla,Netscape,"5.0 (Windows NT 10.0; Win64; x64) AppleWebKit/537.36 (KHTML, like Gecko) Chrome/98.0.4758.102 Safari/537.36 Edg/98.0.1108.62",xpyriment,legacy,legacy,0,uniform,0,0,0,0,24,24,24,0,0,69,69,69,69,69,0,69,0,,,,,,0,,02-02-22,02-02-22,18:02:52,Wed Mar 02 2022 18:02:52 GMT+0100 (közép-európai téli idő),The main experiment item,yes,0,0,C:/Users/rrics/Documents/!!ResearchBMECOGSCI/gnet,0,0,0,prototype3.png,no,mono,no,18,no,black,no,no,768,1170,3.5.6,legacy,xpyriment,osweb,1.3.13,0,space,space,space,,86507,13828,86507,,2,legacy,728,1366,24,768,24,0,0,1366,1646240610817,1024,2,48000,-16,experiment,prototype2.png,0,even,Win32,749,126460,123450,748,749,670205,671711,665203,127979,665203,749,,,,,,visual_patterns,0,0,0,yes,1366
undefined,undefined,undefined,undefined,white,no,Mozilla,Netscape,"5.0 (Windows NT 10.0; Win64; x64) AppleWebKit/537.36 (KHTML, like Gecko) Chrome/98.0.4758.102 Safari/537.36 Edg/98.0.1108.62",xpyriment,legacy,legacy,0,uniform,0,0,0,0,24,24,24,0,0,70,70,70,70,70,0,70,0,,,,,,0,,02-02-22,02-02-22,18:02:52,Wed Mar 02 2022 18:02:52 GMT+0100 (közép-európai téli idő),The main experiment item,yes,0,0,C:/Users/rrics/Documents/!!ResearchBMECOGSCI/gnet,0,0,0,prototype3.png,no,mono,no,18,no,black,no,no,768,1170,3.5.6,legacy,xpyriment,osweb,1.3.13,0,space,space,space,,86507,13828,86507,,2,legacy,728,1366,24,768,24,0,0,1366,1646240610817,1024,2,48000,-16,experiment,p1sarrshacol1.png,0,even,Win32,749,126460,123450,748,749,676728,678239,671748,127979,671748,749,,,,,,visual_patterns,0,0,0,yes,1366
undefined,undefined,undefined,undefined,white,no,Mozilla,Netscape,"5.0 (Windows NT 10.0; Win64; x64) AppleWebKit/537.36 (KHTML, like Gecko) Chrome/98.0.4758.102 Safari/537.36 Edg/98.0.1108.62",xpyriment,legacy,legacy,0,uniform,0,0,0,0,24,24,24,0,0,71,71,71,71,71,0,71,0,,,,,,0,,02-02-22,02-02-22,18:02:52,Wed Mar 02 2022 18:02:52 GMT+0100 (közép-európai téli idő),The main experiment item,yes,0,0,C:/Users/rrics/Documents/!!ResearchBMECOGSCI/gnet,0,0,0,prototype3.png,no,mono,no,18,no,black,no,no,768,1170,3.5.6,legacy,xpyriment,osweb,1.3.13,0,space,space,space,,86507,13828,86507,,2,legacy,728,1366,24,768,24,0,0,1366,1646240610817,1024,2,48000,-16,experiment,prototype1.png,0,even,Win32,749,126460,123450,748,749,683260,684767,678259,127979,678259,749,,,,,,visual_patterns,0,0,0,yes,1366
undefined,undefined,undefined,undefined,white,no,Mozilla,Netscape,"5.0 (Windows NT 10.0; Win64; x64) AppleWebKit/537.36 (KHTML, like Gecko) Chrome/98.0.4758.102 Safari/537.36 Edg/98.0.1108.62",xpyriment,legacy,legacy,0,uniform,0,0,0,0,24,24,24,0,0,72,72,72,72,72,0,72,0,,,,,,0,,02-02-22,02-02-22,18:02:52,Wed Mar 02 2022 18:02:52 GMT+0100 (közép-európai téli idő),The main experiment item,yes,0,0,C:/Users/rrics/Documents/!!ResearchBMECOGSCI/gnet,0,0,0,prototype3.png,no,mono,no,18,no,black,no,no,768,1170,3.5.6,legacy,xpyriment,osweb,1.3.13,0,space,space,space,,86507,13828,86507,,2,legacy,728,1366,24,768,24,0,0,1366,1646240610817,1024,2,48000,-16,experiment,prototype5.png,0,even,Win32,749,126460,123450,748,749,689786,691297,684787,127979,684787,749,,,,,,visual_patterns,0,0,0,yes,1366
undefined,undefined,undefined,undefined,white,no,Mozilla,Netscape,"5.0 (Windows NT 10.0; Win64; x64) AppleWebKit/537.36 (KHTML, like Gecko) Chrome/98.0.4758.102 Safari/537.36 Edg/98.0.1108.62",xpyriment,legacy,legacy,0,uniform,0,0,0,0,24,24,24,0,0,73,73,73,73,73,0,73,0,,,,,,0,,02-02-22,02-02-22,18:02:52,Wed Mar 02 2022 18:02:52 GMT+0100 (közép-európai téli idő),The main experiment item,yes,0,0,C:/Users/rrics/Documents/!!ResearchBMECOGSCI/gnet,0,0,0,prototype3.png,no,mono,no,18,no,black,no,no,768,1170,3.5.6,legacy,xpyriment,osweb,1.3.13,0,space,space,space,,86507,13828,86507,,2,legacy,728,1366,24,768,24,0,0,1366,1646240610817,1024,2,48000,-16,experiment,prototype3.png,0,even,Win32,749,126460,123450,748,749,696317,697825,691318,127979,691318,749,,,,,,visual_patterns,0,0,0,yes,1366
undefined,undefined,undefined,undefined,white,no,Mozilla,Netscape,"5.0 (Windows NT 10.0; Win64; x64) AppleWebKit/537.36 (KHTML, like Gecko) Chrome/98.0.4758.102 Safari/537.36 Edg/98.0.1108.62",xpyriment,legacy,legacy,0,uniform,0,0,0,0,24,24,24,0,0,74,74,74,74,74,0,74,0,,,,,,0,,02-02-22,02-02-22,18:02:52,Wed Mar 02 2022 18:02:52 GMT+0100 (közép-európai téli idő),The main experiment item,yes,0,0,C:/Users/rrics/Documents/!!ResearchBMECOGSCI/gnet,0,0,0,prototype3.png,no,mono,no,18,no,black,no,no,768,1170,3.5.6,legacy,xpyriment,osweb,1.3.13,0,space,space,space,,86507,13828,86507,,2,legacy,728,1366,24,768,24,0,0,1366,1646240610817,1024,2,48000,-16,experiment,prototype2.png,0,even,Win32,749,126460,123450,748,749,702848,704353,697848,127979,697848,749,,,,,,visual_patterns,0,0,0,yes,1366
undefined,undefined,undefined,undefined,white,no,Mozilla,Netscape,"5.0 (Windows NT 10.0; Win64; x64) AppleWebKit/537.36 (KHTML, like Gecko) Chrome/98.0.4758.102 Safari/537.36 Edg/98.0.1108.62",xpyriment,legacy,legacy,0,uniform,0,0,0,0,24,24,24,0,0,74,74,74,74,74,0,74,0,0,0,0,0,0,0,0,02-02-22,02-02-22,18:02:52,Wed Mar 02 2022 18:02:52 GMT+0100 (közép-európai téli idő),The main experiment item,yes,0,0,C:/Users/rrics/Documents/!!ResearchBMECOGSCI/gnet,0,0,0,prototype3.png,no,mono,no,18,no,black,no,no,768,1170,3.5.6,legacy,xpyriment,osweb,1.3.13,0,left,space,space,left,45189,13828,86507,45189,2,legacy,728,1366,24,768,24,0,0,1366,1646240610817,1024,2,48000,-16,experiment,p5sarrsha3.png,0,even,Win32,749,126460,123450,748,749,702848,704353,697848,127979,697848,749,752597,754100,749605,704360,749605,visual_patterns,0,0,0,yes,1366
undefined,undefined,undefined,undefined,white,no,Mozilla,Netscape,"5.0 (Windows NT 10.0; Win64; x64) AppleWebKit/537.36 (KHTML, like Gecko) Chrome/98.0.4758.102 Safari/537.36 Edg/98.0.1108.62",xpyriment,legacy,legacy,0,uniform,0,0,0,0,24,24,24,0,0,74,74,74,74,74,0,74,0,1,1,1,1,1,0,1,02-02-22,02-02-22,18:02:52,Wed Mar 02 2022 18:02:52 GMT+0100 (közép-európai téli idő),The main experiment item,yes,0,0,C:/Users/rrics/Documents/!!ResearchBMECOGSCI/gnet,0,0,0,prototype3.png,no,mono,no,18,no,black,no,no,768,1170,3.5.6,legacy,xpyriment,osweb,1.3.13,0,left,space,space,left,45189,13828,86507,45189,2,legacy,728,1366,24,768,24,0,0,1366,1646240610817,1024,2,48000,-16,experiment,p2sarrshacol1.png,0,even,Win32,749,126460,123450,748,749,702848,704353,697848,127979,697848,749,757124,758630,754127,704360,754127,visual_patterns,0,0,0,yes,1366
undefined,undefined,undefined,undefined,white,no,Mozilla,Netscape,"5.0 (Windows NT 10.0; Win64; x64) AppleWebKit/537.36 (KHTML, like Gecko) Chrome/98.0.4758.102 Safari/537.36 Edg/98.0.1108.62",xpyriment,legacy,legacy,0,uniform,0,0,0,0,24,24,24,0,0,74,74,74,74,74,0,74,0,2,2,2,2,2,0,2,02-02-22,02-02-22,18:02:52,Wed Mar 02 2022 18:02:52 GMT+0100 (közép-európai téli idő),The main experiment item,yes,0,0,C:/Users/rrics/Documents/!!ResearchBMECOGSCI/gnet,0,0,0,prototype3.png,no,mono,no,18,no,black,no,no,768,1170,3.5.6,legacy,xpyriment,osweb,1.3.13,0,left,space,space,left,45189,13828,86507,45189,2,legacy,728,1366,24,768,24,0,0,1366,1646240610817,1024,2,48000,-16,experiment,p4sarr4.png,0,even,Win32,749,126460,123450,748,749,702848,704353,697848,127979,697848,749,761708,763210,758732,704360,758731,visual_patterns,0,0,0,yes,1366
undefined,undefined,undefined,undefined,white,no,Mozilla,Netscape,"5.0 (Windows NT 10.0; Win64; x64) AppleWebKit/537.36 (KHTML, like Gecko) Chrome/98.0.4758.102 Safari/537.36 Edg/98.0.1108.62",xpyriment,legacy,legacy,0,uniform,0,0,0,0,24,24,24,0,0,74,74,74,74,74,0,74,0,3,3,3,3,3,0,3,02-02-22,02-02-22,18:02:52,Wed Mar 02 2022 18:02:52 GMT+0100 (közép-európai téli idő),The main experiment item,yes,0,0,C:/Users/rrics/Documents/!!ResearchBMECOGSCI/gnet,0,0,0,prototype3.png,no,mono,no,18,no,black,no,no,768,1170,3.5.6,legacy,xpyriment,osweb,1.3.13,0,left,space,space,left,45189,13828,86507,45189,2,legacy,728,1366,24,768,24,0,0,1366,1646240610817,1024,2,48000,-16,experiment,p5sarrsha2.png,0,even,Win32,749,126460,123450,748,749,702848,704353,697848,127979,697848,749,766234,767740,763276,704360,763276,visual_patterns,0,0,0,yes,1366
undefined,undefined,undefined,undefined,white,no,Mozilla,Netscape,"5.0 (Windows NT 10.0; Win64; x64) AppleWebKit/537.36 (KHTML, like Gecko) Chrome/98.0.4758.102 Safari/537.36 Edg/98.0.1108.62",xpyriment,legacy,legacy,0,uniform,0,0,0,0,24,24,24,0,0,74,74,74,74,74,0,74,0,4,4,4,4,4,0,4,02-02-22,02-02-22,18:02:52,Wed Mar 02 2022 18:02:52 GMT+0100 (közép-európai téli idő),The main experiment item,yes,0,0,C:/Users/rrics/Documents/!!ResearchBMECOGSCI/gnet,0,0,0,prototype3.png,no,mono,no,18,no,black,no,no,768,1170,3.5.6,legacy,xpyriment,osweb,1.3.13,0,left,space,space,left,45189,13828,86507,45189,2,legacy,728,1366,24,768,24,0,0,1366,1646240610817,1024,2,48000,-16,experiment,p7sarr2.png,0,even,Win32,749,126460,123450,748,749,702848,704353,697848,127979,697848,749,770765,772270,767798,704360,767798,visual_patterns,0,0,0,yes,1366
undefined,undefined,undefined,undefined,white,no,Mozilla,Netscape,"5.0 (Windows NT 10.0; Win64; x64) AppleWebKit/537.36 (KHTML, like Gecko) Chrome/98.0.4758.102 Safari/537.36 Edg/98.0.1108.62",xpyriment,legacy,legacy,0,uniform,0,0,0,0,24,24,24,0,0,74,74,74,74,74,0,74,0,5,5,5,5,5,0,5,02-02-22,02-02-22,18:02:52,Wed Mar 02 2022 18:02:52 GMT+0100 (közép-európai téli idő),The main experiment item,yes,0,0,C:/Users/rrics/Documents/!!ResearchBMECOGSCI/gnet,0,0,0,prototype3.png,no,mono,no,18,no,black,no,no,768,1170,3.5.6,legacy,xpyriment,osweb,1.3.13,0,left,space,space,left,45189,13828,86507,45189,2,legacy,728,1366,24,768,24,0,0,1366,1646240610817,1024,2,48000,-16,experiment,p1sarrsha4.png,0,even,Win32,749,126460,123450,748,749,702848,704353,697848,127979,697848,749,775301,776816,772327,704360,772327,visual_patterns,0,0,0,yes,1366
undefined,undefined,undefined,undefined,white,no,Mozilla,Netscape,"5.0 (Windows NT 10.0; Win64; x64) AppleWebKit/537.36 (KHTML, like Gecko) Chrome/98.0.4758.102 Safari/537.36 Edg/98.0.1108.62",xpyriment,legacy,legacy,0,uniform,0,0,0,0,24,24,24,0,0,74,74,74,74,74,0,74,0,6,6,6,6,6,0,6,02-02-22,02-02-22,18:02:52,Wed Mar 02 2022 18:02:52 GMT+0100 (közép-európai téli idő),The main experiment item,yes,0,0,C:/Users/rrics/Documents/!!ResearchBMECOGSCI/gnet,0,0,0,prototype3.png,no,mono,no,18,no,black,no,no,768,1170,3.5.6,legacy,xpyriment,osweb,1.3.13,0,left,space,space,left,45189,13828,86507,45189,2,legacy,728,1366,24,768,24,0,0,1366,1646240610817,1024,2,48000,-16,experiment,p3sarrcol2.png,0,even,Win32,749,126460,123450,748,749,702848,704353,697848,127979,697848,749,779839,781349,776847,704360,776846,visual_patterns,0,0,0,yes,1366
undefined,undefined,undefined,undefined,white,no,Mozilla,Netscape,"5.0 (Windows NT 10.0; Win64; x64) AppleWebKit/537.36 (KHTML, like Gecko) Chrome/98.0.4758.102 Safari/537.36 Edg/98.0.1108.62",xpyriment,legacy,legacy,0,uniform,0,0,0,0,24,24,24,0,0,74,74,74,74,74,0,74,0,7,7,7,7,7,0,7,02-02-22,02-02-22,18:02:52,Wed Mar 02 2022 18:02:52 GMT+0100 (közép-európai téli idő),The main experiment item,yes,0,0,C:/Users/rrics/Documents/!!ResearchBMECOGSCI/gnet,0,0,0,prototype3.png,no,mono,no,18,no,black,no,no,768,1170,3.5.6,legacy,xpyriment,osweb,1.3.13,0,left,space,space,left,45189,13828,86507,45189,2,legacy,728,1366,24,768,24,0,0,1366,1646240610817,1024,2,48000,-16,experiment,p3sarrcol3.png,0,even,Win32,749,126460,123450,748,749,702848,704353,697848,127979,697848,749,784381,785893,781399,704360,781399,visual_patterns,0,0,0,yes,1366
undefined,undefined,undefined,undefined,white,no,Mozilla,Netscape,"5.0 (Windows NT 10.0; Win64; x64) AppleWebKit/537.36 (KHTML, like Gecko) Chrome/98.0.4758.102 Safari/537.36 Edg/98.0.1108.62",xpyriment,legacy,legacy,0,uniform,0,0,0,0,24,24,24,0,0,74,74,74,74,74,0,74,0,8,8,8,8,8,0,8,02-02-22,02-02-22,18:02:52,Wed Mar 02 2022 18:02:52 GMT+0100 (közép-európai téli idő),The main experiment item,yes,0,0,C:/Users/rrics/Documents/!!ResearchBMECOGSCI/gnet,0,0,0,prototype3.png,no,mono,no,18,no,black,no,no,768,1170,3.5.6,legacy,xpyriment,osweb,1.3.13,0,left,space,space,left,45189,13828,86507,45189,2,legacy,728,1366,24,768,24,0,0,1366,1646240610817,1024,2,48000,-16,experiment,p1sarrsha1.png,0,even,Win32,749,126460,123450,748,749,702848,704353,697848,127979,697848,749,788923,790440,785935,704360,785935,visual_patterns,0,0,0,yes,1366
undefined,undefined,undefined,undefined,white,no,Mozilla,Netscape,"5.0 (Windows NT 10.0; Win64; x64) AppleWebKit/537.36 (KHTML, like Gecko) Chrome/98.0.4758.102 Safari/537.36 Edg/98.0.1108.62",xpyriment,legacy,legacy,0,uniform,0,0,0,0,24,24,24,0,0,74,74,74,74,74,0,74,0,9,9,9,9,9,0,9,02-02-22,02-02-22,18:02:52,Wed Mar 02 2022 18:02:52 GMT+0100 (közép-európai téli idő),The main experiment item,yes,0,0,C:/Users/rrics/Documents/!!ResearchBMECOGSCI/gnet,0,0,0,prototype3.png,no,mono,no,18,no,black,no,no,768,1170,3.5.6,legacy,xpyriment,osweb,1.3.13,0,left,space,space,left,45189,13828,86507,45189,2,legacy,728,1366,24,768,24,0,0,1366,1646240610817,1024,2,48000,-16,experiment,p4sarr1.png,0,even,Win32,749,126460,123450,748,749,702848,704353,697848,127979,697848,749,793468,794970,790476,704360,790476,visual_patterns,0,0,0,yes,1366
undefined,undefined,undefined,undefined,white,no,Mozilla,Netscape,"5.0 (Windows NT 10.0; Win64; x64) AppleWebKit/537.36 (KHTML, like Gecko) Chrome/98.0.4758.102 Safari/537.36 Edg/98.0.1108.62",xpyriment,legacy,legacy,0,uniform,0,0,0,0,24,24,24,0,0,74,74,74,74,74,0,74,0,10,10,10,10,10,0,10,02-02-22,02-02-22,18:02:52,Wed Mar 02 2022 18:02:52 GMT+0100 (közép-európai téli idő),The main experiment item,yes,0,0,C:/Users/rrics/Documents/!!ResearchBMECOGSCI/gnet,0,0,0,prototype3.png,no,mono,no,18,no,black,no,no,768,1170,3.5.6,legacy,xpyriment,osweb,1.3.13,0,left,space,space,left,45189,13828,86507,45189,2,legacy,728,1366,24,768,24,0,0,1366,1646240610817,1024,2,48000,-16,experiment,p9sarr2.png,0,even,Win32,749,126460,123450,748,749,702848,704353,697848,127979,697848,749,798004,799516,795011,704360,795010,visual_patterns,0,0,0,yes,1366
undefined,undefined,undefined,undefined,white,no,Mozilla,Netscape,"5.0 (Windows NT 10.0; Win64; x64) AppleWebKit/537.36 (KHTML, like Gecko) Chrome/98.0.4758.102 Safari/537.36 Edg/98.0.1108.62",xpyriment,legacy,legacy,0,uniform,0,0,0,0,24,24,24,0,0,74,74,74,74,74,0,74,0,11,11,11,11,11,0,11,02-02-22,02-02-22,18:02:52,Wed Mar 02 2022 18:02:52 GMT+0100 (közép-európai téli idő),The main experiment item,yes,0,0,C:/Users/rrics/Documents/!!ResearchBMECOGSCI/gnet,0,0,0,prototype3.png,no,mono,no,18,no,black,no,no,768,1170,3.5.6,legacy,xpyriment,osweb,1.3.13,0,left,space,space,left,45189,13828,86507,45189,2,legacy,728,1366,24,768,24,0,0,1366,1646240610817,1024,2,48000,-16,experiment,p1sarr2.png,0,even,Win32,749,126460,123450,748,749,702848,704353,697848,127979,697848,749,802546,804063,799550,704360,799550,visual_patterns,0,0,0,yes,1366
undefined,undefined,undefined,undefined,white,no,Mozilla,Netscape,"5.0 (Windows NT 10.0; Win64; x64) AppleWebKit/537.36 (KHTML, like Gecko) Chrome/98.0.4758.102 Safari/537.36 Edg/98.0.1108.62",xpyriment,legacy,legacy,0,uniform,0,0,0,0,24,24,24,0,0,74,74,74,74,74,0,74,0,12,12,12,12,12,0,12,02-02-22,02-02-22,18:02:52,Wed Mar 02 2022 18:02:52 GMT+0100 (közép-európai téli idő),The main experiment item,yes,0,0,C:/Users/rrics/Documents/!!ResearchBMECOGSCI/gnet,0,0,0,prototype3.png,no,mono,no,18,no,black,no,no,768,1170,3.5.6,legacy,xpyriment,osweb,1.3.13,0,left,space,space,left,45189,13828,86507,45189,2,legacy,728,1366,24,768,24,0,0,1366,1646240610817,1024,2,48000,-16,experiment,p3sarrcol4.png,0,even,Win32,749,126460,123450,748,749,702848,704353,697848,127979,697848,749,807128,808643,804135,704360,804135,visual_patterns,0,0,0,yes,1366
undefined,undefined,undefined,undefined,white,no,Mozilla,Netscape,"5.0 (Windows NT 10.0; Win64; x64) AppleWebKit/537.36 (KHTML, like Gecko) Chrome/98.0.4758.102 Safari/537.36 Edg/98.0.1108.62",xpyriment,legacy,legacy,0,uniform,0,0,0,0,24,24,24,0,0,74,74,74,74,74,0,74,0,13,13,13,13,13,0,13,02-02-22,02-02-22,18:02:52,Wed Mar 02 2022 18:02:52 GMT+0100 (közép-európai téli idő),The main experiment item,yes,0,0,C:/Users/rrics/Documents/!!ResearchBMECOGSCI/gnet,0,0,0,prototype3.png,no,mono,no,18,no,black,no,no,768,1170,3.5.6,legacy,xpyriment,osweb,1.3.13,0,left,space,space,left,45189,13828,86507,45189,2,legacy,728,1366,24,768,24,0,0,1366,1646240610817,1024,2,48000,-16,experiment,p2sarrshacol2.png,0,even,Win32,749,126460,123450,748,749,702848,704353,697848,127979,697848,749,811670,813175,808677,704360,808677,visual_patterns,0,0,0,yes,1366
undefined,undefined,undefined,undefined,white,no,Mozilla,Netscape,"5.0 (Windows NT 10.0; Win64; x64) AppleWebKit/537.36 (KHTML, like Gecko) Chrome/98.0.4758.102 Safari/537.36 Edg/98.0.1108.62",xpyriment,legacy,legacy,0,uniform,0,0,0,0,24,24,24,0,0,74,74,74,74,74,0,74,0,14,14,14,14,14,0,14,02-02-22,02-02-22,18:02:52,Wed Mar 02 2022 18:02:52 GMT+0100 (közép-európai téli idő),The main experiment item,yes,0,0,C:/Users/rrics/Documents/!!ResearchBMECOGSCI/gnet,0,0,0,prototype3.png,no,mono,no,18,no,black,no,no,768,1170,3.5.6,legacy,xpyriment,osweb,1.3.13,0,left,space,space,left,45189,13828,86507,45189,2,legacy,728,1366,24,768,24,0,0,1366,1646240610817,1024,2,48000,-16,experiment,p6sarr1.png,0,even,Win32,749,126460,123450,748,749,702848,704353,697848,127979,697848,749,816202,817703,813225,704360,813224,visual_patterns,0,0,0,yes,1366
undefined,undefined,undefined,undefined,white,no,Mozilla,Netscape,"5.0 (Windows NT 10.0; Win64; x64) AppleWebKit/537.36 (KHTML, like Gecko) Chrome/98.0.4758.102 Safari/537.36 Edg/98.0.1108.62",xpyriment,legacy,legacy,0,uniform,0,0,0,0,24,24,24,0,0,74,74,74,74,74,0,74,0,15,15,15,15,15,0,15,02-02-22,02-02-22,18:02:52,Wed Mar 02 2022 18:02:52 GMT+0100 (közép-európai téli idő),The main experiment item,yes,0,0,C:/Users/rrics/Documents/!!ResearchBMECOGSCI/gnet,0,0,0,prototype3.png,no,mono,no,18,no,black,no,no,768,1170,3.5.6,legacy,xpyriment,osweb,1.3.13,0,left,space,space,left,45189,13828,86507,45189,2,legacy,728,1366,24,768,24,0,0,1366,1646240610817,1024,2,48000,-16,experiment,p4sarrshacol3.png,0,even,Win32,749,126460,123450,748,749,702848,704353,697848,127979,697848,749,820728,822233,817735,704360,817735,visual_patterns,0,0,0,yes,1366
undefined,undefined,undefined,undefined,white,no,Mozilla,Netscape,"5.0 (Windows NT 10.0; Win64; x64) AppleWebKit/537.36 (KHTML, like Gecko) Chrome/98.0.4758.102 Safari/537.36 Edg/98.0.1108.62",xpyriment,legacy,legacy,0,uniform,0,0,0,0,24,24,24,0,0,74,74,74,74,74,0,74,0,16,16,16,16,16,0,16,02-02-22,02-02-22,18:02:52,Wed Mar 02 2022 18:02:52 GMT+0100 (közép-európai téli idő),The main experiment item,yes,0,0,C:/Users/rrics/Documents/!!ResearchBMECOGSCI/gnet,0,0,0,prototype3.png,no,mono,no,18,no,black,no,no,768,1170,3.5.6,legacy,xpyriment,osweb,1.3.13,0,left,space,space,left,45189,13828,86507,45189,2,legacy,728,1366,24,768,24,0,0,1366,1646240610817,1024,2,48000,-16,experiment,p4sarrshacol4.png,0,even,Win32,749,126460,123450,748,749,702848,704353,697848,127979,697848,749,825258,826765,822269,704360,822269,visual_patterns,0,0,0,yes,1366
undefined,undefined,undefined,undefined,white,no,Mozilla,Netscape,"5.0 (Windows NT 10.0; Win64; x64) AppleWebKit/537.36 (KHTML, like Gecko) Chrome/98.0.4758.102 Safari/537.36 Edg/98.0.1108.62",xpyriment,legacy,legacy,0,uniform,0,0,0,0,24,24,24,0,0,74,74,74,74,74,0,74,0,17,17,17,17,17,0,17,02-02-22,02-02-22,18:02:52,Wed Mar 02 2022 18:02:52 GMT+0100 (közép-európai téli idő),The main experiment item,yes,0,0,C:/Users/rrics/Documents/!!ResearchBMECOGSCI/gnet,0,0,0,prototype3.png,no,mono,no,18,no,black,no,no,768,1170,3.5.6,legacy,xpyriment,osweb,1.3.13,0,left,space,space,left,45189,13828,86507,45189,2,legacy,728,1366,24,768,24,0,0,1366,1646240610817,1024,2,48000,-16,experiment,p2sarrcol1.png,0,even,Win32,749,126460,123450,748,749,702848,704353,697848,127979,697848,749,829825,831327,826833,704360,826833,visual_patterns,0,0,0,yes,1366
undefined,undefined,undefined,undefined,white,no,Mozilla,Netscape,"5.0 (Windows NT 10.0; Win64; x64) AppleWebKit/537.36 (KHTML, like Gecko) Chrome/98.0.4758.102 Safari/537.36 Edg/98.0.1108.62",xpyriment,legacy,legacy,0,uniform,0,0,0,0,24,24,24,0,0,74,74,74,74,74,0,74,0,18,18,18,18,18,0,18,02-02-22,02-02-22,18:02:52,Wed Mar 02 2022 18:02:52 GMT+0100 (közép-európai téli idő),The main experiment item,yes,0,0,C:/Users/rrics/Documents/!!ResearchBMECOGSCI/gnet,0,0,0,prototype3.png,no,mono,no,18,no,black,no,no,768,1170,3.5.6,legacy,xpyriment,osweb,1.3.13,0,left,space,space,left,45189,13828,86507,45189,2,legacy,728,1366,24,768,24,0,0,1366,1646240610817,1024,2,48000,-16,experiment,p1sarr4.png,0,even,Win32,749,126460,123450,748,749,702848,704353,697848,127979,697848,749,834352,835858,831360,704360,831360,visual_patterns,0,0,0,yes,1366
undefined,undefined,undefined,undefined,white,no,Mozilla,Netscape,"5.0 (Windows NT 10.0; Win64; x64) AppleWebKit/537.36 (KHTML, like Gecko) Chrome/98.0.4758.102 Safari/537.36 Edg/98.0.1108.62",xpyriment,legacy,legacy,0,uniform,0,0,0,0,24,24,24,0,0,74,74,74,74,74,0,74,0,19,19,19,19,19,0,19,02-02-22,02-02-22,18:02:52,Wed Mar 02 2022 18:02:52 GMT+0100 (közép-európai téli idő),The main experiment item,yes,0,0,C:/Users/rrics/Documents/!!ResearchBMECOGSCI/gnet,0,0,0,prototype3.png,no,mono,no,18,no,black,no,no,768,1170,3.5.6,legacy,xpyriment,osweb,1.3.13,0,left,space,space,left,45189,13828,86507,45189,2,legacy,728,1366,24,768,24,0,0,1366,1646240610817,1024,2,48000,-16,experiment,p10sarr1.png,0,even,Win32,749,126460,123450,748,749,702848,704353,697848,127979,697848,749,838884,840388,835891,704360,835891,visual_patterns,0,0,0,yes,1366
undefined,undefined,undefined,undefined,white,no,Mozilla,Netscape,"5.0 (Windows NT 10.0; Win64; x64) AppleWebKit/537.36 (KHTML, like Gecko) Chrome/98.0.4758.102 Safari/537.36 Edg/98.0.1108.62",xpyriment,legacy,legacy,0,uniform,0,0,0,0,24,24,24,0,0,74,74,74,74,74,0,74,0,20,20,20,20,20,0,20,02-02-22,02-02-22,18:02:52,Wed Mar 02 2022 18:02:52 GMT+0100 (közép-európai téli idő),The main experiment item,yes,0,0,C:/Users/rrics/Documents/!!ResearchBMECOGSCI/gnet,0,0,0,prototype3.png,no,mono,no,18,no,black,no,no,768,1170,3.5.6,legacy,xpyriment,osweb,1.3.13,0,left,space,space,left,45189,13828,86507,45189,2,legacy,728,1366,24,768,24,0,0,1366,1646240610817,1024,2,48000,-16,experiment,p8sarr3.png,0,even,Win32,749,126460,123450,748,749,702848,704353,697848,127979,697848,749,843411,844918,840421,704360,840421,visual_patterns,0,0,0,yes,1366
undefined,undefined,undefined,undefined,white,no,Mozilla,Netscape,"5.0 (Windows NT 10.0; Win64; x64) AppleWebKit/537.36 (KHTML, like Gecko) Chrome/98.0.4758.102 Safari/537.36 Edg/98.0.1108.62",xpyriment,legacy,legacy,0,uniform,0,0,0,0,24,24,24,0,0,74,74,74,74,74,0,74,0,21,21,21,21,21,0,21,02-02-22,02-02-22,18:02:52,Wed Mar 02 2022 18:02:52 GMT+0100 (közép-európai téli idő),The main experiment item,yes,0,0,C:/Users/rrics/Documents/!!ResearchBMECOGSCI/gnet,0,0,0,prototype3.png,no,mono,no,18,no,black,no,no,768,1170,3.5.6,legacy,xpyriment,osweb,1.3.13,0,left,space,space,left,45189,13828,86507,45189,2,legacy,728,1366,24,768,24,0,0,1366,1646240610817,1024,2,48000,-16,experiment,p9sarr4.png,0,even,Win32,749,126460,123450,748,749,702848,704353,697848,127979,697848,749,847945,849446,844948,704360,844948,visual_patterns,0,0,0,yes,1366
undefined,undefined,undefined,undefined,white,no,Mozilla,Netscape,"5.0 (Windows NT 10.0; Win64; x64) AppleWebKit/537.36 (KHTML, like Gecko) Chrome/98.0.4758.102 Safari/537.36 Edg/98.0.1108.62",xpyriment,legacy,legacy,0,uniform,0,0,0,0,24,24,24,0,0,74,74,74,74,74,0,74,0,22,22,22,22,22,0,22,02-02-22,02-02-22,18:02:52,Wed Mar 02 2022 18:02:52 GMT+0100 (közép-európai téli idő),The main experiment item,yes,0,0,C:/Users/rrics/Documents/!!ResearchBMECOGSCI/gnet,0,0,0,prototype3.png,no,mono,no,18,no,black,no,no,768,1170,3.5.6,legacy,xpyriment,osweb,1.3.13,0,left,space,space,left,45189,13828,86507,45189,2,legacy,728,1366,24,768,24,0,0,1366,1646240610817,1024,2,48000,-16,experiment,p5sarrcol2.png,0,even,Win32,749,126460,123450,748,749,702848,704353,697848,127979,697848,749,852518,854028,849530,704360,849530,visual_patterns,0,0,0,yes,1366
undefined,undefined,undefined,undefined,white,no,Mozilla,Netscape,"5.0 (Windows NT 10.0; Win64; x64) AppleWebKit/537.36 (KHTML, like Gecko) Chrome/98.0.4758.102 Safari/537.36 Edg/98.0.1108.62",xpyriment,legacy,legacy,0,uniform,0,0,0,0,24,24,24,0,0,74,74,74,74,74,0,74,0,23,23,23,23,23,0,23,02-02-22,02-02-22,18:02:52,Wed Mar 02 2022 18:02:52 GMT+0100 (közép-európai téli idő),The main experiment item,yes,0,0,C:/Users/rrics/Documents/!!ResearchBMECOGSCI/gnet,0,0,0,prototype3.png,no,mono,no,18,no,black,no,no,768,1170,3.5.6,legacy,xpyriment,osweb,1.3.13,0,left,space,space,left,45189,13828,86507,45189,2,legacy,728,1366,24,768,24,0,0,1366,1646240610817,1024,2,48000,-16,experiment,p7sarr4.png,0,even,Win32,749,126460,123450,748,749,702848,704353,697848,127979,697848,749,857057,858558,854061,704360,854061,visual_patterns,0,0,0,yes,1366
undefined,undefined,undefined,undefined,white,no,Mozilla,Netscape,"5.0 (Windows NT 10.0; Win64; x64) AppleWebKit/537.36 (KHTML, like Gecko) Chrome/98.0.4758.102 Safari/537.36 Edg/98.0.1108.62",xpyriment,legacy,legacy,0,uniform,0,0,0,0,24,24,24,0,0,74,74,74,74,74,0,74,0,24,24,24,24,24,0,24,02-02-22,02-02-22,18:02:52,Wed Mar 02 2022 18:02:52 GMT+0100 (közép-európai téli idő),The main experiment item,yes,0,0,C:/Users/rrics/Documents/!!ResearchBMECOGSCI/gnet,0,0,0,prototype3.png,no,mono,no,18,no,black,no,no,768,1170,3.5.6,legacy,xpyriment,osweb,1.3.13,0,left,space,space,left,45189,13828,86507,45189,2,legacy,728,1366,24,768,24,0,0,1366,1646240610817,1024,2,48000,-16,experiment,p3sarrsha3.png,0,even,Win32,749,126460,123450,748,749,702848,704353,697848,127979,697848,749,861581,863087,858589,704360,858589,visual_patterns,0,0,0,yes,1366
undefined,undefined,undefined,undefined,white,no,Mozilla,Netscape,"5.0 (Windows NT 10.0; Win64; x64) AppleWebKit/537.36 (KHTML, like Gecko) Chrome/98.0.4758.102 Safari/537.36 Edg/98.0.1108.62",xpyriment,legacy,legacy,0,uniform,0,0,0,0,24,24,24,0,0,74,74,74,74,74,0,74,0,25,25,25,25,25,0,25,02-02-22,02-02-22,18:02:52,Wed Mar 02 2022 18:02:52 GMT+0100 (közép-európai téli idő),The main experiment item,yes,0,0,C:/Users/rrics/Documents/!!ResearchBMECOGSCI/gnet,0,0,0,prototype3.png,no,mono,no,18,no,black,no,no,768,1170,3.5.6,legacy,xpyriment,osweb,1.3.13,0,left,space,space,left,45189,13828,86507,45189,2,legacy,728,1366,24,768,24,0,0,1366,1646240610817,1024,2,48000,-16,experiment,p8sarr4.png,0,even,Win32,749,126460,123450,748,749,702848,704353,697848,127979,697848,749,866111,867618,863118,704360,863118,visual_patterns,0,0,0,yes,1366
undefined,undefined,undefined,undefined,white,no,Mozilla,Netscape,"5.0 (Windows NT 10.0; Win64; x64) AppleWebKit/537.36 (KHTML, like Gecko) Chrome/98.0.4758.102 Safari/537.36 Edg/98.0.1108.62",xpyriment,legacy,legacy,0,uniform,0,0,0,0,24,24,24,0,0,74,74,74,74,74,0,74,0,26,26,26,26,26,0,26,02-02-22,02-02-22,18:02:52,Wed Mar 02 2022 18:02:52 GMT+0100 (közép-európai téli idő),The main experiment item,yes,0,0,C:/Users/rrics/Documents/!!ResearchBMECOGSCI/gnet,0,0,0,prototype3.png,no,mono,no,18,no,black,no,no,768,1170,3.5.6,legacy,xpyriment,osweb,1.3.13,0,left,space,space,left,45189,13828,86507,45189,2,legacy,728,1366,24,768,24,0,0,1366,1646240610817,1024,2,48000,-16,experiment,p2sarrshacol4.png,0,even,Win32,749,126460,123450,748,749,702848,704353,697848,127979,697848,749,870644,872148,867651,704360,867651,visual_patterns,0,0,0,yes,1366
undefined,undefined,undefined,undefined,white,no,Mozilla,Netscape,"5.0 (Windows NT 10.0; Win64; x64) AppleWebKit/537.36 (KHTML, like Gecko) Chrome/98.0.4758.102 Safari/537.36 Edg/98.0.1108.62",xpyriment,legacy,legacy,0,uniform,0,0,0,0,24,24,24,0,0,74,74,74,74,74,0,74,0,27,27,27,27,27,0,27,02-02-22,02-02-22,18:02:52,Wed Mar 02 2022 18:02:52 GMT+0100 (közép-európai téli idő),The main experiment item,yes,0,0,C:/Users/rrics/Documents/!!ResearchBMECOGSCI/gnet,0,0,0,prototype3.png,no,mono,no,18,no,black,no,no,768,1170,3.5.6,legacy,xpyriment,osweb,1.3.13,0,left,space,space,left,45189,13828,86507,45189,2,legacy,728,1366,24,768,24,0,0,1366,1646240610817,1024,2,48000,-16,experiment,p4sarrshacol1.png,0,even,Win32,749,126460,123450,748,749,702848,704353,697848,127979,697848,749,875213,876727,872218,704360,872218,visual_patterns,0,0,0,yes,1366
undefined,undefined,undefined,undefined,white,no,Mozilla,Netscape,"5.0 (Windows NT 10.0; Win64; x64) AppleWebKit/537.36 (KHTML, like Gecko) Chrome/98.0.4758.102 Safari/537.36 Edg/98.0.1108.62",xpyriment,legacy,legacy,0,uniform,0,0,0,0,24,24,24,0,0,74,74,74,74,74,0,74,0,28,28,28,28,28,0,28,02-02-22,02-02-22,18:02:52,Wed Mar 02 2022 18:02:52 GMT+0100 (közép-európai téli idő),The main experiment item,yes,0,0,C:/Users/rrics/Documents/!!ResearchBMECOGSCI/gnet,0,0,0,prototype3.png,no,mono,no,18,no,black,no,no,768,1170,3.5.6,legacy,xpyriment,osweb,1.3.13,0,left,space,space,left,45189,13828,86507,45189,2,legacy,728,1366,24,768,24,0,0,1366,1646240610817,1024,2,48000,-16,experiment,p1sarrshacol3.png,0,even,Win32,749,126460,123450,748,749,702848,704353,697848,127979,697848,749,879752,881258,876763,704360,876763,visual_patterns,0,0,0,yes,1366
undefined,undefined,undefined,undefined,white,no,Mozilla,Netscape,"5.0 (Windows NT 10.0; Win64; x64) AppleWebKit/537.36 (KHTML, like Gecko) Chrome/98.0.4758.102 Safari/537.36 Edg/98.0.1108.62",xpyriment,legacy,legacy,0,uniform,0,0,0,0,24,24,24,0,0,74,74,74,74,74,0,74,0,29,29,29,29,29,0,29,02-02-22,02-02-22,18:02:52,Wed Mar 02 2022 18:02:52 GMT+0100 (közép-európai téli idő),The main experiment item,yes,0,0,C:/Users/rrics/Documents/!!ResearchBMECOGSCI/gnet,0,0,0,prototype3.png,no,mono,no,18,no,black,no,no,768,1170,3.5.6,legacy,xpyriment,osweb,1.3.13,0,left,space,space,left,45189,13828,86507,45189,2,legacy,728,1366,24,768,24,0,0,1366,1646240610817,1024,2,48000,-16,experiment,p2sarrsha1.png,0,even,Win32,749,126460,123450,748,749,702848,704353,697848,127979,697848,749,884286,885788,881291,704360,881291,visual_patterns,0,0,0,yes,1366
undefined,undefined,undefined,undefined,white,no,Mozilla,Netscape,"5.0 (Windows NT 10.0; Win64; x64) AppleWebKit/537.36 (KHTML, like Gecko) Chrome/98.0.4758.102 Safari/537.36 Edg/98.0.1108.62",xpyriment,legacy,legacy,0,uniform,0,0,0,0,24,24,24,0,0,74,74,74,74,74,0,74,0,30,30,30,30,30,0,30,02-02-22,02-02-22,18:02:52,Wed Mar 02 2022 18:02:52 GMT+0100 (közép-európai téli idő),The main experiment item,yes,0,0,C:/Users/rrics/Documents/!!ResearchBMECOGSCI/gnet,0,0,0,prototype3.png,no,mono,no,18,no,black,no,no,768,1170,3.5.6,legacy,xpyriment,osweb,1.3.13,0,left,space,space,left,45189,13828,86507,45189,2,legacy,728,1366,24,768,24,0,0,1366,1646240610817,1024,2,48000,-16,experiment,p3sarr2.png,0,even,Win32,749,126460,123450,748,749,702848,704353,697848,127979,697848,749,888811,890318,885819,704360,885819,visual_patterns,0,0,0,yes,1366
undefined,undefined,undefined,undefined,white,no,Mozilla,Netscape,"5.0 (Windows NT 10.0; Win64; x64) AppleWebKit/537.36 (KHTML, like Gecko) Chrome/98.0.4758.102 Safari/537.36 Edg/98.0.1108.62",xpyriment,legacy,legacy,0,uniform,0,0,0,0,24,24,24,0,0,74,74,74,74,74,0,74,0,31,31,31,31,31,0,31,02-02-22,02-02-22,18:02:52,Wed Mar 02 2022 18:02:52 GMT+0100 (közép-európai téli idő),The main experiment item,yes,0,0,C:/Users/rrics/Documents/!!ResearchBMECOGSCI/gnet,0,0,0,prototype3.png,no,mono,no,18,no,black,no,no,768,1170,3.5.6,legacy,xpyriment,osweb,1.3.13,0,left,space,space,left,45189,13828,86507,45189,2,legacy,728,1366,24,768,24,0,0,1366,1646240610817,1024,2,48000,-16,experiment,p3sarrshacol3.png,0,even,Win32,749,126460,123450,748,749,702848,704353,697848,127979,697848,749,893341,894848,890348,704360,890348,visual_patterns,0,0,0,yes,1366
undefined,undefined,undefined,undefined,white,no,Mozilla,Netscape,"5.0 (Windows NT 10.0; Win64; x64) AppleWebKit/537.36 (KHTML, like Gecko) Chrome/98.0.4758.102 Safari/537.36 Edg/98.0.1108.62",xpyriment,legacy,legacy,0,uniform,0,0,0,0,24,24,24,0,0,74,74,74,74,74,0,74,0,32,32,32,32,32,0,32,02-02-22,02-02-22,18:02:52,Wed Mar 02 2022 18:02:52 GMT+0100 (közép-európai téli idő),The main experiment item,yes,0,0,C:/Users/rrics/Documents/!!ResearchBMECOGSCI/gnet,0,0,0,prototype3.png,no,mono,no,18,no,black,no,no,768,1170,3.5.6,legacy,xpyriment,osweb,1.3.13,0,left,space,space,left,45189,13828,86507,45189,2,legacy,728,1366,24,768,24,0,0,1366,1646240610817,1024,2,48000,-16,experiment,p2sarrcol4.png,0,even,Win32,749,126460,123450,748,749,702848,704353,697848,127979,697848,749,897877,899378,894882,704360,894882,visual_patterns,0,0,0,yes,1366
undefined,undefined,undefined,undefined,white,no,Mozilla,Netscape,"5.0 (Windows NT 10.0; Win64; x64) AppleWebKit/537.36 (KHTML, like Gecko) Chrome/98.0.4758.102 Safari/537.36 Edg/98.0.1108.62",xpyriment,legacy,legacy,0,uniform,0,0,0,0,24,24,24,0,0,74,74,74,74,74,0,74,0,33,33,33,33,33,0,33,02-02-22,02-02-22,18:02:52,Wed Mar 02 2022 18:02:52 GMT+0100 (közép-európai téli idő),The main experiment item,yes,0,0,C:/Users/rrics/Documents/!!ResearchBMECOGSCI/gnet,0,0,0,prototype3.png,no,mono,no,18,no,black,no,no,768,1170,3.5.6,legacy,xpyriment,osweb,1.3.13,0,left,space,space,left,45189,13828,86507,45189,2,legacy,728,1366,24,768,24,0,0,1366,1646240610817,1024,2,48000,-16,experiment,p5sarrcol1.png,0,even,Win32,749,126460,123450,748,749,702848,704353,697848,127979,697848,749,902406,903907,899417,704360,899417,visual_patterns,0,0,0,yes,1366
undefined,undefined,undefined,undefined,white,no,Mozilla,Netscape,"5.0 (Windows NT 10.0; Win64; x64) AppleWebKit/537.36 (KHTML, like Gecko) Chrome/98.0.4758.102 Safari/537.36 Edg/98.0.1108.62",xpyriment,legacy,legacy,0,uniform,0,0,0,0,24,24,24,0,0,74,74,74,74,74,0,74,0,34,34,34,34,34,0,34,02-02-22,02-02-22,18:02:52,Wed Mar 02 2022 18:02:52 GMT+0100 (közép-európai téli idő),The main experiment item,yes,0,0,C:/Users/rrics/Documents/!!ResearchBMECOGSCI/gnet,0,0,0,prototype3.png,no,mono,no,18,no,black,no,no,768,1170,3.5.6,legacy,xpyriment,osweb,1.3.13,0,left,space,space,left,45189,13828,86507,45189,2,legacy,728,1366,24,768,24,0,0,1366,1646240610817,1024,2,48000,-16,experiment,p8sarr2.png,0,even,Win32,749,126460,123450,748,749,702848,704353,697848,127979,697848,749,906928,908438,903939,704360,903938,visual_patterns,0,0,0,yes,1366
undefined,undefined,undefined,undefined,white,no,Mozilla,Netscape,"5.0 (Windows NT 10.0; Win64; x64) AppleWebKit/537.36 (KHTML, like Gecko) Chrome/98.0.4758.102 Safari/537.36 Edg/98.0.1108.62",xpyriment,legacy,legacy,0,uniform,0,0,0,0,24,24,24,0,0,74,74,74,74,74,0,74,0,35,35,35,35,35,0,35,02-02-22,02-02-22,18:02:52,Wed Mar 02 2022 18:02:52 GMT+0100 (közép-európai téli idő),The main experiment item,yes,0,0,C:/Users/rrics/Documents/!!ResearchBMECOGSCI/gnet,0,0,0,prototype3.png,no,mono,no,18,no,black,no,no,768,1170,3.5.6,legacy,xpyriment,osweb,1.3.13,0,left,space,space,left,45189,13828,86507,45189,2,legacy,728,1366,24,768,24,0,0,1366,1646240610817,1024,2,48000,-16,experiment,p5sarr3.png,0,even,Win32,749,126460,123450,748,749,702848,704353,697848,127979,697848,749,911461,912968,908468,704360,908468,visual_patterns,0,0,0,yes,1366
undefined,undefined,undefined,undefined,white,no,Mozilla,Netscape,"5.0 (Windows NT 10.0; Win64; x64) AppleWebKit/537.36 (KHTML, like Gecko) Chrome/98.0.4758.102 Safari/537.36 Edg/98.0.1108.62",xpyriment,legacy,legacy,0,uniform,0,0,0,0,24,24,24,0,0,74,74,74,74,74,0,74,0,36,36,36,36,36,0,36,02-02-22,02-02-22,18:02:52,Wed Mar 02 2022 18:02:52 GMT+0100 (közép-európai téli idő),The main experiment item,yes,0,0,C:/Users/rrics/Documents/!!ResearchBMECOGSCI/gnet,0,0,0,prototype3.png,no,mono,no,18,no,black,no,no,768,1170,3.5.6,legacy,xpyriment,osweb,1.3.13,0,left,space,space,left,45189,13828,86507,45189,2,legacy,728,1366,24,768,24,0,0,1366,1646240610817,1024,2,48000,-16,experiment,p7sarr1.png,0,even,Win32,749,126460,123450,748,749,702848,704353,697848,127979,697848,749,915995,917498,913001,704360,913001,visual_patterns,0,0,0,yes,1366
undefined,undefined,undefined,undefined,white,no,Mozilla,Netscape,"5.0 (Windows NT 10.0; Win64; x64) AppleWebKit/537.36 (KHTML, like Gecko) Chrome/98.0.4758.102 Safari/537.36 Edg/98.0.1108.62",xpyriment,legacy,legacy,0,uniform,0,0,0,0,24,24,24,0,0,74,74,74,74,74,0,74,0,37,37,37,37,37,0,37,02-02-22,02-02-22,18:02:52,Wed Mar 02 2022 18:02:52 GMT+0100 (közép-európai téli idő),The main experiment item,yes,0,0,C:/Users/rrics/Documents/!!ResearchBMECOGSCI/gnet,0,0,0,prototype3.png,no,mono,no,18,no,black,no,no,768,1170,3.5.6,legacy,xpyriment,osweb,1.3.13,0,left,space,space,left,45189,13828,86507,45189,2,legacy,728,1366,24,768,24,0,0,1366,1646240610817,1024,2,48000,-16,experiment,p1sarrcol4.png,0,even,Win32,749,126460,123450,748,749,702848,704353,697848,127979,697848,749,920563,922078,917569,704360,917569,visual_patterns,0,0,0,yes,1366
undefined,undefined,undefined,undefined,white,no,Mozilla,Netscape,"5.0 (Windows NT 10.0; Win64; x64) AppleWebKit/537.36 (KHTML, like Gecko) Chrome/98.0.4758.102 Safari/537.36 Edg/98.0.1108.62",xpyriment,legacy,legacy,0,uniform,0,0,0,0,24,24,24,0,0,74,74,74,74,74,0,74,0,38,38,38,38,38,0,38,02-02-22,02-02-22,18:02:52,Wed Mar 02 2022 18:02:52 GMT+0100 (közép-európai téli idő),The main experiment item,yes,0,0,C:/Users/rrics/Documents/!!ResearchBMECOGSCI/gnet,0,0,0,prototype3.png,no,mono,no,18,no,black,no,no,768,1170,3.5.6,legacy,xpyriment,osweb,1.3.13,0,left,space,space,left,45189,13828,86507,45189,2,legacy,728,1366,24,768,24,0,0,1366,1646240610817,1024,2,48000,-16,experiment,p3sarrsha4.png,0,even,Win32,749,126460,123450,748,749,702848,704353,697848,127979,697848,749,925101,926608,922113,704360,922113,visual_patterns,0,0,0,yes,1366
undefined,undefined,undefined,undefined,white,no,Mozilla,Netscape,"5.0 (Windows NT 10.0; Win64; x64) AppleWebKit/537.36 (KHTML, like Gecko) Chrome/98.0.4758.102 Safari/537.36 Edg/98.0.1108.62",xpyriment,legacy,legacy,0,uniform,0,0,0,0,24,24,24,0,0,74,74,74,74,74,0,74,0,39,39,39,39,39,0,39,02-02-22,02-02-22,18:02:52,Wed Mar 02 2022 18:02:52 GMT+0100 (közép-európai téli idő),The main experiment item,yes,0,0,C:/Users/rrics/Documents/!!ResearchBMECOGSCI/gnet,0,0,0,prototype3.png,no,mono,no,18,no,black,no,no,768,1170,3.5.6,legacy,xpyriment,osweb,1.3.13,0,left,space,space,left,45189,13828,86507,45189,2,legacy,728,1366,24,768,24,0,0,1366,1646240610817,1024,2,48000,-16,experiment,p3sarr1.png,0,even,Win32,749,126460,123450,748,749,702848,704353,697848,127979,697848,749,929634,931138,926643,704360,926643,visual_patterns,0,0,0,yes,1366
undefined,undefined,undefined,undefined,white,no,Mozilla,Netscape,"5.0 (Windows NT 10.0; Win64; x64) AppleWebKit/537.36 (KHTML, like Gecko) Chrome/98.0.4758.102 Safari/537.36 Edg/98.0.1108.62",xpyriment,legacy,legacy,0,uniform,0,0,0,0,24,24,24,0,0,74,74,74,74,74,0,74,0,40,40,40,40,40,0,40,02-02-22,02-02-22,18:02:52,Wed Mar 02 2022 18:02:52 GMT+0100 (közép-európai téli idő),The main experiment item,yes,0,0,C:/Users/rrics/Documents/!!ResearchBMECOGSCI/gnet,0,0,0,prototype3.png,no,mono,no,18,no,black,no,no,768,1170,3.5.6,legacy,xpyriment,osweb,1.3.13,0,left,space,space,left,45189,13828,86507,45189,2,legacy,728,1366,24,768,24,0,0,1366,1646240610817,1024,2,48000,-16,experiment,p2sarrsha3.png,0,even,Win32,749,126460,123450,748,749,702848,704353,697848,127979,697848,749,934160,935667,931168,704360,931167,visual_patterns,0,0,0,yes,1366
undefined,undefined,undefined,undefined,white,no,Mozilla,Netscape,"5.0 (Windows NT 10.0; Win64; x64) AppleWebKit/537.36 (KHTML, like Gecko) Chrome/98.0.4758.102 Safari/537.36 Edg/98.0.1108.62",xpyriment,legacy,legacy,0,uniform,0,0,0,0,24,24,24,0,0,74,74,74,74,74,0,74,0,41,41,41,41,41,0,41,02-02-22,02-02-22,18:02:52,Wed Mar 02 2022 18:02:52 GMT+0100 (közép-európai téli idő),The main experiment item,yes,0,0,C:/Users/rrics/Documents/!!ResearchBMECOGSCI/gnet,0,0,0,prototype3.png,no,mono,no,18,no,black,no,no,768,1170,3.5.6,legacy,xpyriment,osweb,1.3.13,0,left,space,space,left,45189,13828,86507,45189,2,legacy,728,1366,24,768,24,0,0,1366,1646240610817,1024,2,48000,-16,experiment,p9sarr3.png,0,even,Win32,749,126460,123450,748,749,702848,704353,697848,127979,697848,749,938693,940197,935706,704360,935706,visual_patterns,0,0,0,yes,1366
undefined,undefined,undefined,undefined,white,no,Mozilla,Netscape,"5.0 (Windows NT 10.0; Win64; x64) AppleWebKit/537.36 (KHTML, like Gecko) Chrome/98.0.4758.102 Safari/537.36 Edg/98.0.1108.62",xpyriment,legacy,legacy,0,uniform,0,0,0,0,24,24,24,0,0,74,74,74,74,74,0,74,0,42,42,42,42,42,0,42,02-02-22,02-02-22,18:02:52,Wed Mar 02 2022 18:02:52 GMT+0100 (közép-európai téli idő),The main experiment item,yes,0,0,C:/Users/rrics/Documents/!!ResearchBMECOGSCI/gnet,0,0,0,prototype3.png,no,mono,no,18,no,black,no,no,768,1170,3.5.6,legacy,xpyriment,osweb,1.3.13,0,left,space,space,left,45189,13828,86507,45189,2,legacy,728,1366,24,768,24,0,0,1366,1646240610817,1024,2,48000,-16,experiment,p10sarr4.png,0,even,Win32,749,126460,123450,748,749,702848,704353,697848,127979,697848,749,943260,944762,940270,704360,940270,visual_patterns,0,0,0,yes,1366
undefined,undefined,undefined,undefined,white,no,Mozilla,Netscape,"5.0 (Windows NT 10.0; Win64; x64) AppleWebKit/537.36 (KHTML, like Gecko) Chrome/98.0.4758.102 Safari/537.36 Edg/98.0.1108.62",xpyriment,legacy,legacy,0,uniform,0,0,0,0,24,24,24,0,0,74,74,74,74,74,0,74,0,43,43,43,43,43,0,43,02-02-22,02-02-22,18:02:52,Wed Mar 02 2022 18:02:52 GMT+0100 (közép-európai téli idő),The main experiment item,yes,0,0,C:/Users/rrics/Documents/!!ResearchBMECOGSCI/gnet,0,0,0,prototype3.png,no,mono,no,18,no,black,no,no,768,1170,3.5.6,legacy,xpyriment,osweb,1.3.13,0,left,space,space,left,45189,13828,86507,45189,2,legacy,728,1366,24,768,24,0,0,1366,1646240610817,1024,2,48000,-16,experiment,p4sarrcol1.png,0,even,Win32,749,126460,123450,748,749,702848,704353,697848,127979,697848,749,947787,949291,944797,704360,944797,visual_patterns,0,0,0,yes,1366
undefined,undefined,undefined,undefined,white,no,Mozilla,Netscape,"5.0 (Windows NT 10.0; Win64; x64) AppleWebKit/537.36 (KHTML, like Gecko) Chrome/98.0.4758.102 Safari/537.36 Edg/98.0.1108.62",xpyriment,legacy,legacy,0,uniform,0,0,0,0,24,24,24,0,0,74,74,74,74,74,0,74,0,44,44,44,44,44,0,44,02-02-22,02-02-22,18:02:52,Wed Mar 02 2022 18:02:52 GMT+0100 (közép-európai téli idő),The main experiment item,yes,0,0,C:/Users/rrics/Documents/!!ResearchBMECOGSCI/gnet,0,0,0,prototype3.png,no,mono,no,18,no,black,no,no,768,1170,3.5.6,legacy,xpyriment,osweb,1.3.13,0,left,space,space,left,45189,13828,86507,45189,2,legacy,728,1366,24,768,24,0,0,1366,1646240610817,1024,2,48000,-16,experiment,p5sarrshacol4.png,0,even,Win32,749,126460,123450,748,749,702848,704353,697848,127979,697848,749,952316,953821,949324,704360,949322,visual_patterns,0,0,0,yes,1366
undefined,undefined,undefined,undefined,white,no,Mozilla,Netscape,"5.0 (Windows NT 10.0; Win64; x64) AppleWebKit/537.36 (KHTML, like Gecko) Chrome/98.0.4758.102 Safari/537.36 Edg/98.0.1108.62",xpyriment,legacy,legacy,0,uniform,0,0,0,0,24,24,24,0,0,74,74,74,74,74,0,74,0,45,45,45,45,45,0,45,02-02-22,02-02-22,18:02:52,Wed Mar 02 2022 18:02:52 GMT+0100 (közép-európai téli idő),The main experiment item,yes,0,0,C:/Users/rrics/Documents/!!ResearchBMECOGSCI/gnet,0,0,0,prototype3.png,no,mono,no,18,no,black,no,no,768,1170,3.5.6,legacy,xpyriment,osweb,1.3.13,0,left,space,space,left,45189,13828,86507,45189,2,legacy,728,1366,24,768,24,0,0,1366,1646240610817,1024,2,48000,-16,experiment,p3sarr3.png,0,even,Win32,749,126460,123450,748,749,702848,704353,697848,127979,697848,749,956848,958352,953860,704360,953860,visual_patterns,0,0,0,yes,1366
