acc,accuracy,average_response_time,avg_rt,background,bidi,browser_codename,browser_name,browser_version,canvas_backend,clock_backend,color_backend,compensation,coordinates,count_end,count_experiment,count_osweb,count_prestudy,count_prestudy_isi,count_prestudy_sequence,count_prestudy_stimpres,count_start,count_study,count_study_coroutines,count_study_isi,count_study_logger,count_study_response,count_study_sequence,count_study_start,count_study_stimpres,count_test,count_test_coroutines,count_test_isi,count_test_logger,count_test_response,count_test_sequence,count_test_start,count_test_stimpres,date_startdate,date_startdateUTC,date_starttime,datetime,description,disable_garbage_collection,experiment_debug,experiment_parameters,experiment_path,experiment_pilot,experiment_taskname,experiment_taskversion,fampict,font_bold,font_family,font_italic,font_size,font_underline,foreground,form_clicks,fullscreen,height,jatosStudyResultId,jatosVersion,keyboard_backend,mouse_backend,opensesame_codename,opensesame_version,repeat_cycle,response,response_start,response_study_start,response_test_start,response_time,response_time_start,response_time_study_start,response_time_test_start,round_decimals,sampler_backend,screen_availableHeight,screen_availableWidth,screen_colorDepth,screen_height,screen_pixelDepth,screen_screenX,screen_screenY,screen_width,sessionid,sound_buf_size,sound_channels,sound_freq,sound_sample_size,start,stim,subject_nr,subject_parity,system_os,time_prestudy,time_prestudy_isi,time_prestudy_stimpres,time_start,time_study,time_study_isi,time_study_logger,time_study_response,time_study_start,time_study_stimpres,time_test,time_test_isi,time_test_logger,time_test_response,time_test_start,time_test_stimpres,title,total_correct,total_response_time,total_responses,uniform_coordinates,width
undefined,undefined,undefined,undefined,white,no,Mozilla,Netscape,"5.0 (Windows NT 10.0; Win64; x64) AppleWebKit/537.36 (KHTML, like Gecko) Chrome/98.0.4758.80 Safari/537.36 Edg/98.0.1108.50",xpyriment,legacy,legacy,0,uniform,0,0,0,0,24,24,24,0,0,0,0,0,0,0,0,0,0,,,,,,0,,02-02-22,02-02-22,20:02:55,Wed Mar 02 2022 20:02:55 GMT+0100 (közép-európai téli idő),The main experiment item,yes,0,0,C:/Users/rrics/Documents/!!ResearchBMECOGSCI/gnet,0,0,0,prototype4.png,no,mono,no,18,no,black,no,no,768,1172,3.5.6,legacy,xpyriment,osweb,1.3.13,0,right,enter,right,,45544,33063,45544,,2,legacy,728,1366,24,768,24,0,0,1366,1646247792317,1024,2,48000,-16,experiment,p6sarr1.png,0,even,Win32,150,144930,141915,149,150,197011,198528,192009,146448,192009,150,,,,,,visual_patterns,0,0,0,yes,1366
undefined,undefined,undefined,undefined,white,no,Mozilla,Netscape,"5.0 (Windows NT 10.0; Win64; x64) AppleWebKit/537.36 (KHTML, like Gecko) Chrome/98.0.4758.80 Safari/537.36 Edg/98.0.1108.50",xpyriment,legacy,legacy,0,uniform,0,0,0,0,24,24,24,0,0,1,1,1,1,1,0,1,0,,,,,,0,,02-02-22,02-02-22,20:02:55,Wed Mar 02 2022 20:02:55 GMT+0100 (közép-európai téli idő),The main experiment item,yes,0,0,C:/Users/rrics/Documents/!!ResearchBMECOGSCI/gnet,0,0,0,prototype4.png,no,mono,no,18,no,black,no,no,768,1172,3.5.6,legacy,xpyriment,osweb,1.3.13,0,right,enter,right,,45544,33063,45544,,2,legacy,728,1366,24,768,24,0,0,1366,1646247792317,1024,2,48000,-16,experiment,prototype3.png,0,even,Win32,150,144930,141915,149,150,203550,205061,198546,146448,198546,150,,,,,,visual_patterns,0,0,0,yes,1366
undefined,undefined,undefined,undefined,white,no,Mozilla,Netscape,"5.0 (Windows NT 10.0; Win64; x64) AppleWebKit/537.36 (KHTML, like Gecko) Chrome/98.0.4758.80 Safari/537.36 Edg/98.0.1108.50",xpyriment,legacy,legacy,0,uniform,0,0,0,0,24,24,24,0,0,2,2,2,2,2,0,2,0,,,,,,0,,02-02-22,02-02-22,20:02:55,Wed Mar 02 2022 20:02:55 GMT+0100 (közép-európai téli idő),The main experiment item,yes,0,0,C:/Users/rrics/Documents/!!ResearchBMECOGSCI/gnet,0,0,0,prototype4.png,no,mono,no,18,no,black,no,no,768,1172,3.5.6,legacy,xpyriment,osweb,1.3.13,0,right,enter,right,,45544,33063,45544,,2,legacy,728,1366,24,768,24,0,0,1366,1646247792317,1024,2,48000,-16,experiment,p3sarr1.png,0,even,Win32,150,144930,141915,149,150,210069,211578,205070,146448,205070,150,,,,,,visual_patterns,0,0,0,yes,1366
undefined,undefined,undefined,undefined,white,no,Mozilla,Netscape,"5.0 (Windows NT 10.0; Win64; x64) AppleWebKit/537.36 (KHTML, like Gecko) Chrome/98.0.4758.80 Safari/537.36 Edg/98.0.1108.50",xpyriment,legacy,legacy,0,uniform,0,0,0,0,24,24,24,0,0,3,3,3,3,3,0,3,0,,,,,,0,,02-02-22,02-02-22,20:02:55,Wed Mar 02 2022 20:02:55 GMT+0100 (közép-európai téli idő),The main experiment item,yes,0,0,C:/Users/rrics/Documents/!!ResearchBMECOGSCI/gnet,0,0,0,prototype4.png,no,mono,no,18,no,black,no,no,768,1172,3.5.6,legacy,xpyriment,osweb,1.3.13,0,right,enter,right,,45544,33063,45544,,2,legacy,728,1366,24,768,24,0,0,1366,1646247792317,1024,2,48000,-16,experiment,p9sarr2.png,0,even,Win32,150,144930,141915,149,150,216587,218095,211584,146448,211584,150,,,,,,visual_patterns,0,0,0,yes,1366
undefined,undefined,undefined,undefined,white,no,Mozilla,Netscape,"5.0 (Windows NT 10.0; Win64; x64) AppleWebKit/537.36 (KHTML, like Gecko) Chrome/98.0.4758.80 Safari/537.36 Edg/98.0.1108.50",xpyriment,legacy,legacy,0,uniform,0,0,0,0,24,24,24,0,0,4,4,4,4,4,0,4,0,,,,,,0,,02-02-22,02-02-22,20:02:55,Wed Mar 02 2022 20:02:55 GMT+0100 (közép-európai téli idő),The main experiment item,yes,0,0,C:/Users/rrics/Documents/!!ResearchBMECOGSCI/gnet,0,0,0,prototype4.png,no,mono,no,18,no,black,no,no,768,1172,3.5.6,legacy,xpyriment,osweb,1.3.13,0,right,enter,right,,45544,33063,45544,,2,legacy,728,1366,24,768,24,0,0,1366,1646247792317,1024,2,48000,-16,experiment,p4sarr2.png,0,even,Win32,150,144930,141915,149,150,223103,224609,218102,146448,218102,150,,,,,,visual_patterns,0,0,0,yes,1366
undefined,undefined,undefined,undefined,white,no,Mozilla,Netscape,"5.0 (Windows NT 10.0; Win64; x64) AppleWebKit/537.36 (KHTML, like Gecko) Chrome/98.0.4758.80 Safari/537.36 Edg/98.0.1108.50",xpyriment,legacy,legacy,0,uniform,0,0,0,0,24,24,24,0,0,5,5,5,5,5,0,5,0,,,,,,0,,02-02-22,02-02-22,20:02:55,Wed Mar 02 2022 20:02:55 GMT+0100 (közép-európai téli idő),The main experiment item,yes,0,0,C:/Users/rrics/Documents/!!ResearchBMECOGSCI/gnet,0,0,0,prototype4.png,no,mono,no,18,no,black,no,no,768,1172,3.5.6,legacy,xpyriment,osweb,1.3.13,0,right,enter,right,,45544,33063,45544,,2,legacy,728,1366,24,768,24,0,0,1366,1646247792317,1024,2,48000,-16,experiment,p4sarrshacol2.png,0,even,Win32,150,144930,141915,149,150,229617,231126,224616,146448,224616,150,,,,,,visual_patterns,0,0,0,yes,1366
undefined,undefined,undefined,undefined,white,no,Mozilla,Netscape,"5.0 (Windows NT 10.0; Win64; x64) AppleWebKit/537.36 (KHTML, like Gecko) Chrome/98.0.4758.80 Safari/537.36 Edg/98.0.1108.50",xpyriment,legacy,legacy,0,uniform,0,0,0,0,24,24,24,0,0,6,6,6,6,6,0,6,0,,,,,,0,,02-02-22,02-02-22,20:02:55,Wed Mar 02 2022 20:02:55 GMT+0100 (közép-európai téli idő),The main experiment item,yes,0,0,C:/Users/rrics/Documents/!!ResearchBMECOGSCI/gnet,0,0,0,prototype4.png,no,mono,no,18,no,black,no,no,768,1172,3.5.6,legacy,xpyriment,osweb,1.3.13,0,right,enter,right,,45544,33063,45544,,2,legacy,728,1366,24,768,24,0,0,1366,1646247792317,1024,2,48000,-16,experiment,p5sarrsha2.png,0,even,Win32,150,144930,141915,149,150,236133,237644,231132,146448,231132,150,,,,,,visual_patterns,0,0,0,yes,1366
undefined,undefined,undefined,undefined,white,no,Mozilla,Netscape,"5.0 (Windows NT 10.0; Win64; x64) AppleWebKit/537.36 (KHTML, like Gecko) Chrome/98.0.4758.80 Safari/537.36 Edg/98.0.1108.50",xpyriment,legacy,legacy,0,uniform,0,0,0,0,24,24,24,0,0,7,7,7,7,7,0,7,0,,,,,,0,,02-02-22,02-02-22,20:02:55,Wed Mar 02 2022 20:02:55 GMT+0100 (közép-európai téli idő),The main experiment item,yes,0,0,C:/Users/rrics/Documents/!!ResearchBMECOGSCI/gnet,0,0,0,prototype4.png,no,mono,no,18,no,black,no,no,768,1172,3.5.6,legacy,xpyriment,osweb,1.3.13,0,right,enter,right,,45544,33063,45544,,2,legacy,728,1366,24,768,24,0,0,1366,1646247792317,1024,2,48000,-16,experiment,p2sarr1.png,0,even,Win32,150,144930,141915,149,150,242652,244159,237651,146448,237651,150,,,,,,visual_patterns,0,0,0,yes,1366
undefined,undefined,undefined,undefined,white,no,Mozilla,Netscape,"5.0 (Windows NT 10.0; Win64; x64) AppleWebKit/537.36 (KHTML, like Gecko) Chrome/98.0.4758.80 Safari/537.36 Edg/98.0.1108.50",xpyriment,legacy,legacy,0,uniform,0,0,0,0,24,24,24,0,0,8,8,8,8,8,0,8,0,,,,,,0,,02-02-22,02-02-22,20:02:55,Wed Mar 02 2022 20:02:55 GMT+0100 (közép-európai téli idő),The main experiment item,yes,0,0,C:/Users/rrics/Documents/!!ResearchBMECOGSCI/gnet,0,0,0,prototype4.png,no,mono,no,18,no,black,no,no,768,1172,3.5.6,legacy,xpyriment,osweb,1.3.13,0,right,enter,right,,45544,33063,45544,,2,legacy,728,1366,24,768,24,0,0,1366,1646247792317,1024,2,48000,-16,experiment,prototype4.png,0,even,Win32,150,144930,141915,149,150,249168,250675,244164,146448,244164,150,,,,,,visual_patterns,0,0,0,yes,1366
undefined,undefined,undefined,undefined,white,no,Mozilla,Netscape,"5.0 (Windows NT 10.0; Win64; x64) AppleWebKit/537.36 (KHTML, like Gecko) Chrome/98.0.4758.80 Safari/537.36 Edg/98.0.1108.50",xpyriment,legacy,legacy,0,uniform,0,0,0,0,24,24,24,0,0,9,9,9,9,9,0,9,0,,,,,,0,,02-02-22,02-02-22,20:02:55,Wed Mar 02 2022 20:02:55 GMT+0100 (közép-európai téli idő),The main experiment item,yes,0,0,C:/Users/rrics/Documents/!!ResearchBMECOGSCI/gnet,0,0,0,prototype4.png,no,mono,no,18,no,black,no,no,768,1172,3.5.6,legacy,xpyriment,osweb,1.3.13,0,right,enter,right,,45544,33063,45544,,2,legacy,728,1366,24,768,24,0,0,1366,1646247792317,1024,2,48000,-16,experiment,p5sarrsha1.png,0,even,Win32,150,144930,141915,149,150,255684,257191,250683,146448,250683,150,,,,,,visual_patterns,0,0,0,yes,1366
undefined,undefined,undefined,undefined,white,no,Mozilla,Netscape,"5.0 (Windows NT 10.0; Win64; x64) AppleWebKit/537.36 (KHTML, like Gecko) Chrome/98.0.4758.80 Safari/537.36 Edg/98.0.1108.50",xpyriment,legacy,legacy,0,uniform,0,0,0,0,24,24,24,0,0,10,10,10,10,10,0,10,0,,,,,,0,,02-02-22,02-02-22,20:02:55,Wed Mar 02 2022 20:02:55 GMT+0100 (közép-európai téli idő),The main experiment item,yes,0,0,C:/Users/rrics/Documents/!!ResearchBMECOGSCI/gnet,0,0,0,prototype4.png,no,mono,no,18,no,black,no,no,768,1172,3.5.6,legacy,xpyriment,osweb,1.3.13,0,right,enter,right,,45544,33063,45544,,2,legacy,728,1366,24,768,24,0,0,1366,1646247792317,1024,2,48000,-16,experiment,p5sarrcol1.png,0,even,Win32,150,144930,141915,149,150,262200,263707,257198,146448,257198,150,,,,,,visual_patterns,0,0,0,yes,1366
undefined,undefined,undefined,undefined,white,no,Mozilla,Netscape,"5.0 (Windows NT 10.0; Win64; x64) AppleWebKit/537.36 (KHTML, like Gecko) Chrome/98.0.4758.80 Safari/537.36 Edg/98.0.1108.50",xpyriment,legacy,legacy,0,uniform,0,0,0,0,24,24,24,0,0,11,11,11,11,11,0,11,0,,,,,,0,,02-02-22,02-02-22,20:02:55,Wed Mar 02 2022 20:02:55 GMT+0100 (közép-európai téli idő),The main experiment item,yes,0,0,C:/Users/rrics/Documents/!!ResearchBMECOGSCI/gnet,0,0,0,prototype4.png,no,mono,no,18,no,black,no,no,768,1172,3.5.6,legacy,xpyriment,osweb,1.3.13,0,right,enter,right,,45544,33063,45544,,2,legacy,728,1366,24,768,24,0,0,1366,1646247792317,1024,2,48000,-16,experiment,p8sarr2.png,0,even,Win32,150,144930,141915,149,150,268716,270224,263716,146448,263716,150,,,,,,visual_patterns,0,0,0,yes,1366
undefined,undefined,undefined,undefined,white,no,Mozilla,Netscape,"5.0 (Windows NT 10.0; Win64; x64) AppleWebKit/537.36 (KHTML, like Gecko) Chrome/98.0.4758.80 Safari/537.36 Edg/98.0.1108.50",xpyriment,legacy,legacy,0,uniform,0,0,0,0,24,24,24,0,0,12,12,12,12,12,0,12,0,,,,,,0,,02-02-22,02-02-22,20:02:55,Wed Mar 02 2022 20:02:55 GMT+0100 (közép-európai téli idő),The main experiment item,yes,0,0,C:/Users/rrics/Documents/!!ResearchBMECOGSCI/gnet,0,0,0,prototype4.png,no,mono,no,18,no,black,no,no,768,1172,3.5.6,legacy,xpyriment,osweb,1.3.13,0,right,enter,right,,45544,33063,45544,,2,legacy,728,1366,24,768,24,0,0,1366,1646247792317,1024,2,48000,-16,experiment,p5sarrshacol2.png,0,even,Win32,150,144930,141915,149,150,275234,276741,270233,146448,270233,150,,,,,,visual_patterns,0,0,0,yes,1366
undefined,undefined,undefined,undefined,white,no,Mozilla,Netscape,"5.0 (Windows NT 10.0; Win64; x64) AppleWebKit/537.36 (KHTML, like Gecko) Chrome/98.0.4758.80 Safari/537.36 Edg/98.0.1108.50",xpyriment,legacy,legacy,0,uniform,0,0,0,0,24,24,24,0,0,13,13,13,13,13,0,13,0,,,,,,0,,02-02-22,02-02-22,20:02:55,Wed Mar 02 2022 20:02:55 GMT+0100 (közép-európai téli idő),The main experiment item,yes,0,0,C:/Users/rrics/Documents/!!ResearchBMECOGSCI/gnet,0,0,0,prototype4.png,no,mono,no,18,no,black,no,no,768,1172,3.5.6,legacy,xpyriment,osweb,1.3.13,0,right,enter,right,,45544,33063,45544,,2,legacy,728,1366,24,768,24,0,0,1366,1646247792317,1024,2,48000,-16,experiment,p8sarr1.png,0,even,Win32,150,144930,141915,149,150,281752,283257,276751,146448,276751,150,,,,,,visual_patterns,0,0,0,yes,1366
undefined,undefined,undefined,undefined,white,no,Mozilla,Netscape,"5.0 (Windows NT 10.0; Win64; x64) AppleWebKit/537.36 (KHTML, like Gecko) Chrome/98.0.4758.80 Safari/537.36 Edg/98.0.1108.50",xpyriment,legacy,legacy,0,uniform,0,0,0,0,24,24,24,0,0,14,14,14,14,14,0,14,0,,,,,,0,,02-02-22,02-02-22,20:02:55,Wed Mar 02 2022 20:02:55 GMT+0100 (közép-európai téli idő),The main experiment item,yes,0,0,C:/Users/rrics/Documents/!!ResearchBMECOGSCI/gnet,0,0,0,prototype4.png,no,mono,no,18,no,black,no,no,768,1172,3.5.6,legacy,xpyriment,osweb,1.3.13,0,right,enter,right,,45544,33063,45544,,2,legacy,728,1366,24,768,24,0,0,1366,1646247792317,1024,2,48000,-16,experiment,p3sarrcol1.png,0,even,Win32,150,144930,141915,149,150,288265,289774,283266,146448,283266,150,,,,,,visual_patterns,0,0,0,yes,1366
undefined,undefined,undefined,undefined,white,no,Mozilla,Netscape,"5.0 (Windows NT 10.0; Win64; x64) AppleWebKit/537.36 (KHTML, like Gecko) Chrome/98.0.4758.80 Safari/537.36 Edg/98.0.1108.50",xpyriment,legacy,legacy,0,uniform,0,0,0,0,24,24,24,0,0,15,15,15,15,15,0,15,0,,,,,,0,,02-02-22,02-02-22,20:02:55,Wed Mar 02 2022 20:02:55 GMT+0100 (közép-európai téli idő),The main experiment item,yes,0,0,C:/Users/rrics/Documents/!!ResearchBMECOGSCI/gnet,0,0,0,prototype4.png,no,mono,no,18,no,black,no,no,768,1172,3.5.6,legacy,xpyriment,osweb,1.3.13,0,right,enter,right,,45544,33063,45544,,2,legacy,728,1366,24,768,24,0,0,1366,1646247792317,1024,2,48000,-16,experiment,prototype1.png,0,even,Win32,150,144930,141915,149,150,294786,296289,289783,146448,289783,150,,,,,,visual_patterns,0,0,0,yes,1366
undefined,undefined,undefined,undefined,white,no,Mozilla,Netscape,"5.0 (Windows NT 10.0; Win64; x64) AppleWebKit/537.36 (KHTML, like Gecko) Chrome/98.0.4758.80 Safari/537.36 Edg/98.0.1108.50",xpyriment,legacy,legacy,0,uniform,0,0,0,0,24,24,24,0,0,16,16,16,16,16,0,16,0,,,,,,0,,02-02-22,02-02-22,20:02:55,Wed Mar 02 2022 20:02:55 GMT+0100 (közép-európai téli idő),The main experiment item,yes,0,0,C:/Users/rrics/Documents/!!ResearchBMECOGSCI/gnet,0,0,0,prototype4.png,no,mono,no,18,no,black,no,no,768,1172,3.5.6,legacy,xpyriment,osweb,1.3.13,0,right,enter,right,,45544,33063,45544,,2,legacy,728,1366,24,768,24,0,0,1366,1646247792317,1024,2,48000,-16,experiment,p2sarr2.png,0,even,Win32,150,144930,141915,149,150,301295,302808,296297,146448,296297,150,,,,,,visual_patterns,0,0,0,yes,1366
undefined,undefined,undefined,undefined,white,no,Mozilla,Netscape,"5.0 (Windows NT 10.0; Win64; x64) AppleWebKit/537.36 (KHTML, like Gecko) Chrome/98.0.4758.80 Safari/537.36 Edg/98.0.1108.50",xpyriment,legacy,legacy,0,uniform,0,0,0,0,24,24,24,0,0,17,17,17,17,17,0,17,0,,,,,,0,,02-02-22,02-02-22,20:02:55,Wed Mar 02 2022 20:02:55 GMT+0100 (közép-európai téli idő),The main experiment item,yes,0,0,C:/Users/rrics/Documents/!!ResearchBMECOGSCI/gnet,0,0,0,prototype4.png,no,mono,no,18,no,black,no,no,768,1172,3.5.6,legacy,xpyriment,osweb,1.3.13,0,right,enter,right,,45544,33063,45544,,2,legacy,728,1366,24,768,24,0,0,1366,1646247792317,1024,2,48000,-16,experiment,p3sarrsha2.png,0,even,Win32,150,144930,141915,149,150,307819,309322,302816,146448,302815,150,,,,,,visual_patterns,0,0,0,yes,1366
undefined,undefined,undefined,undefined,white,no,Mozilla,Netscape,"5.0 (Windows NT 10.0; Win64; x64) AppleWebKit/537.36 (KHTML, like Gecko) Chrome/98.0.4758.80 Safari/537.36 Edg/98.0.1108.50",xpyriment,legacy,legacy,0,uniform,0,0,0,0,24,24,24,0,0,18,18,18,18,18,0,18,0,,,,,,0,,02-02-22,02-02-22,20:02:55,Wed Mar 02 2022 20:02:55 GMT+0100 (közép-európai téli idő),The main experiment item,yes,0,0,C:/Users/rrics/Documents/!!ResearchBMECOGSCI/gnet,0,0,0,prototype4.png,no,mono,no,18,no,black,no,no,768,1172,3.5.6,legacy,xpyriment,osweb,1.3.13,0,right,enter,right,,45544,33063,45544,,2,legacy,728,1366,24,768,24,0,0,1366,1646247792317,1024,2,48000,-16,experiment,prototype4.png,0,even,Win32,150,144930,141915,149,150,314328,315838,309328,146448,309328,150,,,,,,visual_patterns,0,0,0,yes,1366
undefined,undefined,undefined,undefined,white,no,Mozilla,Netscape,"5.0 (Windows NT 10.0; Win64; x64) AppleWebKit/537.36 (KHTML, like Gecko) Chrome/98.0.4758.80 Safari/537.36 Edg/98.0.1108.50",xpyriment,legacy,legacy,0,uniform,0,0,0,0,24,24,24,0,0,19,19,19,19,19,0,19,0,,,,,,0,,02-02-22,02-02-22,20:02:55,Wed Mar 02 2022 20:02:55 GMT+0100 (közép-európai téli idő),The main experiment item,yes,0,0,C:/Users/rrics/Documents/!!ResearchBMECOGSCI/gnet,0,0,0,prototype4.png,no,mono,no,18,no,black,no,no,768,1172,3.5.6,legacy,xpyriment,osweb,1.3.13,0,right,enter,right,,45544,33063,45544,,2,legacy,728,1366,24,768,24,0,0,1366,1646247792317,1024,2,48000,-16,experiment,p3sarrsha1.png,0,even,Win32,150,144930,141915,149,150,320846,322355,315846,146448,315846,150,,,,,,visual_patterns,0,0,0,yes,1366
undefined,undefined,undefined,undefined,white,no,Mozilla,Netscape,"5.0 (Windows NT 10.0; Win64; x64) AppleWebKit/537.36 (KHTML, like Gecko) Chrome/98.0.4758.80 Safari/537.36 Edg/98.0.1108.50",xpyriment,legacy,legacy,0,uniform,0,0,0,0,24,24,24,0,0,20,20,20,20,20,0,20,0,,,,,,0,,02-02-22,02-02-22,20:02:55,Wed Mar 02 2022 20:02:55 GMT+0100 (közép-európai téli idő),The main experiment item,yes,0,0,C:/Users/rrics/Documents/!!ResearchBMECOGSCI/gnet,0,0,0,prototype4.png,no,mono,no,18,no,black,no,no,768,1172,3.5.6,legacy,xpyriment,osweb,1.3.13,0,right,enter,right,,45544,33063,45544,,2,legacy,728,1366,24,768,24,0,0,1366,1646247792317,1024,2,48000,-16,experiment,prototype2.png,0,even,Win32,150,144930,141915,149,150,327363,328871,322361,146448,322361,150,,,,,,visual_patterns,0,0,0,yes,1366
undefined,undefined,undefined,undefined,white,no,Mozilla,Netscape,"5.0 (Windows NT 10.0; Win64; x64) AppleWebKit/537.36 (KHTML, like Gecko) Chrome/98.0.4758.80 Safari/537.36 Edg/98.0.1108.50",xpyriment,legacy,legacy,0,uniform,0,0,0,0,24,24,24,0,0,21,21,21,21,21,0,21,0,,,,,,0,,02-02-22,02-02-22,20:02:55,Wed Mar 02 2022 20:02:55 GMT+0100 (közép-európai téli idő),The main experiment item,yes,0,0,C:/Users/rrics/Documents/!!ResearchBMECOGSCI/gnet,0,0,0,prototype4.png,no,mono,no,18,no,black,no,no,768,1172,3.5.6,legacy,xpyriment,osweb,1.3.13,0,right,enter,right,,45544,33063,45544,,2,legacy,728,1366,24,768,24,0,0,1366,1646247792317,1024,2,48000,-16,experiment,p4sarrcol2.png,0,even,Win32,150,144930,141915,149,150,333887,335388,328888,146448,328888,150,,,,,,visual_patterns,0,0,0,yes,1366
undefined,undefined,undefined,undefined,white,no,Mozilla,Netscape,"5.0 (Windows NT 10.0; Win64; x64) AppleWebKit/537.36 (KHTML, like Gecko) Chrome/98.0.4758.80 Safari/537.36 Edg/98.0.1108.50",xpyriment,legacy,legacy,0,uniform,0,0,0,0,24,24,24,0,0,22,22,22,22,22,0,22,0,,,,,,0,,02-02-22,02-02-22,20:02:55,Wed Mar 02 2022 20:02:55 GMT+0100 (közép-európai téli idő),The main experiment item,yes,0,0,C:/Users/rrics/Documents/!!ResearchBMECOGSCI/gnet,0,0,0,prototype4.png,no,mono,no,18,no,black,no,no,768,1172,3.5.6,legacy,xpyriment,osweb,1.3.13,0,right,enter,right,,45544,33063,45544,,2,legacy,728,1366,24,768,24,0,0,1366,1646247792317,1024,2,48000,-16,experiment,p5sarrshacol1.png,0,even,Win32,150,144930,141915,149,150,340396,341905,335395,146448,335395,150,,,,,,visual_patterns,0,0,0,yes,1366
undefined,undefined,undefined,undefined,white,no,Mozilla,Netscape,"5.0 (Windows NT 10.0; Win64; x64) AppleWebKit/537.36 (KHTML, like Gecko) Chrome/98.0.4758.80 Safari/537.36 Edg/98.0.1108.50",xpyriment,legacy,legacy,0,uniform,0,0,0,0,24,24,24,0,0,23,23,23,23,23,0,23,0,,,,,,0,,02-02-22,02-02-22,20:02:55,Wed Mar 02 2022 20:02:55 GMT+0100 (közép-európai téli idő),The main experiment item,yes,0,0,C:/Users/rrics/Documents/!!ResearchBMECOGSCI/gnet,0,0,0,prototype4.png,no,mono,no,18,no,black,no,no,768,1172,3.5.6,legacy,xpyriment,osweb,1.3.13,0,right,enter,right,,45544,33063,45544,,2,legacy,728,1366,24,768,24,0,0,1366,1646247792317,1024,2,48000,-16,experiment,prototype2.png,0,even,Win32,150,144930,141915,149,150,346913,348420,341913,146448,341913,150,,,,,,visual_patterns,0,0,0,yes,1366
undefined,undefined,undefined,undefined,white,no,Mozilla,Netscape,"5.0 (Windows NT 10.0; Win64; x64) AppleWebKit/537.36 (KHTML, like Gecko) Chrome/98.0.4758.80 Safari/537.36 Edg/98.0.1108.50",xpyriment,legacy,legacy,0,uniform,0,0,0,0,24,24,24,0,0,24,24,24,24,24,0,24,0,,,,,,0,,02-02-22,02-02-22,20:02:55,Wed Mar 02 2022 20:02:55 GMT+0100 (közép-európai téli idő),The main experiment item,yes,0,0,C:/Users/rrics/Documents/!!ResearchBMECOGSCI/gnet,0,0,0,prototype4.png,no,mono,no,18,no,black,no,no,768,1172,3.5.6,legacy,xpyriment,osweb,1.3.13,0,right,enter,right,,45544,33063,45544,,2,legacy,728,1366,24,768,24,0,0,1366,1646247792317,1024,2,48000,-16,experiment,p4sarrsha2.png,0,even,Win32,150,144930,141915,149,150,353429,354938,348430,146448,348430,150,,,,,,visual_patterns,0,0,0,yes,1366
undefined,undefined,undefined,undefined,white,no,Mozilla,Netscape,"5.0 (Windows NT 10.0; Win64; x64) AppleWebKit/537.36 (KHTML, like Gecko) Chrome/98.0.4758.80 Safari/537.36 Edg/98.0.1108.50",xpyriment,legacy,legacy,0,uniform,0,0,0,0,24,24,24,0,0,25,25,25,25,25,0,25,0,,,,,,0,,02-02-22,02-02-22,20:02:55,Wed Mar 02 2022 20:02:55 GMT+0100 (közép-európai téli idő),The main experiment item,yes,0,0,C:/Users/rrics/Documents/!!ResearchBMECOGSCI/gnet,0,0,0,prototype4.png,no,mono,no,18,no,black,no,no,768,1172,3.5.6,legacy,xpyriment,osweb,1.3.13,0,right,enter,right,,45544,33063,45544,,2,legacy,728,1366,24,768,24,0,0,1366,1646247792317,1024,2,48000,-16,experiment,p9sarr1.png,0,even,Win32,150,144930,141915,149,150,359947,361454,354946,146448,354946,150,,,,,,visual_patterns,0,0,0,yes,1366
undefined,undefined,undefined,undefined,white,no,Mozilla,Netscape,"5.0 (Windows NT 10.0; Win64; x64) AppleWebKit/537.36 (KHTML, like Gecko) Chrome/98.0.4758.80 Safari/537.36 Edg/98.0.1108.50",xpyriment,legacy,legacy,0,uniform,0,0,0,0,24,24,24,0,0,26,26,26,26,26,0,26,0,,,,,,0,,02-02-22,02-02-22,20:02:55,Wed Mar 02 2022 20:02:55 GMT+0100 (közép-európai téli idő),The main experiment item,yes,0,0,C:/Users/rrics/Documents/!!ResearchBMECOGSCI/gnet,0,0,0,prototype4.png,no,mono,no,18,no,black,no,no,768,1172,3.5.6,legacy,xpyriment,osweb,1.3.13,0,right,enter,right,,45544,33063,45544,,2,legacy,728,1366,24,768,24,0,0,1366,1646247792317,1024,2,48000,-16,experiment,prototype1.png,0,even,Win32,150,144930,141915,149,150,366471,367986,361469,146448,361469,150,,,,,,visual_patterns,0,0,0,yes,1366
undefined,undefined,undefined,undefined,white,no,Mozilla,Netscape,"5.0 (Windows NT 10.0; Win64; x64) AppleWebKit/537.36 (KHTML, like Gecko) Chrome/98.0.4758.80 Safari/537.36 Edg/98.0.1108.50",xpyriment,legacy,legacy,0,uniform,0,0,0,0,24,24,24,0,0,27,27,27,27,27,0,27,0,,,,,,0,,02-02-22,02-02-22,20:02:55,Wed Mar 02 2022 20:02:55 GMT+0100 (közép-európai téli idő),The main experiment item,yes,0,0,C:/Users/rrics/Documents/!!ResearchBMECOGSCI/gnet,0,0,0,prototype4.png,no,mono,no,18,no,black,no,no,768,1172,3.5.6,legacy,xpyriment,osweb,1.3.13,0,right,enter,right,,45544,33063,45544,,2,legacy,728,1366,24,768,24,0,0,1366,1646247792317,1024,2,48000,-16,experiment,p4sarrcol1.png,0,even,Win32,150,144930,141915,149,150,372992,374504,367994,146448,367994,150,,,,,,visual_patterns,0,0,0,yes,1366
undefined,undefined,undefined,undefined,white,no,Mozilla,Netscape,"5.0 (Windows NT 10.0; Win64; x64) AppleWebKit/537.36 (KHTML, like Gecko) Chrome/98.0.4758.80 Safari/537.36 Edg/98.0.1108.50",xpyriment,legacy,legacy,0,uniform,0,0,0,0,24,24,24,0,0,28,28,28,28,28,0,28,0,,,,,,0,,02-02-22,02-02-22,20:02:55,Wed Mar 02 2022 20:02:55 GMT+0100 (közép-európai téli idő),The main experiment item,yes,0,0,C:/Users/rrics/Documents/!!ResearchBMECOGSCI/gnet,0,0,0,prototype4.png,no,mono,no,18,no,black,no,no,768,1172,3.5.6,legacy,xpyriment,osweb,1.3.13,0,right,enter,right,,45544,33063,45544,,2,legacy,728,1366,24,768,24,0,0,1366,1646247792317,1024,2,48000,-16,experiment,prototype4.png,0,even,Win32,150,144930,141915,149,150,379512,381018,374510,146448,374510,150,,,,,,visual_patterns,0,0,0,yes,1366
undefined,undefined,undefined,undefined,white,no,Mozilla,Netscape,"5.0 (Windows NT 10.0; Win64; x64) AppleWebKit/537.36 (KHTML, like Gecko) Chrome/98.0.4758.80 Safari/537.36 Edg/98.0.1108.50",xpyriment,legacy,legacy,0,uniform,0,0,0,0,24,24,24,0,0,29,29,29,29,29,0,29,0,,,,,,0,,02-02-22,02-02-22,20:02:55,Wed Mar 02 2022 20:02:55 GMT+0100 (közép-európai téli idő),The main experiment item,yes,0,0,C:/Users/rrics/Documents/!!ResearchBMECOGSCI/gnet,0,0,0,prototype4.png,no,mono,no,18,no,black,no,no,768,1172,3.5.6,legacy,xpyriment,osweb,1.3.13,0,right,enter,right,,45544,33063,45544,,2,legacy,728,1366,24,768,24,0,0,1366,1646247792317,1024,2,48000,-16,experiment,prototype5.png,0,even,Win32,150,144930,141915,149,150,386023,387535,381024,146448,381024,150,,,,,,visual_patterns,0,0,0,yes,1366
undefined,undefined,undefined,undefined,white,no,Mozilla,Netscape,"5.0 (Windows NT 10.0; Win64; x64) AppleWebKit/537.36 (KHTML, like Gecko) Chrome/98.0.4758.80 Safari/537.36 Edg/98.0.1108.50",xpyriment,legacy,legacy,0,uniform,0,0,0,0,24,24,24,0,0,30,30,30,30,30,0,30,0,,,,,,0,,02-02-22,02-02-22,20:02:55,Wed Mar 02 2022 20:02:55 GMT+0100 (közép-európai téli idő),The main experiment item,yes,0,0,C:/Users/rrics/Documents/!!ResearchBMECOGSCI/gnet,0,0,0,prototype4.png,no,mono,no,18,no,black,no,no,768,1172,3.5.6,legacy,xpyriment,osweb,1.3.13,0,right,enter,right,,45544,33063,45544,,2,legacy,728,1366,24,768,24,0,0,1366,1646247792317,1024,2,48000,-16,experiment,p5sarrcol2.png,0,even,Win32,150,144930,141915,149,150,392544,394052,387542,146448,387542,150,,,,,,visual_patterns,0,0,0,yes,1366
undefined,undefined,undefined,undefined,white,no,Mozilla,Netscape,"5.0 (Windows NT 10.0; Win64; x64) AppleWebKit/537.36 (KHTML, like Gecko) Chrome/98.0.4758.80 Safari/537.36 Edg/98.0.1108.50",xpyriment,legacy,legacy,0,uniform,0,0,0,0,24,24,24,0,0,31,31,31,31,31,0,31,0,,,,,,0,,02-02-22,02-02-22,20:02:55,Wed Mar 02 2022 20:02:55 GMT+0100 (közép-európai téli idő),The main experiment item,yes,0,0,C:/Users/rrics/Documents/!!ResearchBMECOGSCI/gnet,0,0,0,prototype4.png,no,mono,no,18,no,black,no,no,768,1172,3.5.6,legacy,xpyriment,osweb,1.3.13,0,right,enter,right,,45544,33063,45544,,2,legacy,728,1366,24,768,24,0,0,1366,1646247792317,1024,2,48000,-16,experiment,p2sarrsha2.png,0,even,Win32,150,144930,141915,149,150,399061,400567,394058,146448,394058,150,,,,,,visual_patterns,0,0,0,yes,1366
undefined,undefined,undefined,undefined,white,no,Mozilla,Netscape,"5.0 (Windows NT 10.0; Win64; x64) AppleWebKit/537.36 (KHTML, like Gecko) Chrome/98.0.4758.80 Safari/537.36 Edg/98.0.1108.50",xpyriment,legacy,legacy,0,uniform,0,0,0,0,24,24,24,0,0,32,32,32,32,32,0,32,0,,,,,,0,,02-02-22,02-02-22,20:02:55,Wed Mar 02 2022 20:02:55 GMT+0100 (közép-európai téli idő),The main experiment item,yes,0,0,C:/Users/rrics/Documents/!!ResearchBMECOGSCI/gnet,0,0,0,prototype4.png,no,mono,no,18,no,black,no,no,768,1172,3.5.6,legacy,xpyriment,osweb,1.3.13,0,right,enter,right,,45544,33063,45544,,2,legacy,728,1366,24,768,24,0,0,1366,1646247792317,1024,2,48000,-16,experiment,p5sarr1.png,0,even,Win32,150,144930,141915,149,150,405576,407084,400577,146448,400577,150,,,,,,visual_patterns,0,0,0,yes,1366
undefined,undefined,undefined,undefined,white,no,Mozilla,Netscape,"5.0 (Windows NT 10.0; Win64; x64) AppleWebKit/537.36 (KHTML, like Gecko) Chrome/98.0.4758.80 Safari/537.36 Edg/98.0.1108.50",xpyriment,legacy,legacy,0,uniform,0,0,0,0,24,24,24,0,0,33,33,33,33,33,0,33,0,,,,,,0,,02-02-22,02-02-22,20:02:55,Wed Mar 02 2022 20:02:55 GMT+0100 (közép-európai téli idő),The main experiment item,yes,0,0,C:/Users/rrics/Documents/!!ResearchBMECOGSCI/gnet,0,0,0,prototype4.png,no,mono,no,18,no,black,no,no,768,1172,3.5.6,legacy,xpyriment,osweb,1.3.13,0,right,enter,right,,45544,33063,45544,,2,legacy,728,1366,24,768,24,0,0,1366,1646247792317,1024,2,48000,-16,experiment,p3sarrshacol1.png,0,even,Win32,150,144930,141915,149,150,412095,413601,407093,146448,407093,150,,,,,,visual_patterns,0,0,0,yes,1366
undefined,undefined,undefined,undefined,white,no,Mozilla,Netscape,"5.0 (Windows NT 10.0; Win64; x64) AppleWebKit/537.36 (KHTML, like Gecko) Chrome/98.0.4758.80 Safari/537.36 Edg/98.0.1108.50",xpyriment,legacy,legacy,0,uniform,0,0,0,0,24,24,24,0,0,34,34,34,34,34,0,34,0,,,,,,0,,02-02-22,02-02-22,20:02:55,Wed Mar 02 2022 20:02:55 GMT+0100 (közép-európai téli idő),The main experiment item,yes,0,0,C:/Users/rrics/Documents/!!ResearchBMECOGSCI/gnet,0,0,0,prototype4.png,no,mono,no,18,no,black,no,no,768,1172,3.5.6,legacy,xpyriment,osweb,1.3.13,0,right,enter,right,,45544,33063,45544,,2,legacy,728,1366,24,768,24,0,0,1366,1646247792317,1024,2,48000,-16,experiment,prototype1.png,0,even,Win32,150,144930,141915,149,150,418606,420117,413607,146448,413607,150,,,,,,visual_patterns,0,0,0,yes,1366
undefined,undefined,undefined,undefined,white,no,Mozilla,Netscape,"5.0 (Windows NT 10.0; Win64; x64) AppleWebKit/537.36 (KHTML, like Gecko) Chrome/98.0.4758.80 Safari/537.36 Edg/98.0.1108.50",xpyriment,legacy,legacy,0,uniform,0,0,0,0,24,24,24,0,0,35,35,35,35,35,0,35,0,,,,,,0,,02-02-22,02-02-22,20:02:55,Wed Mar 02 2022 20:02:55 GMT+0100 (közép-európai téli idő),The main experiment item,yes,0,0,C:/Users/rrics/Documents/!!ResearchBMECOGSCI/gnet,0,0,0,prototype4.png,no,mono,no,18,no,black,no,no,768,1172,3.5.6,legacy,xpyriment,osweb,1.3.13,0,right,enter,right,,45544,33063,45544,,2,legacy,728,1366,24,768,24,0,0,1366,1646247792317,1024,2,48000,-16,experiment,p4sarrshacol1.png,0,even,Win32,150,144930,141915,149,150,425129,426633,420126,146448,420126,150,,,,,,visual_patterns,0,0,0,yes,1366
undefined,undefined,undefined,undefined,white,no,Mozilla,Netscape,"5.0 (Windows NT 10.0; Win64; x64) AppleWebKit/537.36 (KHTML, like Gecko) Chrome/98.0.4758.80 Safari/537.36 Edg/98.0.1108.50",xpyriment,legacy,legacy,0,uniform,0,0,0,0,24,24,24,0,0,36,36,36,36,36,0,36,0,,,,,,0,,02-02-22,02-02-22,20:02:55,Wed Mar 02 2022 20:02:55 GMT+0100 (közép-európai téli idő),The main experiment item,yes,0,0,C:/Users/rrics/Documents/!!ResearchBMECOGSCI/gnet,0,0,0,prototype4.png,no,mono,no,18,no,black,no,no,768,1172,3.5.6,legacy,xpyriment,osweb,1.3.13,0,right,enter,right,,45544,33063,45544,,2,legacy,728,1366,24,768,24,0,0,1366,1646247792317,1024,2,48000,-16,experiment,prototype3.png,0,even,Win32,150,144930,141915,149,150,431639,433149,426639,146448,426639,150,,,,,,visual_patterns,0,0,0,yes,1366
undefined,undefined,undefined,undefined,white,no,Mozilla,Netscape,"5.0 (Windows NT 10.0; Win64; x64) AppleWebKit/537.36 (KHTML, like Gecko) Chrome/98.0.4758.80 Safari/537.36 Edg/98.0.1108.50",xpyriment,legacy,legacy,0,uniform,0,0,0,0,24,24,24,0,0,37,37,37,37,37,0,37,0,,,,,,0,,02-02-22,02-02-22,20:02:55,Wed Mar 02 2022 20:02:55 GMT+0100 (közép-európai téli idő),The main experiment item,yes,0,0,C:/Users/rrics/Documents/!!ResearchBMECOGSCI/gnet,0,0,0,prototype4.png,no,mono,no,18,no,black,no,no,768,1172,3.5.6,legacy,xpyriment,osweb,1.3.13,0,right,enter,right,,45544,33063,45544,,2,legacy,728,1366,24,768,24,0,0,1366,1646247792317,1024,2,48000,-16,experiment,prototype3.png,0,even,Win32,150,144930,141915,149,150,438159,439666,433157,146448,433157,150,,,,,,visual_patterns,0,0,0,yes,1366
undefined,undefined,undefined,undefined,white,no,Mozilla,Netscape,"5.0 (Windows NT 10.0; Win64; x64) AppleWebKit/537.36 (KHTML, like Gecko) Chrome/98.0.4758.80 Safari/537.36 Edg/98.0.1108.50",xpyriment,legacy,legacy,0,uniform,0,0,0,0,24,24,24,0,0,38,38,38,38,38,0,38,0,,,,,,0,,02-02-22,02-02-22,20:02:55,Wed Mar 02 2022 20:02:55 GMT+0100 (közép-európai téli idő),The main experiment item,yes,0,0,C:/Users/rrics/Documents/!!ResearchBMECOGSCI/gnet,0,0,0,prototype4.png,no,mono,no,18,no,black,no,no,768,1172,3.5.6,legacy,xpyriment,osweb,1.3.13,0,right,enter,right,,45544,33063,45544,,2,legacy,728,1366,24,768,24,0,0,1366,1646247792317,1024,2,48000,-16,experiment,p7sarr1.png,0,even,Win32,150,144930,141915,149,150,444676,446182,439676,146448,439676,150,,,,,,visual_patterns,0,0,0,yes,1366
undefined,undefined,undefined,undefined,white,no,Mozilla,Netscape,"5.0 (Windows NT 10.0; Win64; x64) AppleWebKit/537.36 (KHTML, like Gecko) Chrome/98.0.4758.80 Safari/537.36 Edg/98.0.1108.50",xpyriment,legacy,legacy,0,uniform,0,0,0,0,24,24,24,0,0,39,39,39,39,39,0,39,0,,,,,,0,,02-02-22,02-02-22,20:02:55,Wed Mar 02 2022 20:02:55 GMT+0100 (közép-európai téli idő),The main experiment item,yes,0,0,C:/Users/rrics/Documents/!!ResearchBMECOGSCI/gnet,0,0,0,prototype4.png,no,mono,no,18,no,black,no,no,768,1172,3.5.6,legacy,xpyriment,osweb,1.3.13,0,right,enter,right,,45544,33063,45544,,2,legacy,728,1366,24,768,24,0,0,1366,1646247792317,1024,2,48000,-16,experiment,p1sarrsha1.png,0,even,Win32,150,144930,141915,149,150,451191,452698,446189,146448,446189,150,,,,,,visual_patterns,0,0,0,yes,1366
undefined,undefined,undefined,undefined,white,no,Mozilla,Netscape,"5.0 (Windows NT 10.0; Win64; x64) AppleWebKit/537.36 (KHTML, like Gecko) Chrome/98.0.4758.80 Safari/537.36 Edg/98.0.1108.50",xpyriment,legacy,legacy,0,uniform,0,0,0,0,24,24,24,0,0,40,40,40,40,40,0,40,0,,,,,,0,,02-02-22,02-02-22,20:02:55,Wed Mar 02 2022 20:02:55 GMT+0100 (közép-európai téli idő),The main experiment item,yes,0,0,C:/Users/rrics/Documents/!!ResearchBMECOGSCI/gnet,0,0,0,prototype4.png,no,mono,no,18,no,black,no,no,768,1172,3.5.6,legacy,xpyriment,osweb,1.3.13,0,right,enter,right,,45544,33063,45544,,2,legacy,728,1366,24,768,24,0,0,1366,1646247792317,1024,2,48000,-16,experiment,prototype5.png,0,even,Win32,150,144930,141915,149,150,457704,459216,452704,146448,452704,150,,,,,,visual_patterns,0,0,0,yes,1366
undefined,undefined,undefined,undefined,white,no,Mozilla,Netscape,"5.0 (Windows NT 10.0; Win64; x64) AppleWebKit/537.36 (KHTML, like Gecko) Chrome/98.0.4758.80 Safari/537.36 Edg/98.0.1108.50",xpyriment,legacy,legacy,0,uniform,0,0,0,0,24,24,24,0,0,41,41,41,41,41,0,41,0,,,,,,0,,02-02-22,02-02-22,20:02:55,Wed Mar 02 2022 20:02:55 GMT+0100 (közép-európai téli idő),The main experiment item,yes,0,0,C:/Users/rrics/Documents/!!ResearchBMECOGSCI/gnet,0,0,0,prototype4.png,no,mono,no,18,no,black,no,no,768,1172,3.5.6,legacy,xpyriment,osweb,1.3.13,0,right,enter,right,,45544,33063,45544,,2,legacy,728,1366,24,768,24,0,0,1366,1646247792317,1024,2,48000,-16,experiment,p3sarrshacol2.png,0,even,Win32,150,144930,141915,149,150,464226,465732,459225,146448,459225,150,,,,,,visual_patterns,0,0,0,yes,1366
undefined,undefined,undefined,undefined,white,no,Mozilla,Netscape,"5.0 (Windows NT 10.0; Win64; x64) AppleWebKit/537.36 (KHTML, like Gecko) Chrome/98.0.4758.80 Safari/537.36 Edg/98.0.1108.50",xpyriment,legacy,legacy,0,uniform,0,0,0,0,24,24,24,0,0,42,42,42,42,42,0,42,0,,,,,,0,,02-02-22,02-02-22,20:02:55,Wed Mar 02 2022 20:02:55 GMT+0100 (közép-európai téli idő),The main experiment item,yes,0,0,C:/Users/rrics/Documents/!!ResearchBMECOGSCI/gnet,0,0,0,prototype4.png,no,mono,no,18,no,black,no,no,768,1172,3.5.6,legacy,xpyriment,osweb,1.3.13,0,right,enter,right,,45544,33063,45544,,2,legacy,728,1366,24,768,24,0,0,1366,1646247792317,1024,2,48000,-16,experiment,p3sarrcol2.png,0,even,Win32,150,144930,141915,149,150,470742,472248,465739,146448,465739,150,,,,,,visual_patterns,0,0,0,yes,1366
undefined,undefined,undefined,undefined,white,no,Mozilla,Netscape,"5.0 (Windows NT 10.0; Win64; x64) AppleWebKit/537.36 (KHTML, like Gecko) Chrome/98.0.4758.80 Safari/537.36 Edg/98.0.1108.50",xpyriment,legacy,legacy,0,uniform,0,0,0,0,24,24,24,0,0,43,43,43,43,43,0,43,0,,,,,,0,,02-02-22,02-02-22,20:02:55,Wed Mar 02 2022 20:02:55 GMT+0100 (közép-európai téli idő),The main experiment item,yes,0,0,C:/Users/rrics/Documents/!!ResearchBMECOGSCI/gnet,0,0,0,prototype4.png,no,mono,no,18,no,black,no,no,768,1172,3.5.6,legacy,xpyriment,osweb,1.3.13,0,right,enter,right,,45544,33063,45544,,2,legacy,728,1366,24,768,24,0,0,1366,1646247792317,1024,2,48000,-16,experiment,p3sarr2.png,0,even,Win32,150,144930,141915,149,150,477256,478764,472257,146448,472257,150,,,,,,visual_patterns,0,0,0,yes,1366
undefined,undefined,undefined,undefined,white,no,Mozilla,Netscape,"5.0 (Windows NT 10.0; Win64; x64) AppleWebKit/537.36 (KHTML, like Gecko) Chrome/98.0.4758.80 Safari/537.36 Edg/98.0.1108.50",xpyriment,legacy,legacy,0,uniform,0,0,0,0,24,24,24,0,0,44,44,44,44,44,0,44,0,,,,,,0,,02-02-22,02-02-22,20:02:55,Wed Mar 02 2022 20:02:55 GMT+0100 (közép-európai téli idő),The main experiment item,yes,0,0,C:/Users/rrics/Documents/!!ResearchBMECOGSCI/gnet,0,0,0,prototype4.png,no,mono,no,18,no,black,no,no,768,1172,3.5.6,legacy,xpyriment,osweb,1.3.13,0,right,enter,right,,45544,33063,45544,,2,legacy,728,1366,24,768,24,0,0,1366,1646247792317,1024,2,48000,-16,experiment,p2sarrsha1.png,0,even,Win32,150,144930,141915,149,150,483773,485281,478771,146448,478771,150,,,,,,visual_patterns,0,0,0,yes,1366
undefined,undefined,undefined,undefined,white,no,Mozilla,Netscape,"5.0 (Windows NT 10.0; Win64; x64) AppleWebKit/537.36 (KHTML, like Gecko) Chrome/98.0.4758.80 Safari/537.36 Edg/98.0.1108.50",xpyriment,legacy,legacy,0,uniform,0,0,0,0,24,24,24,0,0,45,45,45,45,45,0,45,0,,,,,,0,,02-02-22,02-02-22,20:02:55,Wed Mar 02 2022 20:02:55 GMT+0100 (közép-európai téli idő),The main experiment item,yes,0,0,C:/Users/rrics/Documents/!!ResearchBMECOGSCI/gnet,0,0,0,prototype4.png,no,mono,no,18,no,black,no,no,768,1172,3.5.6,legacy,xpyriment,osweb,1.3.13,0,right,enter,right,,45544,33063,45544,,2,legacy,728,1366,24,768,24,0,0,1366,1646247792317,1024,2,48000,-16,experiment,p4sarrsha1.png,0,even,Win32,150,144930,141915,149,150,490288,491797,485288,146448,485288,150,,,,,,visual_patterns,0,0,0,yes,1366
undefined,undefined,undefined,undefined,white,no,Mozilla,Netscape,"5.0 (Windows NT 10.0; Win64; x64) AppleWebKit/537.36 (KHTML, like Gecko) Chrome/98.0.4758.80 Safari/537.36 Edg/98.0.1108.50",xpyriment,legacy,legacy,0,uniform,0,0,0,0,24,24,24,0,0,46,46,46,46,46,0,46,0,,,,,,0,,02-02-22,02-02-22,20:02:55,Wed Mar 02 2022 20:02:55 GMT+0100 (közép-európai téli idő),The main experiment item,yes,0,0,C:/Users/rrics/Documents/!!ResearchBMECOGSCI/gnet,0,0,0,prototype4.png,no,mono,no,18,no,black,no,no,768,1172,3.5.6,legacy,xpyriment,osweb,1.3.13,0,right,enter,right,,45544,33063,45544,,2,legacy,728,1366,24,768,24,0,0,1366,1646247792317,1024,2,48000,-16,experiment,p1sarrcol1.png,0,even,Win32,150,144930,141915,149,150,496805,498313,491804,146448,491804,150,,,,,,visual_patterns,0,0,0,yes,1366
undefined,undefined,undefined,undefined,white,no,Mozilla,Netscape,"5.0 (Windows NT 10.0; Win64; x64) AppleWebKit/537.36 (KHTML, like Gecko) Chrome/98.0.4758.80 Safari/537.36 Edg/98.0.1108.50",xpyriment,legacy,legacy,0,uniform,0,0,0,0,24,24,24,0,0,47,47,47,47,47,0,47,0,,,,,,0,,02-02-22,02-02-22,20:02:55,Wed Mar 02 2022 20:02:55 GMT+0100 (közép-európai téli idő),The main experiment item,yes,0,0,C:/Users/rrics/Documents/!!ResearchBMECOGSCI/gnet,0,0,0,prototype4.png,no,mono,no,18,no,black,no,no,768,1172,3.5.6,legacy,xpyriment,osweb,1.3.13,0,right,enter,right,,45544,33063,45544,,2,legacy,728,1366,24,768,24,0,0,1366,1646247792317,1024,2,48000,-16,experiment,p1sarrsha2.png,0,even,Win32,150,144930,141915,149,150,503320,504831,498321,146448,498321,150,,,,,,visual_patterns,0,0,0,yes,1366
undefined,undefined,undefined,undefined,white,no,Mozilla,Netscape,"5.0 (Windows NT 10.0; Win64; x64) AppleWebKit/537.36 (KHTML, like Gecko) Chrome/98.0.4758.80 Safari/537.36 Edg/98.0.1108.50",xpyriment,legacy,legacy,0,uniform,0,0,0,0,24,24,24,0,0,48,48,48,48,48,0,48,0,,,,,,0,,02-02-22,02-02-22,20:02:55,Wed Mar 02 2022 20:02:55 GMT+0100 (közép-európai téli idő),The main experiment item,yes,0,0,C:/Users/rrics/Documents/!!ResearchBMECOGSCI/gnet,0,0,0,prototype4.png,no,mono,no,18,no,black,no,no,768,1172,3.5.6,legacy,xpyriment,osweb,1.3.13,0,right,enter,right,,45544,33063,45544,,2,legacy,728,1366,24,768,24,0,0,1366,1646247792317,1024,2,48000,-16,experiment,p7sarr2.png,0,even,Win32,150,144930,141915,149,150,509840,511346,504839,146448,504839,150,,,,,,visual_patterns,0,0,0,yes,1366
undefined,undefined,undefined,undefined,white,no,Mozilla,Netscape,"5.0 (Windows NT 10.0; Win64; x64) AppleWebKit/537.36 (KHTML, like Gecko) Chrome/98.0.4758.80 Safari/537.36 Edg/98.0.1108.50",xpyriment,legacy,legacy,0,uniform,0,0,0,0,24,24,24,0,0,49,49,49,49,49,0,49,0,,,,,,0,,02-02-22,02-02-22,20:02:55,Wed Mar 02 2022 20:02:55 GMT+0100 (közép-európai téli idő),The main experiment item,yes,0,0,C:/Users/rrics/Documents/!!ResearchBMECOGSCI/gnet,0,0,0,prototype4.png,no,mono,no,18,no,black,no,no,768,1172,3.5.6,legacy,xpyriment,osweb,1.3.13,0,right,enter,right,,45544,33063,45544,,2,legacy,728,1366,24,768,24,0,0,1366,1646247792317,1024,2,48000,-16,experiment,p4sarr1.png,0,even,Win32,150,144930,141915,149,150,516351,517862,511353,146448,511353,150,,,,,,visual_patterns,0,0,0,yes,1366
undefined,undefined,undefined,undefined,white,no,Mozilla,Netscape,"5.0 (Windows NT 10.0; Win64; x64) AppleWebKit/537.36 (KHTML, like Gecko) Chrome/98.0.4758.80 Safari/537.36 Edg/98.0.1108.50",xpyriment,legacy,legacy,0,uniform,0,0,0,0,24,24,24,0,0,50,50,50,50,50,0,50,0,,,,,,0,,02-02-22,02-02-22,20:02:55,Wed Mar 02 2022 20:02:55 GMT+0100 (közép-európai téli idő),The main experiment item,yes,0,0,C:/Users/rrics/Documents/!!ResearchBMECOGSCI/gnet,0,0,0,prototype4.png,no,mono,no,18,no,black,no,no,768,1172,3.5.6,legacy,xpyriment,osweb,1.3.13,0,right,enter,right,,45544,33063,45544,,2,legacy,728,1366,24,768,24,0,0,1366,1646247792317,1024,2,48000,-16,experiment,p10sarr1.png,0,even,Win32,150,144930,141915,149,150,522872,524378,517871,146448,517871,150,,,,,,visual_patterns,0,0,0,yes,1366
undefined,undefined,undefined,undefined,white,no,Mozilla,Netscape,"5.0 (Windows NT 10.0; Win64; x64) AppleWebKit/537.36 (KHTML, like Gecko) Chrome/98.0.4758.80 Safari/537.36 Edg/98.0.1108.50",xpyriment,legacy,legacy,0,uniform,0,0,0,0,24,24,24,0,0,51,51,51,51,51,0,51,0,,,,,,0,,02-02-22,02-02-22,20:02:55,Wed Mar 02 2022 20:02:55 GMT+0100 (közép-európai téli idő),The main experiment item,yes,0,0,C:/Users/rrics/Documents/!!ResearchBMECOGSCI/gnet,0,0,0,prototype4.png,no,mono,no,18,no,black,no,no,768,1172,3.5.6,legacy,xpyriment,osweb,1.3.13,0,right,enter,right,,45544,33063,45544,,2,legacy,728,1366,24,768,24,0,0,1366,1646247792317,1024,2,48000,-16,experiment,prototype3.png,0,even,Win32,150,144930,141915,149,150,529383,530895,524384,146448,524384,150,,,,,,visual_patterns,0,0,0,yes,1366
undefined,undefined,undefined,undefined,white,no,Mozilla,Netscape,"5.0 (Windows NT 10.0; Win64; x64) AppleWebKit/537.36 (KHTML, like Gecko) Chrome/98.0.4758.80 Safari/537.36 Edg/98.0.1108.50",xpyriment,legacy,legacy,0,uniform,0,0,0,0,24,24,24,0,0,52,52,52,52,52,0,52,0,,,,,,0,,02-02-22,02-02-22,20:02:55,Wed Mar 02 2022 20:02:55 GMT+0100 (közép-európai téli idő),The main experiment item,yes,0,0,C:/Users/rrics/Documents/!!ResearchBMECOGSCI/gnet,0,0,0,prototype4.png,no,mono,no,18,no,black,no,no,768,1172,3.5.6,legacy,xpyriment,osweb,1.3.13,0,right,enter,right,,45544,33063,45544,,2,legacy,728,1366,24,768,24,0,0,1366,1646247792317,1024,2,48000,-16,experiment,p1sarr1.png,0,even,Win32,150,144930,141915,149,150,535902,537412,530904,146448,530904,150,,,,,,visual_patterns,0,0,0,yes,1366
undefined,undefined,undefined,undefined,white,no,Mozilla,Netscape,"5.0 (Windows NT 10.0; Win64; x64) AppleWebKit/537.36 (KHTML, like Gecko) Chrome/98.0.4758.80 Safari/537.36 Edg/98.0.1108.50",xpyriment,legacy,legacy,0,uniform,0,0,0,0,24,24,24,0,0,53,53,53,53,53,0,53,0,,,,,,0,,02-02-22,02-02-22,20:02:55,Wed Mar 02 2022 20:02:55 GMT+0100 (közép-európai téli idő),The main experiment item,yes,0,0,C:/Users/rrics/Documents/!!ResearchBMECOGSCI/gnet,0,0,0,prototype4.png,no,mono,no,18,no,black,no,no,768,1172,3.5.6,legacy,xpyriment,osweb,1.3.13,0,right,enter,right,,45544,33063,45544,,2,legacy,728,1366,24,768,24,0,0,1366,1646247792317,1024,2,48000,-16,experiment,p1sarrcol2.png,0,even,Win32,150,144930,141915,149,150,542420,543928,537419,146448,537419,150,,,,,,visual_patterns,0,0,0,yes,1366
undefined,undefined,undefined,undefined,white,no,Mozilla,Netscape,"5.0 (Windows NT 10.0; Win64; x64) AppleWebKit/537.36 (KHTML, like Gecko) Chrome/98.0.4758.80 Safari/537.36 Edg/98.0.1108.50",xpyriment,legacy,legacy,0,uniform,0,0,0,0,24,24,24,0,0,54,54,54,54,54,0,54,0,,,,,,0,,02-02-22,02-02-22,20:02:55,Wed Mar 02 2022 20:02:55 GMT+0100 (közép-európai téli idő),The main experiment item,yes,0,0,C:/Users/rrics/Documents/!!ResearchBMECOGSCI/gnet,0,0,0,prototype4.png,no,mono,no,18,no,black,no,no,768,1172,3.5.6,legacy,xpyriment,osweb,1.3.13,0,right,enter,right,,45544,33063,45544,,2,legacy,728,1366,24,768,24,0,0,1366,1646247792317,1024,2,48000,-16,experiment,p2sarrcol2.png,0,even,Win32,150,144930,141915,149,150,548939,550444,543937,146448,543937,150,,,,,,visual_patterns,0,0,0,yes,1366
undefined,undefined,undefined,undefined,white,no,Mozilla,Netscape,"5.0 (Windows NT 10.0; Win64; x64) AppleWebKit/537.36 (KHTML, like Gecko) Chrome/98.0.4758.80 Safari/537.36 Edg/98.0.1108.50",xpyriment,legacy,legacy,0,uniform,0,0,0,0,24,24,24,0,0,55,55,55,55,55,0,55,0,,,,,,0,,02-02-22,02-02-22,20:02:55,Wed Mar 02 2022 20:02:55 GMT+0100 (közép-európai téli idő),The main experiment item,yes,0,0,C:/Users/rrics/Documents/!!ResearchBMECOGSCI/gnet,0,0,0,prototype4.png,no,mono,no,18,no,black,no,no,768,1172,3.5.6,legacy,xpyriment,osweb,1.3.13,0,right,enter,right,,45544,33063,45544,,2,legacy,728,1366,24,768,24,0,0,1366,1646247792317,1024,2,48000,-16,experiment,prototype4.png,0,even,Win32,150,144930,141915,149,150,555450,556960,550450,146448,550450,150,,,,,,visual_patterns,0,0,0,yes,1366
undefined,undefined,undefined,undefined,white,no,Mozilla,Netscape,"5.0 (Windows NT 10.0; Win64; x64) AppleWebKit/537.36 (KHTML, like Gecko) Chrome/98.0.4758.80 Safari/537.36 Edg/98.0.1108.50",xpyriment,legacy,legacy,0,uniform,0,0,0,0,24,24,24,0,0,56,56,56,56,56,0,56,0,,,,,,0,,02-02-22,02-02-22,20:02:55,Wed Mar 02 2022 20:02:55 GMT+0100 (közép-európai téli idő),The main experiment item,yes,0,0,C:/Users/rrics/Documents/!!ResearchBMECOGSCI/gnet,0,0,0,prototype4.png,no,mono,no,18,no,black,no,no,768,1172,3.5.6,legacy,xpyriment,osweb,1.3.13,0,right,enter,right,,45544,33063,45544,,2,legacy,728,1366,24,768,24,0,0,1366,1646247792317,1024,2,48000,-16,experiment,p2sarrshacol1.png,0,even,Win32,150,144930,141915,149,150,561978,563493,556979,146448,556979,150,,,,,,visual_patterns,0,0,0,yes,1366
undefined,undefined,undefined,undefined,white,no,Mozilla,Netscape,"5.0 (Windows NT 10.0; Win64; x64) AppleWebKit/537.36 (KHTML, like Gecko) Chrome/98.0.4758.80 Safari/537.36 Edg/98.0.1108.50",xpyriment,legacy,legacy,0,uniform,0,0,0,0,24,24,24,0,0,57,57,57,57,57,0,57,0,,,,,,0,,02-02-22,02-02-22,20:02:55,Wed Mar 02 2022 20:02:55 GMT+0100 (közép-európai téli idő),The main experiment item,yes,0,0,C:/Users/rrics/Documents/!!ResearchBMECOGSCI/gnet,0,0,0,prototype4.png,no,mono,no,18,no,black,no,no,768,1172,3.5.6,legacy,xpyriment,osweb,1.3.13,0,right,enter,right,,45544,33063,45544,,2,legacy,728,1366,24,768,24,0,0,1366,1646247792317,1024,2,48000,-16,experiment,prototype5.png,0,even,Win32,150,144930,141915,149,150,568502,570011,563499,146448,563499,150,,,,,,visual_patterns,0,0,0,yes,1366
undefined,undefined,undefined,undefined,white,no,Mozilla,Netscape,"5.0 (Windows NT 10.0; Win64; x64) AppleWebKit/537.36 (KHTML, like Gecko) Chrome/98.0.4758.80 Safari/537.36 Edg/98.0.1108.50",xpyriment,legacy,legacy,0,uniform,0,0,0,0,24,24,24,0,0,58,58,58,58,58,0,58,0,,,,,,0,,02-02-22,02-02-22,20:02:55,Wed Mar 02 2022 20:02:55 GMT+0100 (közép-európai téli idő),The main experiment item,yes,0,0,C:/Users/rrics/Documents/!!ResearchBMECOGSCI/gnet,0,0,0,prototype4.png,no,mono,no,18,no,black,no,no,768,1172,3.5.6,legacy,xpyriment,osweb,1.3.13,0,right,enter,right,,45544,33063,45544,,2,legacy,728,1366,24,768,24,0,0,1366,1646247792317,1024,2,48000,-16,experiment,prototype2.png,0,even,Win32,150,144930,141915,149,150,575019,576526,570016,146448,570016,150,,,,,,visual_patterns,0,0,0,yes,1366
undefined,undefined,undefined,undefined,white,no,Mozilla,Netscape,"5.0 (Windows NT 10.0; Win64; x64) AppleWebKit/537.36 (KHTML, like Gecko) Chrome/98.0.4758.80 Safari/537.36 Edg/98.0.1108.50",xpyriment,legacy,legacy,0,uniform,0,0,0,0,24,24,24,0,0,59,59,59,59,59,0,59,0,,,,,,0,,02-02-22,02-02-22,20:02:55,Wed Mar 02 2022 20:02:55 GMT+0100 (közép-európai téli idő),The main experiment item,yes,0,0,C:/Users/rrics/Documents/!!ResearchBMECOGSCI/gnet,0,0,0,prototype4.png,no,mono,no,18,no,black,no,no,768,1172,3.5.6,legacy,xpyriment,osweb,1.3.13,0,right,enter,right,,45544,33063,45544,,2,legacy,728,1366,24,768,24,0,0,1366,1646247792317,1024,2,48000,-16,experiment,prototype5.png,0,even,Win32,150,144930,141915,149,150,581535,583043,576534,146448,576534,150,,,,,,visual_patterns,0,0,0,yes,1366
undefined,undefined,undefined,undefined,white,no,Mozilla,Netscape,"5.0 (Windows NT 10.0; Win64; x64) AppleWebKit/537.36 (KHTML, like Gecko) Chrome/98.0.4758.80 Safari/537.36 Edg/98.0.1108.50",xpyriment,legacy,legacy,0,uniform,0,0,0,0,24,24,24,0,0,60,60,60,60,60,0,60,0,,,,,,0,,02-02-22,02-02-22,20:02:55,Wed Mar 02 2022 20:02:55 GMT+0100 (közép-európai téli idő),The main experiment item,yes,0,0,C:/Users/rrics/Documents/!!ResearchBMECOGSCI/gnet,0,0,0,prototype4.png,no,mono,no,18,no,black,no,no,768,1172,3.5.6,legacy,xpyriment,osweb,1.3.13,0,right,enter,right,,45544,33063,45544,,2,legacy,728,1366,24,768,24,0,0,1366,1646247792317,1024,2,48000,-16,experiment,p1sarrshacol2.png,0,even,Win32,150,144930,141915,149,150,588051,589559,583050,146448,583050,150,,,,,,visual_patterns,0,0,0,yes,1366
undefined,undefined,undefined,undefined,white,no,Mozilla,Netscape,"5.0 (Windows NT 10.0; Win64; x64) AppleWebKit/537.36 (KHTML, like Gecko) Chrome/98.0.4758.80 Safari/537.36 Edg/98.0.1108.50",xpyriment,legacy,legacy,0,uniform,0,0,0,0,24,24,24,0,0,61,61,61,61,61,0,61,0,,,,,,0,,02-02-22,02-02-22,20:02:55,Wed Mar 02 2022 20:02:55 GMT+0100 (közép-európai téli idő),The main experiment item,yes,0,0,C:/Users/rrics/Documents/!!ResearchBMECOGSCI/gnet,0,0,0,prototype4.png,no,mono,no,18,no,black,no,no,768,1172,3.5.6,legacy,xpyriment,osweb,1.3.13,0,right,enter,right,,45544,33063,45544,,2,legacy,728,1366,24,768,24,0,0,1366,1646247792317,1024,2,48000,-16,experiment,p2sarrcol1.png,0,even,Win32,150,144930,141915,149,150,594565,596075,589565,146448,589565,150,,,,,,visual_patterns,0,0,0,yes,1366
undefined,undefined,undefined,undefined,white,no,Mozilla,Netscape,"5.0 (Windows NT 10.0; Win64; x64) AppleWebKit/537.36 (KHTML, like Gecko) Chrome/98.0.4758.80 Safari/537.36 Edg/98.0.1108.50",xpyriment,legacy,legacy,0,uniform,0,0,0,0,24,24,24,0,0,62,62,62,62,62,0,62,0,,,,,,0,,02-02-22,02-02-22,20:02:55,Wed Mar 02 2022 20:02:55 GMT+0100 (közép-európai téli idő),The main experiment item,yes,0,0,C:/Users/rrics/Documents/!!ResearchBMECOGSCI/gnet,0,0,0,prototype4.png,no,mono,no,18,no,black,no,no,768,1172,3.5.6,legacy,xpyriment,osweb,1.3.13,0,right,enter,right,,45544,33063,45544,,2,legacy,728,1366,24,768,24,0,0,1366,1646247792317,1024,2,48000,-16,experiment,p5sarr2.png,0,even,Win32,150,144930,141915,149,150,601081,602591,596082,146448,596082,150,,,,,,visual_patterns,0,0,0,yes,1366
undefined,undefined,undefined,undefined,white,no,Mozilla,Netscape,"5.0 (Windows NT 10.0; Win64; x64) AppleWebKit/537.36 (KHTML, like Gecko) Chrome/98.0.4758.80 Safari/537.36 Edg/98.0.1108.50",xpyriment,legacy,legacy,0,uniform,0,0,0,0,24,24,24,0,0,63,63,63,63,63,0,63,0,,,,,,0,,02-02-22,02-02-22,20:02:55,Wed Mar 02 2022 20:02:55 GMT+0100 (közép-európai téli idő),The main experiment item,yes,0,0,C:/Users/rrics/Documents/!!ResearchBMECOGSCI/gnet,0,0,0,prototype4.png,no,mono,no,18,no,black,no,no,768,1172,3.5.6,legacy,xpyriment,osweb,1.3.13,0,right,enter,right,,45544,33063,45544,,2,legacy,728,1366,24,768,24,0,0,1366,1646247792317,1024,2,48000,-16,experiment,p10sarr2.png,0,even,Win32,150,144930,141915,149,150,607601,609109,602599,146448,602598,150,,,,,,visual_patterns,0,0,0,yes,1366
undefined,undefined,undefined,undefined,white,no,Mozilla,Netscape,"5.0 (Windows NT 10.0; Win64; x64) AppleWebKit/537.36 (KHTML, like Gecko) Chrome/98.0.4758.80 Safari/537.36 Edg/98.0.1108.50",xpyriment,legacy,legacy,0,uniform,0,0,0,0,24,24,24,0,0,64,64,64,64,64,0,64,0,,,,,,0,,02-02-22,02-02-22,20:02:55,Wed Mar 02 2022 20:02:55 GMT+0100 (közép-európai téli idő),The main experiment item,yes,0,0,C:/Users/rrics/Documents/!!ResearchBMECOGSCI/gnet,0,0,0,prototype4.png,no,mono,no,18,no,black,no,no,768,1172,3.5.6,legacy,xpyriment,osweb,1.3.13,0,right,enter,right,,45544,33063,45544,,2,legacy,728,1366,24,768,24,0,0,1366,1646247792317,1024,2,48000,-16,experiment,prototype1.png,0,even,Win32,150,144930,141915,149,150,614117,615625,609115,146448,609115,150,,,,,,visual_patterns,0,0,0,yes,1366
undefined,undefined,undefined,undefined,white,no,Mozilla,Netscape,"5.0 (Windows NT 10.0; Win64; x64) AppleWebKit/537.36 (KHTML, like Gecko) Chrome/98.0.4758.80 Safari/537.36 Edg/98.0.1108.50",xpyriment,legacy,legacy,0,uniform,0,0,0,0,24,24,24,0,0,65,65,65,65,65,0,65,0,,,,,,0,,02-02-22,02-02-22,20:02:55,Wed Mar 02 2022 20:02:55 GMT+0100 (közép-európai téli idő),The main experiment item,yes,0,0,C:/Users/rrics/Documents/!!ResearchBMECOGSCI/gnet,0,0,0,prototype4.png,no,mono,no,18,no,black,no,no,768,1172,3.5.6,legacy,xpyriment,osweb,1.3.13,0,right,enter,right,,45544,33063,45544,,2,legacy,728,1366,24,768,24,0,0,1366,1646247792317,1024,2,48000,-16,experiment,prototype4.png,0,even,Win32,150,144930,141915,149,150,620631,622141,615631,146448,615630,150,,,,,,visual_patterns,0,0,0,yes,1366
undefined,undefined,undefined,undefined,white,no,Mozilla,Netscape,"5.0 (Windows NT 10.0; Win64; x64) AppleWebKit/537.36 (KHTML, like Gecko) Chrome/98.0.4758.80 Safari/537.36 Edg/98.0.1108.50",xpyriment,legacy,legacy,0,uniform,0,0,0,0,24,24,24,0,0,66,66,66,66,66,0,66,0,,,,,,0,,02-02-22,02-02-22,20:02:55,Wed Mar 02 2022 20:02:55 GMT+0100 (közép-európai téli idő),The main experiment item,yes,0,0,C:/Users/rrics/Documents/!!ResearchBMECOGSCI/gnet,0,0,0,prototype4.png,no,mono,no,18,no,black,no,no,768,1172,3.5.6,legacy,xpyriment,osweb,1.3.13,0,right,enter,right,,45544,33063,45544,,2,legacy,728,1366,24,768,24,0,0,1366,1646247792317,1024,2,48000,-16,experiment,p2sarrshacol2.png,0,even,Win32,150,144930,141915,149,150,627159,628673,622160,146448,622160,150,,,,,,visual_patterns,0,0,0,yes,1366
undefined,undefined,undefined,undefined,white,no,Mozilla,Netscape,"5.0 (Windows NT 10.0; Win64; x64) AppleWebKit/537.36 (KHTML, like Gecko) Chrome/98.0.4758.80 Safari/537.36 Edg/98.0.1108.50",xpyriment,legacy,legacy,0,uniform,0,0,0,0,24,24,24,0,0,67,67,67,67,67,0,67,0,,,,,,0,,02-02-22,02-02-22,20:02:55,Wed Mar 02 2022 20:02:55 GMT+0100 (közép-európai téli idő),The main experiment item,yes,0,0,C:/Users/rrics/Documents/!!ResearchBMECOGSCI/gnet,0,0,0,prototype4.png,no,mono,no,18,no,black,no,no,768,1172,3.5.6,legacy,xpyriment,osweb,1.3.13,0,right,enter,right,,45544,33063,45544,,2,legacy,728,1366,24,768,24,0,0,1366,1646247792317,1024,2,48000,-16,experiment,p1sarr2.png,0,even,Win32,150,144930,141915,149,150,633680,635190,628680,146448,628680,150,,,,,,visual_patterns,0,0,0,yes,1366
undefined,undefined,undefined,undefined,white,no,Mozilla,Netscape,"5.0 (Windows NT 10.0; Win64; x64) AppleWebKit/537.36 (KHTML, like Gecko) Chrome/98.0.4758.80 Safari/537.36 Edg/98.0.1108.50",xpyriment,legacy,legacy,0,uniform,0,0,0,0,24,24,24,0,0,68,68,68,68,68,0,68,0,,,,,,0,,02-02-22,02-02-22,20:02:55,Wed Mar 02 2022 20:02:55 GMT+0100 (közép-európai téli idő),The main experiment item,yes,0,0,C:/Users/rrics/Documents/!!ResearchBMECOGSCI/gnet,0,0,0,prototype4.png,no,mono,no,18,no,black,no,no,768,1172,3.5.6,legacy,xpyriment,osweb,1.3.13,0,right,enter,right,,45544,33063,45544,,2,legacy,728,1366,24,768,24,0,0,1366,1646247792317,1024,2,48000,-16,experiment,p6sarr2.png,0,even,Win32,150,144930,141915,149,150,640199,641708,635198,146448,635198,150,,,,,,visual_patterns,0,0,0,yes,1366
undefined,undefined,undefined,undefined,white,no,Mozilla,Netscape,"5.0 (Windows NT 10.0; Win64; x64) AppleWebKit/537.36 (KHTML, like Gecko) Chrome/98.0.4758.80 Safari/537.36 Edg/98.0.1108.50",xpyriment,legacy,legacy,0,uniform,0,0,0,0,24,24,24,0,0,69,69,69,69,69,0,69,0,,,,,,0,,02-02-22,02-02-22,20:02:55,Wed Mar 02 2022 20:02:55 GMT+0100 (közép-európai téli idő),The main experiment item,yes,0,0,C:/Users/rrics/Documents/!!ResearchBMECOGSCI/gnet,0,0,0,prototype4.png,no,mono,no,18,no,black,no,no,768,1172,3.5.6,legacy,xpyriment,osweb,1.3.13,0,right,enter,right,,45544,33063,45544,,2,legacy,728,1366,24,768,24,0,0,1366,1646247792317,1024,2,48000,-16,experiment,prototype2.png,0,even,Win32,150,144930,141915,149,150,646713,648224,641713,146448,641713,150,,,,,,visual_patterns,0,0,0,yes,1366
undefined,undefined,undefined,undefined,white,no,Mozilla,Netscape,"5.0 (Windows NT 10.0; Win64; x64) AppleWebKit/537.36 (KHTML, like Gecko) Chrome/98.0.4758.80 Safari/537.36 Edg/98.0.1108.50",xpyriment,legacy,legacy,0,uniform,0,0,0,0,24,24,24,0,0,70,70,70,70,70,0,70,0,,,,,,0,,02-02-22,02-02-22,20:02:55,Wed Mar 02 2022 20:02:55 GMT+0100 (közép-európai téli idő),The main experiment item,yes,0,0,C:/Users/rrics/Documents/!!ResearchBMECOGSCI/gnet,0,0,0,prototype4.png,no,mono,no,18,no,black,no,no,768,1172,3.5.6,legacy,xpyriment,osweb,1.3.13,0,right,enter,right,,45544,33063,45544,,2,legacy,728,1366,24,768,24,0,0,1366,1646247792317,1024,2,48000,-16,experiment,p1sarrshacol1.png,0,even,Win32,150,144930,141915,149,150,653230,654739,648232,146448,648232,150,,,,,,visual_patterns,0,0,0,yes,1366
undefined,undefined,undefined,undefined,white,no,Mozilla,Netscape,"5.0 (Windows NT 10.0; Win64; x64) AppleWebKit/537.36 (KHTML, like Gecko) Chrome/98.0.4758.80 Safari/537.36 Edg/98.0.1108.50",xpyriment,legacy,legacy,0,uniform,0,0,0,0,24,24,24,0,0,71,71,71,71,71,0,71,0,,,,,,0,,02-02-22,02-02-22,20:02:55,Wed Mar 02 2022 20:02:55 GMT+0100 (közép-európai téli idő),The main experiment item,yes,0,0,C:/Users/rrics/Documents/!!ResearchBMECOGSCI/gnet,0,0,0,prototype4.png,no,mono,no,18,no,black,no,no,768,1172,3.5.6,legacy,xpyriment,osweb,1.3.13,0,right,enter,right,,45544,33063,45544,,2,legacy,728,1366,24,768,24,0,0,1366,1646247792317,1024,2,48000,-16,experiment,prototype1.png,0,even,Win32,150,144930,141915,149,150,659759,661274,654756,146448,654756,150,,,,,,visual_patterns,0,0,0,yes,1366
undefined,undefined,undefined,undefined,white,no,Mozilla,Netscape,"5.0 (Windows NT 10.0; Win64; x64) AppleWebKit/537.36 (KHTML, like Gecko) Chrome/98.0.4758.80 Safari/537.36 Edg/98.0.1108.50",xpyriment,legacy,legacy,0,uniform,0,0,0,0,24,24,24,0,0,72,72,72,72,72,0,72,0,,,,,,0,,02-02-22,02-02-22,20:02:55,Wed Mar 02 2022 20:02:55 GMT+0100 (közép-európai téli idő),The main experiment item,yes,0,0,C:/Users/rrics/Documents/!!ResearchBMECOGSCI/gnet,0,0,0,prototype4.png,no,mono,no,18,no,black,no,no,768,1172,3.5.6,legacy,xpyriment,osweb,1.3.13,0,right,enter,right,,45544,33063,45544,,2,legacy,728,1366,24,768,24,0,0,1366,1646247792317,1024,2,48000,-16,experiment,prototype5.png,0,even,Win32,150,144930,141915,149,150,666283,667789,661279,146448,661279,150,,,,,,visual_patterns,0,0,0,yes,1366
undefined,undefined,undefined,undefined,white,no,Mozilla,Netscape,"5.0 (Windows NT 10.0; Win64; x64) AppleWebKit/537.36 (KHTML, like Gecko) Chrome/98.0.4758.80 Safari/537.36 Edg/98.0.1108.50",xpyriment,legacy,legacy,0,uniform,0,0,0,0,24,24,24,0,0,73,73,73,73,73,0,73,0,,,,,,0,,02-02-22,02-02-22,20:02:55,Wed Mar 02 2022 20:02:55 GMT+0100 (közép-európai téli idő),The main experiment item,yes,0,0,C:/Users/rrics/Documents/!!ResearchBMECOGSCI/gnet,0,0,0,prototype4.png,no,mono,no,18,no,black,no,no,768,1172,3.5.6,legacy,xpyriment,osweb,1.3.13,0,right,enter,right,,45544,33063,45544,,2,legacy,728,1366,24,768,24,0,0,1366,1646247792317,1024,2,48000,-16,experiment,prototype3.png,0,even,Win32,150,144930,141915,149,150,672797,674306,667794,146448,667794,150,,,,,,visual_patterns,0,0,0,yes,1366
undefined,undefined,undefined,undefined,white,no,Mozilla,Netscape,"5.0 (Windows NT 10.0; Win64; x64) AppleWebKit/537.36 (KHTML, like Gecko) Chrome/98.0.4758.80 Safari/537.36 Edg/98.0.1108.50",xpyriment,legacy,legacy,0,uniform,0,0,0,0,24,24,24,0,0,74,74,74,74,74,0,74,0,,,,,,0,,02-02-22,02-02-22,20:02:55,Wed Mar 02 2022 20:02:55 GMT+0100 (közép-európai téli idő),The main experiment item,yes,0,0,C:/Users/rrics/Documents/!!ResearchBMECOGSCI/gnet,0,0,0,prototype4.png,no,mono,no,18,no,black,no,no,768,1172,3.5.6,legacy,xpyriment,osweb,1.3.13,0,right,enter,right,,45544,33063,45544,,2,legacy,728,1366,24,768,24,0,0,1366,1646247792317,1024,2,48000,-16,experiment,prototype2.png,0,even,Win32,150,144930,141915,149,150,679316,680821,674313,146448,674313,150,,,,,,visual_patterns,0,0,0,yes,1366
undefined,undefined,undefined,undefined,white,no,Mozilla,Netscape,"5.0 (Windows NT 10.0; Win64; x64) AppleWebKit/537.36 (KHTML, like Gecko) Chrome/98.0.4758.80 Safari/537.36 Edg/98.0.1108.50",xpyriment,legacy,legacy,0,uniform,0,0,0,0,24,24,24,0,0,74,74,74,74,74,0,74,0,0,0,0,0,0,0,0,02-02-22,02-02-22,20:02:55,Wed Mar 02 2022 20:02:55 GMT+0100 (közép-európai téli idő),The main experiment item,yes,0,0,C:/Users/rrics/Documents/!!ResearchBMECOGSCI/gnet,0,0,0,prototype4.png,no,mono,no,18,no,black,no,no,768,1172,3.5.6,legacy,xpyriment,osweb,1.3.13,0,right,enter,right,right,56214,33063,45544,56214,2,legacy,728,1366,24,768,24,0,0,1366,1646247792317,1024,2,48000,-16,experiment,p5sarrsha3.png,0,even,Win32,150,144930,141915,149,150,679316,680821,674313,146448,674313,150,740065,741568,737069,680823,737069,visual_patterns,0,0,0,yes,1366
undefined,undefined,undefined,undefined,white,no,Mozilla,Netscape,"5.0 (Windows NT 10.0; Win64; x64) AppleWebKit/537.36 (KHTML, like Gecko) Chrome/98.0.4758.80 Safari/537.36 Edg/98.0.1108.50",xpyriment,legacy,legacy,0,uniform,0,0,0,0,24,24,24,0,0,74,74,74,74,74,0,74,0,1,1,1,1,1,0,1,02-02-22,02-02-22,20:02:55,Wed Mar 02 2022 20:02:55 GMT+0100 (közép-európai téli idő),The main experiment item,yes,0,0,C:/Users/rrics/Documents/!!ResearchBMECOGSCI/gnet,0,0,0,prototype4.png,no,mono,no,18,no,black,no,no,768,1172,3.5.6,legacy,xpyriment,osweb,1.3.13,0,right,enter,right,right,56214,33063,45544,56214,2,legacy,728,1366,24,768,24,0,0,1366,1646247792317,1024,2,48000,-16,experiment,p2sarrshacol1.png,0,even,Win32,150,144930,141915,149,150,679316,680821,674313,146448,674313,150,744592,746102,741589,680823,741588,visual_patterns,0,0,0,yes,1366
undefined,undefined,undefined,undefined,white,no,Mozilla,Netscape,"5.0 (Windows NT 10.0; Win64; x64) AppleWebKit/537.36 (KHTML, like Gecko) Chrome/98.0.4758.80 Safari/537.36 Edg/98.0.1108.50",xpyriment,legacy,legacy,0,uniform,0,0,0,0,24,24,24,0,0,74,74,74,74,74,0,74,0,2,2,2,2,2,0,2,02-02-22,02-02-22,20:02:55,Wed Mar 02 2022 20:02:55 GMT+0100 (közép-európai téli idő),The main experiment item,yes,0,0,C:/Users/rrics/Documents/!!ResearchBMECOGSCI/gnet,0,0,0,prototype4.png,no,mono,no,18,no,black,no,no,768,1172,3.5.6,legacy,xpyriment,osweb,1.3.13,0,right,enter,right,right,56214,33063,45544,56214,2,legacy,728,1366,24,768,24,0,0,1366,1646247792317,1024,2,48000,-16,experiment,p4sarr4.png,0,even,Win32,150,144930,141915,149,150,679316,680821,674313,146448,674313,150,749112,750618,746110,680823,746110,visual_patterns,0,0,0,yes,1366
undefined,undefined,undefined,undefined,white,no,Mozilla,Netscape,"5.0 (Windows NT 10.0; Win64; x64) AppleWebKit/537.36 (KHTML, like Gecko) Chrome/98.0.4758.80 Safari/537.36 Edg/98.0.1108.50",xpyriment,legacy,legacy,0,uniform,0,0,0,0,24,24,24,0,0,74,74,74,74,74,0,74,0,3,3,3,3,3,0,3,02-02-22,02-02-22,20:02:55,Wed Mar 02 2022 20:02:55 GMT+0100 (közép-európai téli idő),The main experiment item,yes,0,0,C:/Users/rrics/Documents/!!ResearchBMECOGSCI/gnet,0,0,0,prototype4.png,no,mono,no,18,no,black,no,no,768,1172,3.5.6,legacy,xpyriment,osweb,1.3.13,0,right,enter,right,right,56214,33063,45544,56214,2,legacy,728,1366,24,768,24,0,0,1366,1646247792317,1024,2,48000,-16,experiment,p5sarrsha2.png,0,even,Win32,150,144930,141915,149,150,679316,680821,674313,146448,674313,150,753625,755137,750625,680823,750625,visual_patterns,0,0,0,yes,1366
undefined,undefined,undefined,undefined,white,no,Mozilla,Netscape,"5.0 (Windows NT 10.0; Win64; x64) AppleWebKit/537.36 (KHTML, like Gecko) Chrome/98.0.4758.80 Safari/537.36 Edg/98.0.1108.50",xpyriment,legacy,legacy,0,uniform,0,0,0,0,24,24,24,0,0,74,74,74,74,74,0,74,0,4,4,4,4,4,0,4,02-02-22,02-02-22,20:02:55,Wed Mar 02 2022 20:02:55 GMT+0100 (közép-európai téli idő),The main experiment item,yes,0,0,C:/Users/rrics/Documents/!!ResearchBMECOGSCI/gnet,0,0,0,prototype4.png,no,mono,no,18,no,black,no,no,768,1172,3.5.6,legacy,xpyriment,osweb,1.3.13,0,right,enter,right,right,56214,33063,45544,56214,2,legacy,728,1366,24,768,24,0,0,1366,1646247792317,1024,2,48000,-16,experiment,p7sarr2.png,0,even,Win32,150,144930,141915,149,150,679316,680821,674313,146448,674313,150,758144,759652,755145,680823,755145,visual_patterns,0,0,0,yes,1366
undefined,undefined,undefined,undefined,white,no,Mozilla,Netscape,"5.0 (Windows NT 10.0; Win64; x64) AppleWebKit/537.36 (KHTML, like Gecko) Chrome/98.0.4758.80 Safari/537.36 Edg/98.0.1108.50",xpyriment,legacy,legacy,0,uniform,0,0,0,0,24,24,24,0,0,74,74,74,74,74,0,74,0,5,5,5,5,5,0,5,02-02-22,02-02-22,20:02:55,Wed Mar 02 2022 20:02:55 GMT+0100 (közép-európai téli idő),The main experiment item,yes,0,0,C:/Users/rrics/Documents/!!ResearchBMECOGSCI/gnet,0,0,0,prototype4.png,no,mono,no,18,no,black,no,no,768,1172,3.5.6,legacy,xpyriment,osweb,1.3.13,0,right,enter,right,right,56214,33063,45544,56214,2,legacy,728,1366,24,768,24,0,0,1366,1646247792317,1024,2,48000,-16,experiment,p1sarrsha4.png,0,even,Win32,150,144930,141915,149,150,679316,680821,674313,146448,674313,150,762660,764167,759662,680823,759662,visual_patterns,0,0,0,yes,1366
undefined,undefined,undefined,undefined,white,no,Mozilla,Netscape,"5.0 (Windows NT 10.0; Win64; x64) AppleWebKit/537.36 (KHTML, like Gecko) Chrome/98.0.4758.80 Safari/537.36 Edg/98.0.1108.50",xpyriment,legacy,legacy,0,uniform,0,0,0,0,24,24,24,0,0,74,74,74,74,74,0,74,0,6,6,6,6,6,0,6,02-02-22,02-02-22,20:02:55,Wed Mar 02 2022 20:02:55 GMT+0100 (közép-európai téli idő),The main experiment item,yes,0,0,C:/Users/rrics/Documents/!!ResearchBMECOGSCI/gnet,0,0,0,prototype4.png,no,mono,no,18,no,black,no,no,768,1172,3.5.6,legacy,xpyriment,osweb,1.3.13,0,right,enter,right,right,56214,33063,45544,56214,2,legacy,728,1366,24,768,24,0,0,1366,1646247792317,1024,2,48000,-16,experiment,p3sarrcol2.png,0,even,Win32,150,144930,141915,149,150,679316,680821,674313,146448,674313,150,767176,768684,764173,680823,764173,visual_patterns,0,0,0,yes,1366
undefined,undefined,undefined,undefined,white,no,Mozilla,Netscape,"5.0 (Windows NT 10.0; Win64; x64) AppleWebKit/537.36 (KHTML, like Gecko) Chrome/98.0.4758.80 Safari/537.36 Edg/98.0.1108.50",xpyriment,legacy,legacy,0,uniform,0,0,0,0,24,24,24,0,0,74,74,74,74,74,0,74,0,7,7,7,7,7,0,7,02-02-22,02-02-22,20:02:55,Wed Mar 02 2022 20:02:55 GMT+0100 (közép-európai téli idő),The main experiment item,yes,0,0,C:/Users/rrics/Documents/!!ResearchBMECOGSCI/gnet,0,0,0,prototype4.png,no,mono,no,18,no,black,no,no,768,1172,3.5.6,legacy,xpyriment,osweb,1.3.13,0,right,enter,right,right,56214,33063,45544,56214,2,legacy,728,1366,24,768,24,0,0,1366,1646247792317,1024,2,48000,-16,experiment,p3sarrcol3.png,0,even,Win32,150,144930,141915,149,150,679316,680821,674313,146448,674313,150,771691,773200,768692,680823,768692,visual_patterns,0,0,0,yes,1366
undefined,undefined,undefined,undefined,white,no,Mozilla,Netscape,"5.0 (Windows NT 10.0; Win64; x64) AppleWebKit/537.36 (KHTML, like Gecko) Chrome/98.0.4758.80 Safari/537.36 Edg/98.0.1108.50",xpyriment,legacy,legacy,0,uniform,0,0,0,0,24,24,24,0,0,74,74,74,74,74,0,74,0,8,8,8,8,8,0,8,02-02-22,02-02-22,20:02:55,Wed Mar 02 2022 20:02:55 GMT+0100 (közép-európai téli idő),The main experiment item,yes,0,0,C:/Users/rrics/Documents/!!ResearchBMECOGSCI/gnet,0,0,0,prototype4.png,no,mono,no,18,no,black,no,no,768,1172,3.5.6,legacy,xpyriment,osweb,1.3.13,0,right,enter,right,right,56214,33063,45544,56214,2,legacy,728,1366,24,768,24,0,0,1366,1646247792317,1024,2,48000,-16,experiment,p1sarrsha1.png,0,even,Win32,150,144930,141915,149,150,679316,680821,674313,146448,674313,150,776209,777719,773207,680823,773207,visual_patterns,0,0,0,yes,1366
undefined,undefined,undefined,undefined,white,no,Mozilla,Netscape,"5.0 (Windows NT 10.0; Win64; x64) AppleWebKit/537.36 (KHTML, like Gecko) Chrome/98.0.4758.80 Safari/537.36 Edg/98.0.1108.50",xpyriment,legacy,legacy,0,uniform,0,0,0,0,24,24,24,0,0,74,74,74,74,74,0,74,0,9,9,9,9,9,0,9,02-02-22,02-02-22,20:02:55,Wed Mar 02 2022 20:02:55 GMT+0100 (közép-európai téli idő),The main experiment item,yes,0,0,C:/Users/rrics/Documents/!!ResearchBMECOGSCI/gnet,0,0,0,prototype4.png,no,mono,no,18,no,black,no,no,768,1172,3.5.6,legacy,xpyriment,osweb,1.3.13,0,right,enter,right,right,56214,33063,45544,56214,2,legacy,728,1366,24,768,24,0,0,1366,1646247792317,1024,2,48000,-16,experiment,p4sarr1.png,0,even,Win32,150,144930,141915,149,150,679316,680821,674313,146448,674313,150,780730,782233,777728,680823,777728,visual_patterns,0,0,0,yes,1366
undefined,undefined,undefined,undefined,white,no,Mozilla,Netscape,"5.0 (Windows NT 10.0; Win64; x64) AppleWebKit/537.36 (KHTML, like Gecko) Chrome/98.0.4758.80 Safari/537.36 Edg/98.0.1108.50",xpyriment,legacy,legacy,0,uniform,0,0,0,0,24,24,24,0,0,74,74,74,74,74,0,74,0,10,10,10,10,10,0,10,02-02-22,02-02-22,20:02:55,Wed Mar 02 2022 20:02:55 GMT+0100 (közép-európai téli idő),The main experiment item,yes,0,0,C:/Users/rrics/Documents/!!ResearchBMECOGSCI/gnet,0,0,0,prototype4.png,no,mono,no,18,no,black,no,no,768,1172,3.5.6,legacy,xpyriment,osweb,1.3.13,0,right,enter,right,right,56214,33063,45544,56214,2,legacy,728,1366,24,768,24,0,0,1366,1646247792317,1024,2,48000,-16,experiment,p9sarr2.png,0,even,Win32,150,144930,141915,149,150,679316,680821,674313,146448,674313,150,785243,786751,782241,680823,782241,visual_patterns,0,0,0,yes,1366
undefined,undefined,undefined,undefined,white,no,Mozilla,Netscape,"5.0 (Windows NT 10.0; Win64; x64) AppleWebKit/537.36 (KHTML, like Gecko) Chrome/98.0.4758.80 Safari/537.36 Edg/98.0.1108.50",xpyriment,legacy,legacy,0,uniform,0,0,0,0,24,24,24,0,0,74,74,74,74,74,0,74,0,11,11,11,11,11,0,11,02-02-22,02-02-22,20:02:55,Wed Mar 02 2022 20:02:55 GMT+0100 (közép-európai téli idő),The main experiment item,yes,0,0,C:/Users/rrics/Documents/!!ResearchBMECOGSCI/gnet,0,0,0,prototype4.png,no,mono,no,18,no,black,no,no,768,1172,3.5.6,legacy,xpyriment,osweb,1.3.13,0,right,enter,right,right,56214,33063,45544,56214,2,legacy,728,1366,24,768,24,0,0,1366,1646247792317,1024,2,48000,-16,experiment,p1sarr2.png,0,even,Win32,150,144930,141915,149,150,679316,680821,674313,146448,674313,150,789759,791266,786757,680823,786757,visual_patterns,0,0,0,yes,1366
undefined,undefined,undefined,undefined,white,no,Mozilla,Netscape,"5.0 (Windows NT 10.0; Win64; x64) AppleWebKit/537.36 (KHTML, like Gecko) Chrome/98.0.4758.80 Safari/537.36 Edg/98.0.1108.50",xpyriment,legacy,legacy,0,uniform,0,0,0,0,24,24,24,0,0,74,74,74,74,74,0,74,0,12,12,12,12,12,0,12,02-02-22,02-02-22,20:02:55,Wed Mar 02 2022 20:02:55 GMT+0100 (közép-európai téli idő),The main experiment item,yes,0,0,C:/Users/rrics/Documents/!!ResearchBMECOGSCI/gnet,0,0,0,prototype4.png,no,mono,no,18,no,black,no,no,768,1172,3.5.6,legacy,xpyriment,osweb,1.3.13,0,right,enter,right,right,56214,33063,45544,56214,2,legacy,728,1366,24,768,24,0,0,1366,1646247792317,1024,2,48000,-16,experiment,p3sarrcol4.png,0,even,Win32,150,144930,141915,149,150,679316,680821,674313,146448,674313,150,794273,795782,791275,680823,791275,visual_patterns,0,0,0,yes,1366
undefined,undefined,undefined,undefined,white,no,Mozilla,Netscape,"5.0 (Windows NT 10.0; Win64; x64) AppleWebKit/537.36 (KHTML, like Gecko) Chrome/98.0.4758.80 Safari/537.36 Edg/98.0.1108.50",xpyriment,legacy,legacy,0,uniform,0,0,0,0,24,24,24,0,0,74,74,74,74,74,0,74,0,13,13,13,13,13,0,13,02-02-22,02-02-22,20:02:55,Wed Mar 02 2022 20:02:55 GMT+0100 (közép-európai téli idő),The main experiment item,yes,0,0,C:/Users/rrics/Documents/!!ResearchBMECOGSCI/gnet,0,0,0,prototype4.png,no,mono,no,18,no,black,no,no,768,1172,3.5.6,legacy,xpyriment,osweb,1.3.13,0,right,enter,right,right,56214,33063,45544,56214,2,legacy,728,1366,24,768,24,0,0,1366,1646247792317,1024,2,48000,-16,experiment,p2sarrshacol2.png,0,even,Win32,150,144930,141915,149,150,679316,680821,674313,146448,674313,150,798792,800299,795789,680823,795789,visual_patterns,0,0,0,yes,1366
undefined,undefined,undefined,undefined,white,no,Mozilla,Netscape,"5.0 (Windows NT 10.0; Win64; x64) AppleWebKit/537.36 (KHTML, like Gecko) Chrome/98.0.4758.80 Safari/537.36 Edg/98.0.1108.50",xpyriment,legacy,legacy,0,uniform,0,0,0,0,24,24,24,0,0,74,74,74,74,74,0,74,0,14,14,14,14,14,0,14,02-02-22,02-02-22,20:02:55,Wed Mar 02 2022 20:02:55 GMT+0100 (közép-európai téli idő),The main experiment item,yes,0,0,C:/Users/rrics/Documents/!!ResearchBMECOGSCI/gnet,0,0,0,prototype4.png,no,mono,no,18,no,black,no,no,768,1172,3.5.6,legacy,xpyriment,osweb,1.3.13,0,right,enter,right,right,56214,33063,45544,56214,2,legacy,728,1366,24,768,24,0,0,1366,1646247792317,1024,2,48000,-16,experiment,p6sarr1.png,0,even,Win32,150,144930,141915,149,150,679316,680821,674313,146448,674313,150,803309,804816,800306,680823,800306,visual_patterns,0,0,0,yes,1366
undefined,undefined,undefined,undefined,white,no,Mozilla,Netscape,"5.0 (Windows NT 10.0; Win64; x64) AppleWebKit/537.36 (KHTML, like Gecko) Chrome/98.0.4758.80 Safari/537.36 Edg/98.0.1108.50",xpyriment,legacy,legacy,0,uniform,0,0,0,0,24,24,24,0,0,74,74,74,74,74,0,74,0,15,15,15,15,15,0,15,02-02-22,02-02-22,20:02:55,Wed Mar 02 2022 20:02:55 GMT+0100 (közép-európai téli idő),The main experiment item,yes,0,0,C:/Users/rrics/Documents/!!ResearchBMECOGSCI/gnet,0,0,0,prototype4.png,no,mono,no,18,no,black,no,no,768,1172,3.5.6,legacy,xpyriment,osweb,1.3.13,0,right,enter,right,right,56214,33063,45544,56214,2,legacy,728,1366,24,768,24,0,0,1366,1646247792317,1024,2,48000,-16,experiment,p4sarrshacol3.png,0,even,Win32,150,144930,141915,149,150,679316,680821,674313,146448,674313,150,807824,809332,804824,680823,804824,visual_patterns,0,0,0,yes,1366
undefined,undefined,undefined,undefined,white,no,Mozilla,Netscape,"5.0 (Windows NT 10.0; Win64; x64) AppleWebKit/537.36 (KHTML, like Gecko) Chrome/98.0.4758.80 Safari/537.36 Edg/98.0.1108.50",xpyriment,legacy,legacy,0,uniform,0,0,0,0,24,24,24,0,0,74,74,74,74,74,0,74,0,16,16,16,16,16,0,16,02-02-22,02-02-22,20:02:55,Wed Mar 02 2022 20:02:55 GMT+0100 (közép-európai téli idő),The main experiment item,yes,0,0,C:/Users/rrics/Documents/!!ResearchBMECOGSCI/gnet,0,0,0,prototype4.png,no,mono,no,18,no,black,no,no,768,1172,3.5.6,legacy,xpyriment,osweb,1.3.13,0,right,enter,right,right,56214,33063,45544,56214,2,legacy,728,1366,24,768,24,0,0,1366,1646247792317,1024,2,48000,-16,experiment,p4sarrshacol4.png,0,even,Win32,150,144930,141915,149,150,679316,680821,674313,146448,674313,150,812340,813848,809340,680823,809340,visual_patterns,0,0,0,yes,1366
undefined,undefined,undefined,undefined,white,no,Mozilla,Netscape,"5.0 (Windows NT 10.0; Win64; x64) AppleWebKit/537.36 (KHTML, like Gecko) Chrome/98.0.4758.80 Safari/537.36 Edg/98.0.1108.50",xpyriment,legacy,legacy,0,uniform,0,0,0,0,24,24,24,0,0,74,74,74,74,74,0,74,0,17,17,17,17,17,0,17,02-02-22,02-02-22,20:02:55,Wed Mar 02 2022 20:02:55 GMT+0100 (közép-európai téli idő),The main experiment item,yes,0,0,C:/Users/rrics/Documents/!!ResearchBMECOGSCI/gnet,0,0,0,prototype4.png,no,mono,no,18,no,black,no,no,768,1172,3.5.6,legacy,xpyriment,osweb,1.3.13,0,right,enter,right,right,56214,33063,45544,56214,2,legacy,728,1366,24,768,24,0,0,1366,1646247792317,1024,2,48000,-16,experiment,p2sarrcol1.png,0,even,Win32,150,144930,141915,149,150,679316,680821,674313,146448,674313,150,816857,818367,813857,680823,813857,visual_patterns,0,0,0,yes,1366
undefined,undefined,undefined,undefined,white,no,Mozilla,Netscape,"5.0 (Windows NT 10.0; Win64; x64) AppleWebKit/537.36 (KHTML, like Gecko) Chrome/98.0.4758.80 Safari/537.36 Edg/98.0.1108.50",xpyriment,legacy,legacy,0,uniform,0,0,0,0,24,24,24,0,0,74,74,74,74,74,0,74,0,18,18,18,18,18,0,18,02-02-22,02-02-22,20:02:55,Wed Mar 02 2022 20:02:55 GMT+0100 (közép-európai téli idő),The main experiment item,yes,0,0,C:/Users/rrics/Documents/!!ResearchBMECOGSCI/gnet,0,0,0,prototype4.png,no,mono,no,18,no,black,no,no,768,1172,3.5.6,legacy,xpyriment,osweb,1.3.13,0,right,enter,right,right,56214,33063,45544,56214,2,legacy,728,1366,24,768,24,0,0,1366,1646247792317,1024,2,48000,-16,experiment,p1sarr4.png,0,even,Win32,150,144930,141915,149,150,679316,680821,674313,146448,674313,150,821375,822882,818375,680823,818375,visual_patterns,0,0,0,yes,1366
undefined,undefined,undefined,undefined,white,no,Mozilla,Netscape,"5.0 (Windows NT 10.0; Win64; x64) AppleWebKit/537.36 (KHTML, like Gecko) Chrome/98.0.4758.80 Safari/537.36 Edg/98.0.1108.50",xpyriment,legacy,legacy,0,uniform,0,0,0,0,24,24,24,0,0,74,74,74,74,74,0,74,0,19,19,19,19,19,0,19,02-02-22,02-02-22,20:02:55,Wed Mar 02 2022 20:02:55 GMT+0100 (közép-európai téli idő),The main experiment item,yes,0,0,C:/Users/rrics/Documents/!!ResearchBMECOGSCI/gnet,0,0,0,prototype4.png,no,mono,no,18,no,black,no,no,768,1172,3.5.6,legacy,xpyriment,osweb,1.3.13,0,right,enter,right,right,56214,33063,45544,56214,2,legacy,728,1366,24,768,24,0,0,1366,1646247792317,1024,2,48000,-16,experiment,p10sarr1.png,0,even,Win32,150,144930,141915,149,150,679316,680821,674313,146448,674313,150,825894,827397,822891,680823,822891,visual_patterns,0,0,0,yes,1366
undefined,undefined,undefined,undefined,white,no,Mozilla,Netscape,"5.0 (Windows NT 10.0; Win64; x64) AppleWebKit/537.36 (KHTML, like Gecko) Chrome/98.0.4758.80 Safari/537.36 Edg/98.0.1108.50",xpyriment,legacy,legacy,0,uniform,0,0,0,0,24,24,24,0,0,74,74,74,74,74,0,74,0,20,20,20,20,20,0,20,02-02-22,02-02-22,20:02:55,Wed Mar 02 2022 20:02:55 GMT+0100 (közép-európai téli idő),The main experiment item,yes,0,0,C:/Users/rrics/Documents/!!ResearchBMECOGSCI/gnet,0,0,0,prototype4.png,no,mono,no,18,no,black,no,no,768,1172,3.5.6,legacy,xpyriment,osweb,1.3.13,0,right,enter,right,right,56214,33063,45544,56214,2,legacy,728,1366,24,768,24,0,0,1366,1646247792317,1024,2,48000,-16,experiment,p8sarr3.png,0,even,Win32,150,144930,141915,149,150,679316,680821,674313,146448,674313,150,830408,831915,827404,680823,827404,visual_patterns,0,0,0,yes,1366
undefined,undefined,undefined,undefined,white,no,Mozilla,Netscape,"5.0 (Windows NT 10.0; Win64; x64) AppleWebKit/537.36 (KHTML, like Gecko) Chrome/98.0.4758.80 Safari/537.36 Edg/98.0.1108.50",xpyriment,legacy,legacy,0,uniform,0,0,0,0,24,24,24,0,0,74,74,74,74,74,0,74,0,21,21,21,21,21,0,21,02-02-22,02-02-22,20:02:55,Wed Mar 02 2022 20:02:55 GMT+0100 (közép-európai téli idő),The main experiment item,yes,0,0,C:/Users/rrics/Documents/!!ResearchBMECOGSCI/gnet,0,0,0,prototype4.png,no,mono,no,18,no,black,no,no,768,1172,3.5.6,legacy,xpyriment,osweb,1.3.13,0,right,enter,right,right,56214,33063,45544,56214,2,legacy,728,1366,24,768,24,0,0,1366,1646247792317,1024,2,48000,-16,experiment,p9sarr4.png,0,even,Win32,150,144930,141915,149,150,679316,680821,674313,146448,674313,150,834939,836447,831935,680823,831935,visual_patterns,0,0,0,yes,1366
undefined,undefined,undefined,undefined,white,no,Mozilla,Netscape,"5.0 (Windows NT 10.0; Win64; x64) AppleWebKit/537.36 (KHTML, like Gecko) Chrome/98.0.4758.80 Safari/537.36 Edg/98.0.1108.50",xpyriment,legacy,legacy,0,uniform,0,0,0,0,24,24,24,0,0,74,74,74,74,74,0,74,0,22,22,22,22,22,0,22,02-02-22,02-02-22,20:02:55,Wed Mar 02 2022 20:02:55 GMT+0100 (közép-európai téli idő),The main experiment item,yes,0,0,C:/Users/rrics/Documents/!!ResearchBMECOGSCI/gnet,0,0,0,prototype4.png,no,mono,no,18,no,black,no,no,768,1172,3.5.6,legacy,xpyriment,osweb,1.3.13,0,right,enter,right,right,56214,33063,45544,56214,2,legacy,728,1366,24,768,24,0,0,1366,1646247792317,1024,2,48000,-16,experiment,p5sarrcol2.png,0,even,Win32,150,144930,141915,149,150,679316,680821,674313,146448,674313,150,839458,840963,836453,680823,836453,visual_patterns,0,0,0,yes,1366
undefined,undefined,undefined,undefined,white,no,Mozilla,Netscape,"5.0 (Windows NT 10.0; Win64; x64) AppleWebKit/537.36 (KHTML, like Gecko) Chrome/98.0.4758.80 Safari/537.36 Edg/98.0.1108.50",xpyriment,legacy,legacy,0,uniform,0,0,0,0,24,24,24,0,0,74,74,74,74,74,0,74,0,23,23,23,23,23,0,23,02-02-22,02-02-22,20:02:55,Wed Mar 02 2022 20:02:55 GMT+0100 (közép-európai téli idő),The main experiment item,yes,0,0,C:/Users/rrics/Documents/!!ResearchBMECOGSCI/gnet,0,0,0,prototype4.png,no,mono,no,18,no,black,no,no,768,1172,3.5.6,legacy,xpyriment,osweb,1.3.13,0,right,enter,right,right,56214,33063,45544,56214,2,legacy,728,1366,24,768,24,0,0,1366,1646247792317,1024,2,48000,-16,experiment,p7sarr4.png,0,even,Win32,150,144930,141915,149,150,679316,680821,674313,146448,674313,150,843971,845481,840972,680823,840972,visual_patterns,0,0,0,yes,1366
undefined,undefined,undefined,undefined,white,no,Mozilla,Netscape,"5.0 (Windows NT 10.0; Win64; x64) AppleWebKit/537.36 (KHTML, like Gecko) Chrome/98.0.4758.80 Safari/537.36 Edg/98.0.1108.50",xpyriment,legacy,legacy,0,uniform,0,0,0,0,24,24,24,0,0,74,74,74,74,74,0,74,0,24,24,24,24,24,0,24,02-02-22,02-02-22,20:02:55,Wed Mar 02 2022 20:02:55 GMT+0100 (közép-európai téli idő),The main experiment item,yes,0,0,C:/Users/rrics/Documents/!!ResearchBMECOGSCI/gnet,0,0,0,prototype4.png,no,mono,no,18,no,black,no,no,768,1172,3.5.6,legacy,xpyriment,osweb,1.3.13,0,right,enter,right,right,56214,33063,45544,56214,2,legacy,728,1366,24,768,24,0,0,1366,1646247792317,1024,2,48000,-16,experiment,p3sarrsha3.png,0,even,Win32,150,144930,141915,149,150,679316,680821,674313,146448,674313,150,848492,849997,845490,680823,845489,visual_patterns,0,0,0,yes,1366
undefined,undefined,undefined,undefined,white,no,Mozilla,Netscape,"5.0 (Windows NT 10.0; Win64; x64) AppleWebKit/537.36 (KHTML, like Gecko) Chrome/98.0.4758.80 Safari/537.36 Edg/98.0.1108.50",xpyriment,legacy,legacy,0,uniform,0,0,0,0,24,24,24,0,0,74,74,74,74,74,0,74,0,25,25,25,25,25,0,25,02-02-22,02-02-22,20:02:55,Wed Mar 02 2022 20:02:55 GMT+0100 (közép-európai téli idő),The main experiment item,yes,0,0,C:/Users/rrics/Documents/!!ResearchBMECOGSCI/gnet,0,0,0,prototype4.png,no,mono,no,18,no,black,no,no,768,1172,3.5.6,legacy,xpyriment,osweb,1.3.13,0,right,enter,right,right,56214,33063,45544,56214,2,legacy,728,1366,24,768,24,0,0,1366,1646247792317,1024,2,48000,-16,experiment,p8sarr4.png,0,even,Win32,150,144930,141915,149,150,679316,680821,674313,146448,674313,150,853008,854515,850005,680823,850005,visual_patterns,0,0,0,yes,1366
undefined,undefined,undefined,undefined,white,no,Mozilla,Netscape,"5.0 (Windows NT 10.0; Win64; x64) AppleWebKit/537.36 (KHTML, like Gecko) Chrome/98.0.4758.80 Safari/537.36 Edg/98.0.1108.50",xpyriment,legacy,legacy,0,uniform,0,0,0,0,24,24,24,0,0,74,74,74,74,74,0,74,0,26,26,26,26,26,0,26,02-02-22,02-02-22,20:02:55,Wed Mar 02 2022 20:02:55 GMT+0100 (közép-európai téli idő),The main experiment item,yes,0,0,C:/Users/rrics/Documents/!!ResearchBMECOGSCI/gnet,0,0,0,prototype4.png,no,mono,no,18,no,black,no,no,768,1172,3.5.6,legacy,xpyriment,osweb,1.3.13,0,right,enter,right,right,56214,33063,45544,56214,2,legacy,728,1366,24,768,24,0,0,1366,1646247792317,1024,2,48000,-16,experiment,p2sarrshacol4.png,0,even,Win32,150,144930,141915,149,150,679316,680821,674313,146448,674313,150,857536,859046,854534,680823,854534,visual_patterns,0,0,0,yes,1366
undefined,undefined,undefined,undefined,white,no,Mozilla,Netscape,"5.0 (Windows NT 10.0; Win64; x64) AppleWebKit/537.36 (KHTML, like Gecko) Chrome/98.0.4758.80 Safari/537.36 Edg/98.0.1108.50",xpyriment,legacy,legacy,0,uniform,0,0,0,0,24,24,24,0,0,74,74,74,74,74,0,74,0,27,27,27,27,27,0,27,02-02-22,02-02-22,20:02:55,Wed Mar 02 2022 20:02:55 GMT+0100 (közép-európai téli idő),The main experiment item,yes,0,0,C:/Users/rrics/Documents/!!ResearchBMECOGSCI/gnet,0,0,0,prototype4.png,no,mono,no,18,no,black,no,no,768,1172,3.5.6,legacy,xpyriment,osweb,1.3.13,0,right,enter,right,right,56214,33063,45544,56214,2,legacy,728,1366,24,768,24,0,0,1366,1646247792317,1024,2,48000,-16,experiment,p4sarrshacol1.png,0,even,Win32,150,144930,141915,149,150,679316,680821,674313,146448,674313,150,862054,863563,859052,680823,859052,visual_patterns,0,0,0,yes,1366
undefined,undefined,undefined,undefined,white,no,Mozilla,Netscape,"5.0 (Windows NT 10.0; Win64; x64) AppleWebKit/537.36 (KHTML, like Gecko) Chrome/98.0.4758.80 Safari/537.36 Edg/98.0.1108.50",xpyriment,legacy,legacy,0,uniform,0,0,0,0,24,24,24,0,0,74,74,74,74,74,0,74,0,28,28,28,28,28,0,28,02-02-22,02-02-22,20:02:55,Wed Mar 02 2022 20:02:55 GMT+0100 (közép-európai téli idő),The main experiment item,yes,0,0,C:/Users/rrics/Documents/!!ResearchBMECOGSCI/gnet,0,0,0,prototype4.png,no,mono,no,18,no,black,no,no,768,1172,3.5.6,legacy,xpyriment,osweb,1.3.13,0,right,enter,right,right,56214,33063,45544,56214,2,legacy,728,1366,24,768,24,0,0,1366,1646247792317,1024,2,48000,-16,experiment,p1sarrshacol3.png,0,even,Win32,150,144930,141915,149,150,679316,680821,674313,146448,674313,150,866570,868079,863570,680823,863570,visual_patterns,0,0,0,yes,1366
undefined,undefined,undefined,undefined,white,no,Mozilla,Netscape,"5.0 (Windows NT 10.0; Win64; x64) AppleWebKit/537.36 (KHTML, like Gecko) Chrome/98.0.4758.80 Safari/537.36 Edg/98.0.1108.50",xpyriment,legacy,legacy,0,uniform,0,0,0,0,24,24,24,0,0,74,74,74,74,74,0,74,0,29,29,29,29,29,0,29,02-02-22,02-02-22,20:02:55,Wed Mar 02 2022 20:02:55 GMT+0100 (közép-európai téli idő),The main experiment item,yes,0,0,C:/Users/rrics/Documents/!!ResearchBMECOGSCI/gnet,0,0,0,prototype4.png,no,mono,no,18,no,black,no,no,768,1172,3.5.6,legacy,xpyriment,osweb,1.3.13,0,right,enter,right,right,56214,33063,45544,56214,2,legacy,728,1366,24,768,24,0,0,1366,1646247792317,1024,2,48000,-16,experiment,p2sarrsha1.png,0,even,Win32,150,144930,141915,149,150,679316,680821,674313,146448,674313,150,871088,872595,868087,680823,868087,visual_patterns,0,0,0,yes,1366
undefined,undefined,undefined,undefined,white,no,Mozilla,Netscape,"5.0 (Windows NT 10.0; Win64; x64) AppleWebKit/537.36 (KHTML, like Gecko) Chrome/98.0.4758.80 Safari/537.36 Edg/98.0.1108.50",xpyriment,legacy,legacy,0,uniform,0,0,0,0,24,24,24,0,0,74,74,74,74,74,0,74,0,30,30,30,30,30,0,30,02-02-22,02-02-22,20:02:55,Wed Mar 02 2022 20:02:55 GMT+0100 (közép-európai téli idő),The main experiment item,yes,0,0,C:/Users/rrics/Documents/!!ResearchBMECOGSCI/gnet,0,0,0,prototype4.png,no,mono,no,18,no,black,no,no,768,1172,3.5.6,legacy,xpyriment,osweb,1.3.13,0,right,enter,right,right,56214,33063,45544,56214,2,legacy,728,1366,24,768,24,0,0,1366,1646247792317,1024,2,48000,-16,experiment,p3sarr2.png,0,even,Win32,150,144930,141915,149,150,679316,680821,674313,146448,674313,150,875605,877113,872602,680823,872602,visual_patterns,0,0,0,yes,1366
undefined,undefined,undefined,undefined,white,no,Mozilla,Netscape,"5.0 (Windows NT 10.0; Win64; x64) AppleWebKit/537.36 (KHTML, like Gecko) Chrome/98.0.4758.80 Safari/537.36 Edg/98.0.1108.50",xpyriment,legacy,legacy,0,uniform,0,0,0,0,24,24,24,0,0,74,74,74,74,74,0,74,0,31,31,31,31,31,0,31,02-02-22,02-02-22,20:02:55,Wed Mar 02 2022 20:02:55 GMT+0100 (közép-európai téli idő),The main experiment item,yes,0,0,C:/Users/rrics/Documents/!!ResearchBMECOGSCI/gnet,0,0,0,prototype4.png,no,mono,no,18,no,black,no,no,768,1172,3.5.6,legacy,xpyriment,osweb,1.3.13,0,right,enter,right,right,56214,33063,45544,56214,2,legacy,728,1366,24,768,24,0,0,1366,1646247792317,1024,2,48000,-16,experiment,p3sarrshacol3.png,0,even,Win32,150,144930,141915,149,150,679316,680821,674313,146448,674313,150,880134,881645,877135,680823,877135,visual_patterns,0,0,0,yes,1366
undefined,undefined,undefined,undefined,white,no,Mozilla,Netscape,"5.0 (Windows NT 10.0; Win64; x64) AppleWebKit/537.36 (KHTML, like Gecko) Chrome/98.0.4758.80 Safari/537.36 Edg/98.0.1108.50",xpyriment,legacy,legacy,0,uniform,0,0,0,0,24,24,24,0,0,74,74,74,74,74,0,74,0,32,32,32,32,32,0,32,02-02-22,02-02-22,20:02:55,Wed Mar 02 2022 20:02:55 GMT+0100 (közép-európai téli idő),The main experiment item,yes,0,0,C:/Users/rrics/Documents/!!ResearchBMECOGSCI/gnet,0,0,0,prototype4.png,no,mono,no,18,no,black,no,no,768,1172,3.5.6,legacy,xpyriment,osweb,1.3.13,0,right,enter,right,right,56214,33063,45544,56214,2,legacy,728,1366,24,768,24,0,0,1366,1646247792317,1024,2,48000,-16,experiment,p2sarrcol4.png,0,even,Win32,150,144930,141915,149,150,679316,680821,674313,146448,674313,150,884653,886161,881654,680823,881654,visual_patterns,0,0,0,yes,1366
undefined,undefined,undefined,undefined,white,no,Mozilla,Netscape,"5.0 (Windows NT 10.0; Win64; x64) AppleWebKit/537.36 (KHTML, like Gecko) Chrome/98.0.4758.80 Safari/537.36 Edg/98.0.1108.50",xpyriment,legacy,legacy,0,uniform,0,0,0,0,24,24,24,0,0,74,74,74,74,74,0,74,0,33,33,33,33,33,0,33,02-02-22,02-02-22,20:02:55,Wed Mar 02 2022 20:02:55 GMT+0100 (közép-európai téli idő),The main experiment item,yes,0,0,C:/Users/rrics/Documents/!!ResearchBMECOGSCI/gnet,0,0,0,prototype4.png,no,mono,no,18,no,black,no,no,768,1172,3.5.6,legacy,xpyriment,osweb,1.3.13,0,right,enter,right,right,56214,33063,45544,56214,2,legacy,728,1366,24,768,24,0,0,1366,1646247792317,1024,2,48000,-16,experiment,p5sarrcol1.png,0,even,Win32,150,144930,141915,149,150,679316,680821,674313,146448,674313,150,889169,890678,886169,680823,886169,visual_patterns,0,0,0,yes,1366
undefined,undefined,undefined,undefined,white,no,Mozilla,Netscape,"5.0 (Windows NT 10.0; Win64; x64) AppleWebKit/537.36 (KHTML, like Gecko) Chrome/98.0.4758.80 Safari/537.36 Edg/98.0.1108.50",xpyriment,legacy,legacy,0,uniform,0,0,0,0,24,24,24,0,0,74,74,74,74,74,0,74,0,34,34,34,34,34,0,34,02-02-22,02-02-22,20:02:55,Wed Mar 02 2022 20:02:55 GMT+0100 (közép-európai téli idő),The main experiment item,yes,0,0,C:/Users/rrics/Documents/!!ResearchBMECOGSCI/gnet,0,0,0,prototype4.png,no,mono,no,18,no,black,no,no,768,1172,3.5.6,legacy,xpyriment,osweb,1.3.13,0,right,enter,right,right,56214,33063,45544,56214,2,legacy,728,1366,24,768,24,0,0,1366,1646247792317,1024,2,48000,-16,experiment,p8sarr2.png,0,even,Win32,150,144930,141915,149,150,679316,680821,674313,146448,674313,150,893688,895194,890685,680823,890685,visual_patterns,0,0,0,yes,1366
undefined,undefined,undefined,undefined,white,no,Mozilla,Netscape,"5.0 (Windows NT 10.0; Win64; x64) AppleWebKit/537.36 (KHTML, like Gecko) Chrome/98.0.4758.80 Safari/537.36 Edg/98.0.1108.50",xpyriment,legacy,legacy,0,uniform,0,0,0,0,24,24,24,0,0,74,74,74,74,74,0,74,0,35,35,35,35,35,0,35,02-02-22,02-02-22,20:02:55,Wed Mar 02 2022 20:02:55 GMT+0100 (közép-európai téli idő),The main experiment item,yes,0,0,C:/Users/rrics/Documents/!!ResearchBMECOGSCI/gnet,0,0,0,prototype4.png,no,mono,no,18,no,black,no,no,768,1172,3.5.6,legacy,xpyriment,osweb,1.3.13,0,right,enter,right,right,56214,33063,45544,56214,2,legacy,728,1366,24,768,24,0,0,1366,1646247792317,1024,2,48000,-16,experiment,p5sarr3.png,0,even,Win32,150,144930,141915,149,150,679316,680821,674313,146448,674313,150,898202,899711,895204,680823,895204,visual_patterns,0,0,0,yes,1366
undefined,undefined,undefined,undefined,white,no,Mozilla,Netscape,"5.0 (Windows NT 10.0; Win64; x64) AppleWebKit/537.36 (KHTML, like Gecko) Chrome/98.0.4758.80 Safari/537.36 Edg/98.0.1108.50",xpyriment,legacy,legacy,0,uniform,0,0,0,0,24,24,24,0,0,74,74,74,74,74,0,74,0,36,36,36,36,36,0,36,02-02-22,02-02-22,20:02:55,Wed Mar 02 2022 20:02:55 GMT+0100 (közép-európai téli idő),The main experiment item,yes,0,0,C:/Users/rrics/Documents/!!ResearchBMECOGSCI/gnet,0,0,0,prototype4.png,no,mono,no,18,no,black,no,no,768,1172,3.5.6,legacy,xpyriment,osweb,1.3.13,0,right,enter,right,right,56214,33063,45544,56214,2,legacy,728,1366,24,768,24,0,0,1366,1646247792317,1024,2,48000,-16,experiment,p7sarr1.png,0,even,Win32,150,144930,141915,149,150,679316,680821,674313,146448,674313,150,902730,904244,899727,680823,899727,visual_patterns,0,0,0,yes,1366
undefined,undefined,undefined,undefined,white,no,Mozilla,Netscape,"5.0 (Windows NT 10.0; Win64; x64) AppleWebKit/537.36 (KHTML, like Gecko) Chrome/98.0.4758.80 Safari/537.36 Edg/98.0.1108.50",xpyriment,legacy,legacy,0,uniform,0,0,0,0,24,24,24,0,0,74,74,74,74,74,0,74,0,37,37,37,37,37,0,37,02-02-22,02-02-22,20:02:55,Wed Mar 02 2022 20:02:55 GMT+0100 (közép-európai téli idő),The main experiment item,yes,0,0,C:/Users/rrics/Documents/!!ResearchBMECOGSCI/gnet,0,0,0,prototype4.png,no,mono,no,18,no,black,no,no,768,1172,3.5.6,legacy,xpyriment,osweb,1.3.13,0,right,enter,right,right,56214,33063,45544,56214,2,legacy,728,1366,24,768,24,0,0,1366,1646247792317,1024,2,48000,-16,experiment,p1sarrcol4.png,0,even,Win32,150,144930,141915,149,150,679316,680821,674313,146448,674313,150,907254,908760,904251,680823,904251,visual_patterns,0,0,0,yes,1366
undefined,undefined,undefined,undefined,white,no,Mozilla,Netscape,"5.0 (Windows NT 10.0; Win64; x64) AppleWebKit/537.36 (KHTML, like Gecko) Chrome/98.0.4758.80 Safari/537.36 Edg/98.0.1108.50",xpyriment,legacy,legacy,0,uniform,0,0,0,0,24,24,24,0,0,74,74,74,74,74,0,74,0,38,38,38,38,38,0,38,02-02-22,02-02-22,20:02:55,Wed Mar 02 2022 20:02:55 GMT+0100 (közép-európai téli idő),The main experiment item,yes,0,0,C:/Users/rrics/Documents/!!ResearchBMECOGSCI/gnet,0,0,0,prototype4.png,no,mono,no,18,no,black,no,no,768,1172,3.5.6,legacy,xpyriment,osweb,1.3.13,0,right,enter,right,right,56214,33063,45544,56214,2,legacy,728,1366,24,768,24,0,0,1366,1646247792317,1024,2,48000,-16,experiment,p3sarrsha4.png,0,even,Win32,150,144930,141915,149,150,679316,680821,674313,146448,674313,150,911770,913278,908767,680823,908767,visual_patterns,0,0,0,yes,1366
undefined,undefined,undefined,undefined,white,no,Mozilla,Netscape,"5.0 (Windows NT 10.0; Win64; x64) AppleWebKit/537.36 (KHTML, like Gecko) Chrome/98.0.4758.80 Safari/537.36 Edg/98.0.1108.50",xpyriment,legacy,legacy,0,uniform,0,0,0,0,24,24,24,0,0,74,74,74,74,74,0,74,0,39,39,39,39,39,0,39,02-02-22,02-02-22,20:02:55,Wed Mar 02 2022 20:02:55 GMT+0100 (közép-európai téli idő),The main experiment item,yes,0,0,C:/Users/rrics/Documents/!!ResearchBMECOGSCI/gnet,0,0,0,prototype4.png,no,mono,no,18,no,black,no,no,768,1172,3.5.6,legacy,xpyriment,osweb,1.3.13,0,right,enter,right,right,56214,33063,45544,56214,2,legacy,728,1366,24,768,24,0,0,1366,1646247792317,1024,2,48000,-16,experiment,p3sarr1.png,0,even,Win32,150,144930,141915,149,150,679316,680821,674313,146448,674313,150,916285,917794,913285,680823,913285,visual_patterns,0,0,0,yes,1366
undefined,undefined,undefined,undefined,white,no,Mozilla,Netscape,"5.0 (Windows NT 10.0; Win64; x64) AppleWebKit/537.36 (KHTML, like Gecko) Chrome/98.0.4758.80 Safari/537.36 Edg/98.0.1108.50",xpyriment,legacy,legacy,0,uniform,0,0,0,0,24,24,24,0,0,74,74,74,74,74,0,74,0,40,40,40,40,40,0,40,02-02-22,02-02-22,20:02:55,Wed Mar 02 2022 20:02:55 GMT+0100 (közép-európai téli idő),The main experiment item,yes,0,0,C:/Users/rrics/Documents/!!ResearchBMECOGSCI/gnet,0,0,0,prototype4.png,no,mono,no,18,no,black,no,no,768,1172,3.5.6,legacy,xpyriment,osweb,1.3.13,0,right,enter,right,right,56214,33063,45544,56214,2,legacy,728,1366,24,768,24,0,0,1366,1646247792317,1024,2,48000,-16,experiment,p2sarrsha3.png,0,even,Win32,150,144930,141915,149,150,679316,680821,674313,146448,674313,150,920803,922310,917803,680823,917803,visual_patterns,0,0,0,yes,1366
undefined,undefined,undefined,undefined,white,no,Mozilla,Netscape,"5.0 (Windows NT 10.0; Win64; x64) AppleWebKit/537.36 (KHTML, like Gecko) Chrome/98.0.4758.80 Safari/537.36 Edg/98.0.1108.50",xpyriment,legacy,legacy,0,uniform,0,0,0,0,24,24,24,0,0,74,74,74,74,74,0,74,0,41,41,41,41,41,0,41,02-02-22,02-02-22,20:02:55,Wed Mar 02 2022 20:02:55 GMT+0100 (közép-európai téli idő),The main experiment item,yes,0,0,C:/Users/rrics/Documents/!!ResearchBMECOGSCI/gnet,0,0,0,prototype4.png,no,mono,no,18,no,black,no,no,768,1172,3.5.6,legacy,xpyriment,osweb,1.3.13,0,right,enter,right,right,56214,33063,45544,56214,2,legacy,728,1366,24,768,24,0,0,1366,1646247792317,1024,2,48000,-16,experiment,p9sarr3.png,0,even,Win32,150,144930,141915,149,150,679316,680821,674313,146448,674313,150,925319,926828,922319,680823,922319,visual_patterns,0,0,0,yes,1366
undefined,undefined,undefined,undefined,white,no,Mozilla,Netscape,"5.0 (Windows NT 10.0; Win64; x64) AppleWebKit/537.36 (KHTML, like Gecko) Chrome/98.0.4758.80 Safari/537.36 Edg/98.0.1108.50",xpyriment,legacy,legacy,0,uniform,0,0,0,0,24,24,24,0,0,74,74,74,74,74,0,74,0,42,42,42,42,42,0,42,02-02-22,02-02-22,20:02:55,Wed Mar 02 2022 20:02:55 GMT+0100 (közép-európai téli idő),The main experiment item,yes,0,0,C:/Users/rrics/Documents/!!ResearchBMECOGSCI/gnet,0,0,0,prototype4.png,no,mono,no,18,no,black,no,no,768,1172,3.5.6,legacy,xpyriment,osweb,1.3.13,0,right,enter,right,right,56214,33063,45544,56214,2,legacy,728,1366,24,768,24,0,0,1366,1646247792317,1024,2,48000,-16,experiment,p10sarr4.png,0,even,Win32,150,144930,141915,149,150,679316,680821,674313,146448,674313,150,929837,931343,926836,680823,926836,visual_patterns,0,0,0,yes,1366
undefined,undefined,undefined,undefined,white,no,Mozilla,Netscape,"5.0 (Windows NT 10.0; Win64; x64) AppleWebKit/537.36 (KHTML, like Gecko) Chrome/98.0.4758.80 Safari/537.36 Edg/98.0.1108.50",xpyriment,legacy,legacy,0,uniform,0,0,0,0,24,24,24,0,0,74,74,74,74,74,0,74,0,43,43,43,43,43,0,43,02-02-22,02-02-22,20:02:55,Wed Mar 02 2022 20:02:55 GMT+0100 (közép-európai téli idő),The main experiment item,yes,0,0,C:/Users/rrics/Documents/!!ResearchBMECOGSCI/gnet,0,0,0,prototype4.png,no,mono,no,18,no,black,no,no,768,1172,3.5.6,legacy,xpyriment,osweb,1.3.13,0,right,enter,right,right,56214,33063,45544,56214,2,legacy,728,1366,24,768,24,0,0,1366,1646247792317,1024,2,48000,-16,experiment,p4sarrcol1.png,0,even,Win32,150,144930,141915,149,150,679316,680821,674313,146448,674313,150,934351,935859,931350,680823,931350,visual_patterns,0,0,0,yes,1366
undefined,undefined,undefined,undefined,white,no,Mozilla,Netscape,"5.0 (Windows NT 10.0; Win64; x64) AppleWebKit/537.36 (KHTML, like Gecko) Chrome/98.0.4758.80 Safari/537.36 Edg/98.0.1108.50",xpyriment,legacy,legacy,0,uniform,0,0,0,0,24,24,24,0,0,74,74,74,74,74,0,74,0,44,44,44,44,44,0,44,02-02-22,02-02-22,20:02:55,Wed Mar 02 2022 20:02:55 GMT+0100 (közép-európai téli idő),The main experiment item,yes,0,0,C:/Users/rrics/Documents/!!ResearchBMECOGSCI/gnet,0,0,0,prototype4.png,no,mono,no,18,no,black,no,no,768,1172,3.5.6,legacy,xpyriment,osweb,1.3.13,0,right,enter,right,right,56214,33063,45544,56214,2,legacy,728,1366,24,768,24,0,0,1366,1646247792317,1024,2,48000,-16,experiment,p5sarrshacol4.png,0,even,Win32,150,144930,141915,149,150,679316,680821,674313,146448,674313,150,938866,940375,935866,680823,935866,visual_patterns,0,0,0,yes,1366
undefined,undefined,undefined,undefined,white,no,Mozilla,Netscape,"5.0 (Windows NT 10.0; Win64; x64) AppleWebKit/537.36 (KHTML, like Gecko) Chrome/98.0.4758.80 Safari/537.36 Edg/98.0.1108.50",xpyriment,legacy,legacy,0,uniform,0,0,0,0,24,24,24,0,0,74,74,74,74,74,0,74,0,45,45,45,45,45,0,45,02-02-22,02-02-22,20:02:55,Wed Mar 02 2022 20:02:55 GMT+0100 (közép-európai téli idő),The main experiment item,yes,0,0,C:/Users/rrics/Documents/!!ResearchBMECOGSCI/gnet,0,0,0,prototype4.png,no,mono,no,18,no,black,no,no,768,1172,3.5.6,legacy,xpyriment,osweb,1.3.13,0,right,enter,right,right,56214,33063,45544,56214,2,legacy,728,1366,24,768,24,0,0,1366,1646247792317,1024,2,48000,-16,experiment,p3sarr3.png,0,even,Win32,150,144930,141915,149,150,679316,680821,674313,146448,674313,150,943381,944892,940383,680823,940383,visual_patterns,0,0,0,yes,1366
