acc,accuracy,average_response_time,avg_rt,background,bidi,browser_codename,browser_name,browser_version,canvas_backend,clock_backend,color_backend,compensation,coordinates,count_end,count_experiment,count_osweb,count_prestudy,count_prestudy_isi,count_prestudy_sequence,count_prestudy_stimpres,count_start,count_study,count_study_coroutines,count_study_isi,count_study_logger,count_study_response,count_study_sequence,count_study_start,count_study_stimpres,count_test,count_test_coroutines,count_test_isi,count_test_logger,count_test_response,count_test_sequence,count_test_start,count_test_stimpres,date_startdate,date_startdateUTC,date_starttime,datetime,description,disable_garbage_collection,experiment_debug,experiment_parameters,experiment_path,experiment_pilot,experiment_taskname,experiment_taskversion,fampict,font_bold,font_family,font_italic,font_size,font_underline,foreground,form_clicks,fullscreen,height,jatosStudyResultId,jatosVersion,keyboard_backend,mouse_backend,opensesame_codename,opensesame_version,repeat_cycle,response,response_start,response_study_start,response_test_start,response_time,response_time_start,response_time_study_start,response_time_test_start,round_decimals,sampler_backend,screen_availableHeight,screen_availableWidth,screen_colorDepth,screen_height,screen_pixelDepth,screen_screenX,screen_screenY,screen_width,sessionid,sound_buf_size,sound_channels,sound_freq,sound_sample_size,start,stim,subject_nr,subject_parity,system_os,time_prestudy,time_prestudy_isi,time_prestudy_stimpres,time_start,time_study,time_study_isi,time_study_logger,time_study_response,time_study_start,time_study_stimpres,time_test,time_test_isi,time_test_logger,time_test_response,time_test_start,time_test_stimpres,title,total_correct,total_response_time,total_responses,uniform_coordinates,width
undefined,undefined,undefined,undefined,white,no,Mozilla,Netscape,"5.0 (Windows NT 10.0; WOW64) AppleWebKit/537.36 (KHTML, like Gecko) Chrome/98.0.4758.102 Safari/537.36",xpyriment,legacy,legacy,0,uniform,0,0,0,0,24,24,24,0,0,0,0,0,0,0,0,0,0,,,,,,0,,03-02-22,03-02-22,16:08:08,Thu Mar 03 2022 16:08:08 GMT+0100 (közép-európai téli idő),The main experiment item,yes,0,0,C:/Users/rrics/Documents/!!ResearchBMECOGSCI/gnet,0,0,0,prototype1.png,no,mono,no,18,no,black,no,no,768,1174,3.5.6,legacy,xpyriment,osweb,1.3.13,0,enter,enter,enter,,45964,17059,45964,,2,legacy,824,1536,24,864,24,0,0,1536,1646320147924,1024,2,48000,-16,experiment,p6sarr1.png,0,even,Win32,1263,130305,127292,1263,1263,182945,184447,177946,131822,177946,1263,,,,,,visual_patterns,0,0,0,yes,1366
undefined,undefined,undefined,undefined,white,no,Mozilla,Netscape,"5.0 (Windows NT 10.0; WOW64) AppleWebKit/537.36 (KHTML, like Gecko) Chrome/98.0.4758.102 Safari/537.36",xpyriment,legacy,legacy,0,uniform,0,0,0,0,24,24,24,0,0,1,1,1,1,1,0,1,0,,,,,,0,,03-02-22,03-02-22,16:08:08,Thu Mar 03 2022 16:08:08 GMT+0100 (közép-európai téli idő),The main experiment item,yes,0,0,C:/Users/rrics/Documents/!!ResearchBMECOGSCI/gnet,0,0,0,prototype1.png,no,mono,no,18,no,black,no,no,768,1174,3.5.6,legacy,xpyriment,osweb,1.3.13,0,enter,enter,enter,,45964,17059,45964,,2,legacy,824,1536,24,864,24,0,0,1536,1646320147924,1024,2,48000,-16,experiment,prototype3.png,0,even,Win32,1263,130305,127292,1263,1263,189453,190960,184453,131822,184452,1263,,,,,,visual_patterns,0,0,0,yes,1366
undefined,undefined,undefined,undefined,white,no,Mozilla,Netscape,"5.0 (Windows NT 10.0; WOW64) AppleWebKit/537.36 (KHTML, like Gecko) Chrome/98.0.4758.102 Safari/537.36",xpyriment,legacy,legacy,0,uniform,0,0,0,0,24,24,24,0,0,2,2,2,2,2,0,2,0,,,,,,0,,03-02-22,03-02-22,16:08:08,Thu Mar 03 2022 16:08:08 GMT+0100 (közép-európai téli idő),The main experiment item,yes,0,0,C:/Users/rrics/Documents/!!ResearchBMECOGSCI/gnet,0,0,0,prototype1.png,no,mono,no,18,no,black,no,no,768,1174,3.5.6,legacy,xpyriment,osweb,1.3.13,0,enter,enter,enter,,45964,17059,45964,,2,legacy,824,1536,24,864,24,0,0,1536,1646320147924,1024,2,48000,-16,experiment,p3sarr1.png,0,even,Win32,1263,130305,127292,1263,1263,195967,197474,190966,131822,190966,1263,,,,,,visual_patterns,0,0,0,yes,1366
undefined,undefined,undefined,undefined,white,no,Mozilla,Netscape,"5.0 (Windows NT 10.0; WOW64) AppleWebKit/537.36 (KHTML, like Gecko) Chrome/98.0.4758.102 Safari/537.36",xpyriment,legacy,legacy,0,uniform,0,0,0,0,24,24,24,0,0,3,3,3,3,3,0,3,0,,,,,,0,,03-02-22,03-02-22,16:08:08,Thu Mar 03 2022 16:08:08 GMT+0100 (közép-európai téli idő),The main experiment item,yes,0,0,C:/Users/rrics/Documents/!!ResearchBMECOGSCI/gnet,0,0,0,prototype1.png,no,mono,no,18,no,black,no,no,768,1174,3.5.6,legacy,xpyriment,osweb,1.3.13,0,enter,enter,enter,,45964,17059,45964,,2,legacy,824,1536,24,864,24,0,0,1536,1646320147924,1024,2,48000,-16,experiment,p9sarr2.png,0,even,Win32,1263,130305,127292,1263,1263,202482,203988,197482,131822,197482,1263,,,,,,visual_patterns,0,0,0,yes,1366
undefined,undefined,undefined,undefined,white,no,Mozilla,Netscape,"5.0 (Windows NT 10.0; WOW64) AppleWebKit/537.36 (KHTML, like Gecko) Chrome/98.0.4758.102 Safari/537.36",xpyriment,legacy,legacy,0,uniform,0,0,0,0,24,24,24,0,0,4,4,4,4,4,0,4,0,,,,,,0,,03-02-22,03-02-22,16:08:08,Thu Mar 03 2022 16:08:08 GMT+0100 (közép-európai téli idő),The main experiment item,yes,0,0,C:/Users/rrics/Documents/!!ResearchBMECOGSCI/gnet,0,0,0,prototype1.png,no,mono,no,18,no,black,no,no,768,1174,3.5.6,legacy,xpyriment,osweb,1.3.13,0,enter,enter,enter,,45964,17059,45964,,2,legacy,824,1536,24,864,24,0,0,1536,1646320147924,1024,2,48000,-16,experiment,p4sarr2.png,0,even,Win32,1263,130305,127292,1263,1263,208994,210502,203994,131822,203994,1263,,,,,,visual_patterns,0,0,0,yes,1366
undefined,undefined,undefined,undefined,white,no,Mozilla,Netscape,"5.0 (Windows NT 10.0; WOW64) AppleWebKit/537.36 (KHTML, like Gecko) Chrome/98.0.4758.102 Safari/537.36",xpyriment,legacy,legacy,0,uniform,0,0,0,0,24,24,24,0,0,5,5,5,5,5,0,5,0,,,,,,0,,03-02-22,03-02-22,16:08:08,Thu Mar 03 2022 16:08:08 GMT+0100 (közép-európai téli idő),The main experiment item,yes,0,0,C:/Users/rrics/Documents/!!ResearchBMECOGSCI/gnet,0,0,0,prototype1.png,no,mono,no,18,no,black,no,no,768,1174,3.5.6,legacy,xpyriment,osweb,1.3.13,0,enter,enter,enter,,45964,17059,45964,,2,legacy,824,1536,24,864,24,0,0,1536,1646320147924,1024,2,48000,-16,experiment,p4sarrshacol2.png,0,even,Win32,1263,130305,127292,1263,1263,215511,217015,210519,131822,210519,1263,,,,,,visual_patterns,0,0,0,yes,1366
undefined,undefined,undefined,undefined,white,no,Mozilla,Netscape,"5.0 (Windows NT 10.0; WOW64) AppleWebKit/537.36 (KHTML, like Gecko) Chrome/98.0.4758.102 Safari/537.36",xpyriment,legacy,legacy,0,uniform,0,0,0,0,24,24,24,0,0,6,6,6,6,6,0,6,0,,,,,,0,,03-02-22,03-02-22,16:08:08,Thu Mar 03 2022 16:08:08 GMT+0100 (közép-európai téli idő),The main experiment item,yes,0,0,C:/Users/rrics/Documents/!!ResearchBMECOGSCI/gnet,0,0,0,prototype1.png,no,mono,no,18,no,black,no,no,768,1174,3.5.6,legacy,xpyriment,osweb,1.3.13,0,enter,enter,enter,,45964,17059,45964,,2,legacy,824,1536,24,864,24,0,0,1536,1646320147924,1024,2,48000,-16,experiment,p5sarrsha2.png,0,even,Win32,1263,130305,127292,1263,1263,222024,223529,217026,131822,217026,1263,,,,,,visual_patterns,0,0,0,yes,1366
undefined,undefined,undefined,undefined,white,no,Mozilla,Netscape,"5.0 (Windows NT 10.0; WOW64) AppleWebKit/537.36 (KHTML, like Gecko) Chrome/98.0.4758.102 Safari/537.36",xpyriment,legacy,legacy,0,uniform,0,0,0,0,24,24,24,0,0,7,7,7,7,7,0,7,0,,,,,,0,,03-02-22,03-02-22,16:08:08,Thu Mar 03 2022 16:08:08 GMT+0100 (közép-európai téli idő),The main experiment item,yes,0,0,C:/Users/rrics/Documents/!!ResearchBMECOGSCI/gnet,0,0,0,prototype1.png,no,mono,no,18,no,black,no,no,768,1174,3.5.6,legacy,xpyriment,osweb,1.3.13,0,enter,enter,enter,,45964,17059,45964,,2,legacy,824,1536,24,864,24,0,0,1536,1646320147924,1024,2,48000,-16,experiment,p2sarr1.png,0,even,Win32,1263,130305,127292,1263,1263,228559,230076,223557,131822,223557,1263,,,,,,visual_patterns,0,0,0,yes,1366
undefined,undefined,undefined,undefined,white,no,Mozilla,Netscape,"5.0 (Windows NT 10.0; WOW64) AppleWebKit/537.36 (KHTML, like Gecko) Chrome/98.0.4758.102 Safari/537.36",xpyriment,legacy,legacy,0,uniform,0,0,0,0,24,24,24,0,0,8,8,8,8,8,0,8,0,,,,,,0,,03-02-22,03-02-22,16:08:08,Thu Mar 03 2022 16:08:08 GMT+0100 (közép-európai téli idő),The main experiment item,yes,0,0,C:/Users/rrics/Documents/!!ResearchBMECOGSCI/gnet,0,0,0,prototype1.png,no,mono,no,18,no,black,no,no,768,1174,3.5.6,legacy,xpyriment,osweb,1.3.13,0,enter,enter,enter,,45964,17059,45964,,2,legacy,824,1536,24,864,24,0,0,1536,1646320147924,1024,2,48000,-16,experiment,prototype4.png,0,even,Win32,1263,130305,127292,1263,1263,235084,236590,230082,131822,230082,1263,,,,,,visual_patterns,0,0,0,yes,1366
undefined,undefined,undefined,undefined,white,no,Mozilla,Netscape,"5.0 (Windows NT 10.0; WOW64) AppleWebKit/537.36 (KHTML, like Gecko) Chrome/98.0.4758.102 Safari/537.36",xpyriment,legacy,legacy,0,uniform,0,0,0,0,24,24,24,0,0,9,9,9,9,9,0,9,0,,,,,,0,,03-02-22,03-02-22,16:08:08,Thu Mar 03 2022 16:08:08 GMT+0100 (közép-európai téli idő),The main experiment item,yes,0,0,C:/Users/rrics/Documents/!!ResearchBMECOGSCI/gnet,0,0,0,prototype1.png,no,mono,no,18,no,black,no,no,768,1174,3.5.6,legacy,xpyriment,osweb,1.3.13,0,enter,enter,enter,,45964,17059,45964,,2,legacy,824,1536,24,864,24,0,0,1536,1646320147924,1024,2,48000,-16,experiment,p5sarrsha1.png,0,even,Win32,1263,130305,127292,1263,1263,241601,243103,236601,131822,236601,1263,,,,,,visual_patterns,0,0,0,yes,1366
undefined,undefined,undefined,undefined,white,no,Mozilla,Netscape,"5.0 (Windows NT 10.0; WOW64) AppleWebKit/537.36 (KHTML, like Gecko) Chrome/98.0.4758.102 Safari/537.36",xpyriment,legacy,legacy,0,uniform,0,0,0,0,24,24,24,0,0,10,10,10,10,10,0,10,0,,,,,,0,,03-02-22,03-02-22,16:08:08,Thu Mar 03 2022 16:08:08 GMT+0100 (közép-európai téli idő),The main experiment item,yes,0,0,C:/Users/rrics/Documents/!!ResearchBMECOGSCI/gnet,0,0,0,prototype1.png,no,mono,no,18,no,black,no,no,768,1174,3.5.6,legacy,xpyriment,osweb,1.3.13,0,enter,enter,enter,,45964,17059,45964,,2,legacy,824,1536,24,864,24,0,0,1536,1646320147924,1024,2,48000,-16,experiment,p5sarrcol1.png,0,even,Win32,1263,130305,127292,1263,1263,248114,249617,243120,131822,243120,1263,,,,,,visual_patterns,0,0,0,yes,1366
undefined,undefined,undefined,undefined,white,no,Mozilla,Netscape,"5.0 (Windows NT 10.0; WOW64) AppleWebKit/537.36 (KHTML, like Gecko) Chrome/98.0.4758.102 Safari/537.36",xpyriment,legacy,legacy,0,uniform,0,0,0,0,24,24,24,0,0,11,11,11,11,11,0,11,0,,,,,,0,,03-02-22,03-02-22,16:08:08,Thu Mar 03 2022 16:08:08 GMT+0100 (közép-európai téli idő),The main experiment item,yes,0,0,C:/Users/rrics/Documents/!!ResearchBMECOGSCI/gnet,0,0,0,prototype1.png,no,mono,no,18,no,black,no,no,768,1174,3.5.6,legacy,xpyriment,osweb,1.3.13,0,enter,enter,enter,,45964,17059,45964,,2,legacy,824,1536,24,864,24,0,0,1536,1646320147924,1024,2,48000,-16,experiment,p8sarr2.png,0,even,Win32,1263,130305,127292,1263,1263,254629,256131,249634,131822,249634,1263,,,,,,visual_patterns,0,0,0,yes,1366
undefined,undefined,undefined,undefined,white,no,Mozilla,Netscape,"5.0 (Windows NT 10.0; WOW64) AppleWebKit/537.36 (KHTML, like Gecko) Chrome/98.0.4758.102 Safari/537.36",xpyriment,legacy,legacy,0,uniform,0,0,0,0,24,24,24,0,0,12,12,12,12,12,0,12,0,,,,,,0,,03-02-22,03-02-22,16:08:08,Thu Mar 03 2022 16:08:08 GMT+0100 (közép-európai téli idő),The main experiment item,yes,0,0,C:/Users/rrics/Documents/!!ResearchBMECOGSCI/gnet,0,0,0,prototype1.png,no,mono,no,18,no,black,no,no,768,1174,3.5.6,legacy,xpyriment,osweb,1.3.13,0,enter,enter,enter,,45964,17059,45964,,2,legacy,824,1536,24,864,24,0,0,1536,1646320147924,1024,2,48000,-16,experiment,p5sarrshacol2.png,0,even,Win32,1263,130305,127292,1263,1263,261143,262645,256151,131822,256151,1263,,,,,,visual_patterns,0,0,0,yes,1366
undefined,undefined,undefined,undefined,white,no,Mozilla,Netscape,"5.0 (Windows NT 10.0; WOW64) AppleWebKit/537.36 (KHTML, like Gecko) Chrome/98.0.4758.102 Safari/537.36",xpyriment,legacy,legacy,0,uniform,0,0,0,0,24,24,24,0,0,13,13,13,13,13,0,13,0,,,,,,0,,03-02-22,03-02-22,16:08:08,Thu Mar 03 2022 16:08:08 GMT+0100 (közép-európai téli idő),The main experiment item,yes,0,0,C:/Users/rrics/Documents/!!ResearchBMECOGSCI/gnet,0,0,0,prototype1.png,no,mono,no,18,no,black,no,no,768,1174,3.5.6,legacy,xpyriment,osweb,1.3.13,0,enter,enter,enter,,45964,17059,45964,,2,legacy,824,1536,24,864,24,0,0,1536,1646320147924,1024,2,48000,-16,experiment,p8sarr1.png,0,even,Win32,1263,130305,127292,1263,1263,267656,269159,262667,131822,262667,1263,,,,,,visual_patterns,0,0,0,yes,1366
undefined,undefined,undefined,undefined,white,no,Mozilla,Netscape,"5.0 (Windows NT 10.0; WOW64) AppleWebKit/537.36 (KHTML, like Gecko) Chrome/98.0.4758.102 Safari/537.36",xpyriment,legacy,legacy,0,uniform,0,0,0,0,24,24,24,0,0,14,14,14,14,14,0,14,0,,,,,,0,,03-02-22,03-02-22,16:08:08,Thu Mar 03 2022 16:08:08 GMT+0100 (közép-európai téli idő),The main experiment item,yes,0,0,C:/Users/rrics/Documents/!!ResearchBMECOGSCI/gnet,0,0,0,prototype1.png,no,mono,no,18,no,black,no,no,768,1174,3.5.6,legacy,xpyriment,osweb,1.3.13,0,enter,enter,enter,,45964,17059,45964,,2,legacy,824,1536,24,864,24,0,0,1536,1646320147924,1024,2,48000,-16,experiment,p3sarrcol1.png,0,even,Win32,1263,130305,127292,1263,1263,274171,275673,269179,131822,269179,1263,,,,,,visual_patterns,0,0,0,yes,1366
undefined,undefined,undefined,undefined,white,no,Mozilla,Netscape,"5.0 (Windows NT 10.0; WOW64) AppleWebKit/537.36 (KHTML, like Gecko) Chrome/98.0.4758.102 Safari/537.36",xpyriment,legacy,legacy,0,uniform,0,0,0,0,24,24,24,0,0,15,15,15,15,15,0,15,0,,,,,,0,,03-02-22,03-02-22,16:08:08,Thu Mar 03 2022 16:08:08 GMT+0100 (közép-európai téli idő),The main experiment item,yes,0,0,C:/Users/rrics/Documents/!!ResearchBMECOGSCI/gnet,0,0,0,prototype1.png,no,mono,no,18,no,black,no,no,768,1174,3.5.6,legacy,xpyriment,osweb,1.3.13,0,enter,enter,enter,,45964,17059,45964,,2,legacy,824,1536,24,864,24,0,0,1536,1646320147924,1024,2,48000,-16,experiment,prototype1.png,0,even,Win32,1263,130305,127292,1263,1263,280684,282186,275690,131822,275690,1263,,,,,,visual_patterns,0,0,0,yes,1366
undefined,undefined,undefined,undefined,white,no,Mozilla,Netscape,"5.0 (Windows NT 10.0; WOW64) AppleWebKit/537.36 (KHTML, like Gecko) Chrome/98.0.4758.102 Safari/537.36",xpyriment,legacy,legacy,0,uniform,0,0,0,0,24,24,24,0,0,16,16,16,16,16,0,16,0,,,,,,0,,03-02-22,03-02-22,16:08:08,Thu Mar 03 2022 16:08:08 GMT+0100 (közép-európai téli idő),The main experiment item,yes,0,0,C:/Users/rrics/Documents/!!ResearchBMECOGSCI/gnet,0,0,0,prototype1.png,no,mono,no,18,no,black,no,no,768,1174,3.5.6,legacy,xpyriment,osweb,1.3.13,0,enter,enter,enter,,45964,17059,45964,,2,legacy,824,1536,24,864,24,0,0,1536,1646320147924,1024,2,48000,-16,experiment,p2sarr2.png,0,even,Win32,1263,130305,127292,1263,1263,287197,288700,282204,131822,282204,1263,,,,,,visual_patterns,0,0,0,yes,1366
undefined,undefined,undefined,undefined,white,no,Mozilla,Netscape,"5.0 (Windows NT 10.0; WOW64) AppleWebKit/537.36 (KHTML, like Gecko) Chrome/98.0.4758.102 Safari/537.36",xpyriment,legacy,legacy,0,uniform,0,0,0,0,24,24,24,0,0,17,17,17,17,17,0,17,0,,,,,,0,,03-02-22,03-02-22,16:08:08,Thu Mar 03 2022 16:08:08 GMT+0100 (közép-európai téli idő),The main experiment item,yes,0,0,C:/Users/rrics/Documents/!!ResearchBMECOGSCI/gnet,0,0,0,prototype1.png,no,mono,no,18,no,black,no,no,768,1174,3.5.6,legacy,xpyriment,osweb,1.3.13,0,enter,enter,enter,,45964,17059,45964,,2,legacy,824,1536,24,864,24,0,0,1536,1646320147924,1024,2,48000,-16,experiment,p3sarrsha2.png,0,even,Win32,1263,130305,127292,1263,1263,293713,295230,288717,131822,288717,1263,,,,,,visual_patterns,0,0,0,yes,1366
undefined,undefined,undefined,undefined,white,no,Mozilla,Netscape,"5.0 (Windows NT 10.0; WOW64) AppleWebKit/537.36 (KHTML, like Gecko) Chrome/98.0.4758.102 Safari/537.36",xpyriment,legacy,legacy,0,uniform,0,0,0,0,24,24,24,0,0,18,18,18,18,18,0,18,0,,,,,,0,,03-02-22,03-02-22,16:08:08,Thu Mar 03 2022 16:08:08 GMT+0100 (közép-európai téli idő),The main experiment item,yes,0,0,C:/Users/rrics/Documents/!!ResearchBMECOGSCI/gnet,0,0,0,prototype1.png,no,mono,no,18,no,black,no,no,768,1174,3.5.6,legacy,xpyriment,osweb,1.3.13,0,enter,enter,enter,,45964,17059,45964,,2,legacy,824,1536,24,864,24,0,0,1536,1646320147924,1024,2,48000,-16,experiment,prototype4.png,0,even,Win32,1263,130305,127292,1263,1263,300243,301744,295245,131822,295245,1263,,,,,,visual_patterns,0,0,0,yes,1366
undefined,undefined,undefined,undefined,white,no,Mozilla,Netscape,"5.0 (Windows NT 10.0; WOW64) AppleWebKit/537.36 (KHTML, like Gecko) Chrome/98.0.4758.102 Safari/537.36",xpyriment,legacy,legacy,0,uniform,0,0,0,0,24,24,24,0,0,19,19,19,19,19,0,19,0,,,,,,0,,03-02-22,03-02-22,16:08:08,Thu Mar 03 2022 16:08:08 GMT+0100 (közép-európai téli idő),The main experiment item,yes,0,0,C:/Users/rrics/Documents/!!ResearchBMECOGSCI/gnet,0,0,0,prototype1.png,no,mono,no,18,no,black,no,no,768,1174,3.5.6,legacy,xpyriment,osweb,1.3.13,0,enter,enter,enter,,45964,17059,45964,,2,legacy,824,1536,24,864,24,0,0,1536,1646320147924,1024,2,48000,-16,experiment,p3sarrsha1.png,0,even,Win32,1263,130305,127292,1263,1263,306752,308258,301755,131822,301755,1263,,,,,,visual_patterns,0,0,0,yes,1366
undefined,undefined,undefined,undefined,white,no,Mozilla,Netscape,"5.0 (Windows NT 10.0; WOW64) AppleWebKit/537.36 (KHTML, like Gecko) Chrome/98.0.4758.102 Safari/537.36",xpyriment,legacy,legacy,0,uniform,0,0,0,0,24,24,24,0,0,20,20,20,20,20,0,20,0,,,,,,0,,03-02-22,03-02-22,16:08:08,Thu Mar 03 2022 16:08:08 GMT+0100 (közép-európai téli idő),The main experiment item,yes,0,0,C:/Users/rrics/Documents/!!ResearchBMECOGSCI/gnet,0,0,0,prototype1.png,no,mono,no,18,no,black,no,no,768,1174,3.5.6,legacy,xpyriment,osweb,1.3.13,0,enter,enter,enter,,45964,17059,45964,,2,legacy,824,1536,24,864,24,0,0,1536,1646320147924,1024,2,48000,-16,experiment,prototype2.png,0,even,Win32,1263,130305,127292,1263,1263,313270,314772,308268,131822,308268,1263,,,,,,visual_patterns,0,0,0,yes,1366
undefined,undefined,undefined,undefined,white,no,Mozilla,Netscape,"5.0 (Windows NT 10.0; WOW64) AppleWebKit/537.36 (KHTML, like Gecko) Chrome/98.0.4758.102 Safari/537.36",xpyriment,legacy,legacy,0,uniform,0,0,0,0,24,24,24,0,0,21,21,21,21,21,0,21,0,,,,,,0,,03-02-22,03-02-22,16:08:08,Thu Mar 03 2022 16:08:08 GMT+0100 (közép-európai téli idő),The main experiment item,yes,0,0,C:/Users/rrics/Documents/!!ResearchBMECOGSCI/gnet,0,0,0,prototype1.png,no,mono,no,18,no,black,no,no,768,1174,3.5.6,legacy,xpyriment,osweb,1.3.13,0,enter,enter,enter,,45964,17059,45964,,2,legacy,824,1536,24,864,24,0,0,1536,1646320147924,1024,2,48000,-16,experiment,p4sarrcol2.png,0,even,Win32,1263,130305,127292,1263,1263,319782,321285,314782,131822,314782,1263,,,,,,visual_patterns,0,0,0,yes,1366
undefined,undefined,undefined,undefined,white,no,Mozilla,Netscape,"5.0 (Windows NT 10.0; WOW64) AppleWebKit/537.36 (KHTML, like Gecko) Chrome/98.0.4758.102 Safari/537.36",xpyriment,legacy,legacy,0,uniform,0,0,0,0,24,24,24,0,0,22,22,22,22,22,0,22,0,,,,,,0,,03-02-22,03-02-22,16:08:08,Thu Mar 03 2022 16:08:08 GMT+0100 (közép-európai téli idő),The main experiment item,yes,0,0,C:/Users/rrics/Documents/!!ResearchBMECOGSCI/gnet,0,0,0,prototype1.png,no,mono,no,18,no,black,no,no,768,1174,3.5.6,legacy,xpyriment,osweb,1.3.13,0,enter,enter,enter,,45964,17059,45964,,2,legacy,824,1536,24,864,24,0,0,1536,1646320147924,1024,2,48000,-16,experiment,p5sarrshacol1.png,0,even,Win32,1263,130305,127292,1263,1263,326315,327817,321316,131822,321316,1263,,,,,,visual_patterns,0,0,0,yes,1366
undefined,undefined,undefined,undefined,white,no,Mozilla,Netscape,"5.0 (Windows NT 10.0; WOW64) AppleWebKit/537.36 (KHTML, like Gecko) Chrome/98.0.4758.102 Safari/537.36",xpyriment,legacy,legacy,0,uniform,0,0,0,0,24,24,24,0,0,23,23,23,23,23,0,23,0,,,,,,0,,03-02-22,03-02-22,16:08:08,Thu Mar 03 2022 16:08:08 GMT+0100 (közép-európai téli idő),The main experiment item,yes,0,0,C:/Users/rrics/Documents/!!ResearchBMECOGSCI/gnet,0,0,0,prototype1.png,no,mono,no,18,no,black,no,no,768,1174,3.5.6,legacy,xpyriment,osweb,1.3.13,0,enter,enter,enter,,45964,17059,45964,,2,legacy,824,1536,24,864,24,0,0,1536,1646320147924,1024,2,48000,-16,experiment,prototype2.png,0,even,Win32,1263,130305,127292,1263,1263,332827,334329,327826,131822,327826,1263,,,,,,visual_patterns,0,0,0,yes,1366
undefined,undefined,undefined,undefined,white,no,Mozilla,Netscape,"5.0 (Windows NT 10.0; WOW64) AppleWebKit/537.36 (KHTML, like Gecko) Chrome/98.0.4758.102 Safari/537.36",xpyriment,legacy,legacy,0,uniform,0,0,0,0,24,24,24,0,0,24,24,24,24,24,0,24,0,,,,,,0,,03-02-22,03-02-22,16:08:08,Thu Mar 03 2022 16:08:08 GMT+0100 (közép-európai téli idő),The main experiment item,yes,0,0,C:/Users/rrics/Documents/!!ResearchBMECOGSCI/gnet,0,0,0,prototype1.png,no,mono,no,18,no,black,no,no,768,1174,3.5.6,legacy,xpyriment,osweb,1.3.13,0,enter,enter,enter,,45964,17059,45964,,2,legacy,824,1536,24,864,24,0,0,1536,1646320147924,1024,2,48000,-16,experiment,p4sarrsha2.png,0,even,Win32,1263,130305,127292,1263,1263,339337,340844,334335,131822,334335,1263,,,,,,visual_patterns,0,0,0,yes,1366
undefined,undefined,undefined,undefined,white,no,Mozilla,Netscape,"5.0 (Windows NT 10.0; WOW64) AppleWebKit/537.36 (KHTML, like Gecko) Chrome/98.0.4758.102 Safari/537.36",xpyriment,legacy,legacy,0,uniform,0,0,0,0,24,24,24,0,0,25,25,25,25,25,0,25,0,,,,,,0,,03-02-22,03-02-22,16:08:08,Thu Mar 03 2022 16:08:08 GMT+0100 (közép-európai téli idő),The main experiment item,yes,0,0,C:/Users/rrics/Documents/!!ResearchBMECOGSCI/gnet,0,0,0,prototype1.png,no,mono,no,18,no,black,no,no,768,1174,3.5.6,legacy,xpyriment,osweb,1.3.13,0,enter,enter,enter,,45964,17059,45964,,2,legacy,824,1536,24,864,24,0,0,1536,1646320147924,1024,2,48000,-16,experiment,p9sarr1.png,0,even,Win32,1263,130305,127292,1263,1263,345855,347357,340853,131822,340853,1263,,,,,,visual_patterns,0,0,0,yes,1366
undefined,undefined,undefined,undefined,white,no,Mozilla,Netscape,"5.0 (Windows NT 10.0; WOW64) AppleWebKit/537.36 (KHTML, like Gecko) Chrome/98.0.4758.102 Safari/537.36",xpyriment,legacy,legacy,0,uniform,0,0,0,0,24,24,24,0,0,26,26,26,26,26,0,26,0,,,,,,0,,03-02-22,03-02-22,16:08:08,Thu Mar 03 2022 16:08:08 GMT+0100 (közép-európai téli idő),The main experiment item,yes,0,0,C:/Users/rrics/Documents/!!ResearchBMECOGSCI/gnet,0,0,0,prototype1.png,no,mono,no,18,no,black,no,no,768,1174,3.5.6,legacy,xpyriment,osweb,1.3.13,0,enter,enter,enter,,45964,17059,45964,,2,legacy,824,1536,24,864,24,0,0,1536,1646320147924,1024,2,48000,-16,experiment,prototype1.png,0,even,Win32,1263,130305,127292,1263,1263,352364,353871,347366,131822,347366,1263,,,,,,visual_patterns,0,0,0,yes,1366
undefined,undefined,undefined,undefined,white,no,Mozilla,Netscape,"5.0 (Windows NT 10.0; WOW64) AppleWebKit/537.36 (KHTML, like Gecko) Chrome/98.0.4758.102 Safari/537.36",xpyriment,legacy,legacy,0,uniform,0,0,0,0,24,24,24,0,0,27,27,27,27,27,0,27,0,,,,,,0,,03-02-22,03-02-22,16:08:08,Thu Mar 03 2022 16:08:08 GMT+0100 (közép-európai téli idő),The main experiment item,yes,0,0,C:/Users/rrics/Documents/!!ResearchBMECOGSCI/gnet,0,0,0,prototype1.png,no,mono,no,18,no,black,no,no,768,1174,3.5.6,legacy,xpyriment,osweb,1.3.13,0,enter,enter,enter,,45964,17059,45964,,2,legacy,824,1536,24,864,24,0,0,1536,1646320147924,1024,2,48000,-16,experiment,p4sarrcol1.png,0,even,Win32,1263,130305,127292,1263,1263,358889,360402,353889,131822,353889,1263,,,,,,visual_patterns,0,0,0,yes,1366
undefined,undefined,undefined,undefined,white,no,Mozilla,Netscape,"5.0 (Windows NT 10.0; WOW64) AppleWebKit/537.36 (KHTML, like Gecko) Chrome/98.0.4758.102 Safari/537.36",xpyriment,legacy,legacy,0,uniform,0,0,0,0,24,24,24,0,0,28,28,28,28,28,0,28,0,,,,,,0,,03-02-22,03-02-22,16:08:08,Thu Mar 03 2022 16:08:08 GMT+0100 (közép-európai téli idő),The main experiment item,yes,0,0,C:/Users/rrics/Documents/!!ResearchBMECOGSCI/gnet,0,0,0,prototype1.png,no,mono,no,18,no,black,no,no,768,1174,3.5.6,legacy,xpyriment,osweb,1.3.13,0,enter,enter,enter,,45964,17059,45964,,2,legacy,824,1536,24,864,24,0,0,1536,1646320147924,1024,2,48000,-16,experiment,prototype4.png,0,even,Win32,1263,130305,127292,1263,1263,365410,366915,360409,131822,360409,1263,,,,,,visual_patterns,0,0,0,yes,1366
undefined,undefined,undefined,undefined,white,no,Mozilla,Netscape,"5.0 (Windows NT 10.0; WOW64) AppleWebKit/537.36 (KHTML, like Gecko) Chrome/98.0.4758.102 Safari/537.36",xpyriment,legacy,legacy,0,uniform,0,0,0,0,24,24,24,0,0,29,29,29,29,29,0,29,0,,,,,,0,,03-02-22,03-02-22,16:08:08,Thu Mar 03 2022 16:08:08 GMT+0100 (közép-európai téli idő),The main experiment item,yes,0,0,C:/Users/rrics/Documents/!!ResearchBMECOGSCI/gnet,0,0,0,prototype1.png,no,mono,no,18,no,black,no,no,768,1174,3.5.6,legacy,xpyriment,osweb,1.3.13,0,enter,enter,enter,,45964,17059,45964,,2,legacy,824,1536,24,864,24,0,0,1536,1646320147924,1024,2,48000,-16,experiment,prototype5.png,0,even,Win32,1263,130305,127292,1263,1263,371925,373428,366925,131822,366925,1263,,,,,,visual_patterns,0,0,0,yes,1366
undefined,undefined,undefined,undefined,white,no,Mozilla,Netscape,"5.0 (Windows NT 10.0; WOW64) AppleWebKit/537.36 (KHTML, like Gecko) Chrome/98.0.4758.102 Safari/537.36",xpyriment,legacy,legacy,0,uniform,0,0,0,0,24,24,24,0,0,30,30,30,30,30,0,30,0,,,,,,0,,03-02-22,03-02-22,16:08:08,Thu Mar 03 2022 16:08:08 GMT+0100 (közép-európai téli idő),The main experiment item,yes,0,0,C:/Users/rrics/Documents/!!ResearchBMECOGSCI/gnet,0,0,0,prototype1.png,no,mono,no,18,no,black,no,no,768,1174,3.5.6,legacy,xpyriment,osweb,1.3.13,0,enter,enter,enter,,45964,17059,45964,,2,legacy,824,1536,24,864,24,0,0,1536,1646320147924,1024,2,48000,-16,experiment,p5sarrcol2.png,0,even,Win32,1263,130305,127292,1263,1263,378433,379943,373436,131822,373435,1263,,,,,,visual_patterns,0,0,0,yes,1366
undefined,undefined,undefined,undefined,white,no,Mozilla,Netscape,"5.0 (Windows NT 10.0; WOW64) AppleWebKit/537.36 (KHTML, like Gecko) Chrome/98.0.4758.102 Safari/537.36",xpyriment,legacy,legacy,0,uniform,0,0,0,0,24,24,24,0,0,31,31,31,31,31,0,31,0,,,,,,0,,03-02-22,03-02-22,16:08:08,Thu Mar 03 2022 16:08:08 GMT+0100 (közép-európai téli idő),The main experiment item,yes,0,0,C:/Users/rrics/Documents/!!ResearchBMECOGSCI/gnet,0,0,0,prototype1.png,no,mono,no,18,no,black,no,no,768,1174,3.5.6,legacy,xpyriment,osweb,1.3.13,0,enter,enter,enter,,45964,17059,45964,,2,legacy,824,1536,24,864,24,0,0,1536,1646320147924,1024,2,48000,-16,experiment,p2sarrsha2.png,0,even,Win32,1263,130305,127292,1263,1263,384951,386457,379953,131822,379953,1263,,,,,,visual_patterns,0,0,0,yes,1366
undefined,undefined,undefined,undefined,white,no,Mozilla,Netscape,"5.0 (Windows NT 10.0; WOW64) AppleWebKit/537.36 (KHTML, like Gecko) Chrome/98.0.4758.102 Safari/537.36",xpyriment,legacy,legacy,0,uniform,0,0,0,0,24,24,24,0,0,32,32,32,32,32,0,32,0,,,,,,0,,03-02-22,03-02-22,16:08:08,Thu Mar 03 2022 16:08:08 GMT+0100 (közép-európai téli idő),The main experiment item,yes,0,0,C:/Users/rrics/Documents/!!ResearchBMECOGSCI/gnet,0,0,0,prototype1.png,no,mono,no,18,no,black,no,no,768,1174,3.5.6,legacy,xpyriment,osweb,1.3.13,0,enter,enter,enter,,45964,17059,45964,,2,legacy,824,1536,24,864,24,0,0,1536,1646320147924,1024,2,48000,-16,experiment,p5sarr1.png,0,even,Win32,1263,130305,127292,1263,1263,391474,392987,386475,131822,386475,1263,,,,,,visual_patterns,0,0,0,yes,1366
undefined,undefined,undefined,undefined,white,no,Mozilla,Netscape,"5.0 (Windows NT 10.0; WOW64) AppleWebKit/537.36 (KHTML, like Gecko) Chrome/98.0.4758.102 Safari/537.36",xpyriment,legacy,legacy,0,uniform,0,0,0,0,24,24,24,0,0,33,33,33,33,33,0,33,0,,,,,,0,,03-02-22,03-02-22,16:08:08,Thu Mar 03 2022 16:08:08 GMT+0100 (közép-európai téli idő),The main experiment item,yes,0,0,C:/Users/rrics/Documents/!!ResearchBMECOGSCI/gnet,0,0,0,prototype1.png,no,mono,no,18,no,black,no,no,768,1174,3.5.6,legacy,xpyriment,osweb,1.3.13,0,enter,enter,enter,,45964,17059,45964,,2,legacy,824,1536,24,864,24,0,0,1536,1646320147924,1024,2,48000,-16,experiment,p3sarrshacol1.png,0,even,Win32,1263,130305,127292,1263,1263,397996,399501,392998,131822,392998,1263,,,,,,visual_patterns,0,0,0,yes,1366
undefined,undefined,undefined,undefined,white,no,Mozilla,Netscape,"5.0 (Windows NT 10.0; WOW64) AppleWebKit/537.36 (KHTML, like Gecko) Chrome/98.0.4758.102 Safari/537.36",xpyriment,legacy,legacy,0,uniform,0,0,0,0,24,24,24,0,0,34,34,34,34,34,0,34,0,,,,,,0,,03-02-22,03-02-22,16:08:08,Thu Mar 03 2022 16:08:08 GMT+0100 (közép-európai téli idő),The main experiment item,yes,0,0,C:/Users/rrics/Documents/!!ResearchBMECOGSCI/gnet,0,0,0,prototype1.png,no,mono,no,18,no,black,no,no,768,1174,3.5.6,legacy,xpyriment,osweb,1.3.13,0,enter,enter,enter,,45964,17059,45964,,2,legacy,824,1536,24,864,24,0,0,1536,1646320147924,1024,2,48000,-16,experiment,prototype1.png,0,even,Win32,1263,130305,127292,1263,1263,404511,406015,399512,131822,399512,1263,,,,,,visual_patterns,0,0,0,yes,1366
undefined,undefined,undefined,undefined,white,no,Mozilla,Netscape,"5.0 (Windows NT 10.0; WOW64) AppleWebKit/537.36 (KHTML, like Gecko) Chrome/98.0.4758.102 Safari/537.36",xpyriment,legacy,legacy,0,uniform,0,0,0,0,24,24,24,0,0,35,35,35,35,35,0,35,0,,,,,,0,,03-02-22,03-02-22,16:08:08,Thu Mar 03 2022 16:08:08 GMT+0100 (közép-európai téli idő),The main experiment item,yes,0,0,C:/Users/rrics/Documents/!!ResearchBMECOGSCI/gnet,0,0,0,prototype1.png,no,mono,no,18,no,black,no,no,768,1174,3.5.6,legacy,xpyriment,osweb,1.3.13,0,enter,enter,enter,,45964,17059,45964,,2,legacy,824,1536,24,864,24,0,0,1536,1646320147924,1024,2,48000,-16,experiment,p4sarrshacol1.png,0,even,Win32,1263,130305,127292,1263,1263,411022,412528,406026,131822,406026,1263,,,,,,visual_patterns,0,0,0,yes,1366
undefined,undefined,undefined,undefined,white,no,Mozilla,Netscape,"5.0 (Windows NT 10.0; WOW64) AppleWebKit/537.36 (KHTML, like Gecko) Chrome/98.0.4758.102 Safari/537.36",xpyriment,legacy,legacy,0,uniform,0,0,0,0,24,24,24,0,0,36,36,36,36,36,0,36,0,,,,,,0,,03-02-22,03-02-22,16:08:08,Thu Mar 03 2022 16:08:08 GMT+0100 (közép-európai téli idő),The main experiment item,yes,0,0,C:/Users/rrics/Documents/!!ResearchBMECOGSCI/gnet,0,0,0,prototype1.png,no,mono,no,18,no,black,no,no,768,1174,3.5.6,legacy,xpyriment,osweb,1.3.13,0,enter,enter,enter,,45964,17059,45964,,2,legacy,824,1536,24,864,24,0,0,1536,1646320147924,1024,2,48000,-16,experiment,prototype3.png,0,even,Win32,1263,130305,127292,1263,1263,417535,419042,412539,131822,412539,1263,,,,,,visual_patterns,0,0,0,yes,1366
undefined,undefined,undefined,undefined,white,no,Mozilla,Netscape,"5.0 (Windows NT 10.0; WOW64) AppleWebKit/537.36 (KHTML, like Gecko) Chrome/98.0.4758.102 Safari/537.36",xpyriment,legacy,legacy,0,uniform,0,0,0,0,24,24,24,0,0,37,37,37,37,37,0,37,0,,,,,,0,,03-02-22,03-02-22,16:08:08,Thu Mar 03 2022 16:08:08 GMT+0100 (közép-európai téli idő),The main experiment item,yes,0,0,C:/Users/rrics/Documents/!!ResearchBMECOGSCI/gnet,0,0,0,prototype1.png,no,mono,no,18,no,black,no,no,768,1174,3.5.6,legacy,xpyriment,osweb,1.3.13,0,enter,enter,enter,,45964,17059,45964,,2,legacy,824,1536,24,864,24,0,0,1536,1646320147924,1024,2,48000,-16,experiment,prototype3.png,0,even,Win32,1263,130305,127292,1263,1263,424047,425555,419052,131822,419052,1263,,,,,,visual_patterns,0,0,0,yes,1366
undefined,undefined,undefined,undefined,white,no,Mozilla,Netscape,"5.0 (Windows NT 10.0; WOW64) AppleWebKit/537.36 (KHTML, like Gecko) Chrome/98.0.4758.102 Safari/537.36",xpyriment,legacy,legacy,0,uniform,0,0,0,0,24,24,24,0,0,38,38,38,38,38,0,38,0,,,,,,0,,03-02-22,03-02-22,16:08:08,Thu Mar 03 2022 16:08:08 GMT+0100 (közép-európai téli idő),The main experiment item,yes,0,0,C:/Users/rrics/Documents/!!ResearchBMECOGSCI/gnet,0,0,0,prototype1.png,no,mono,no,18,no,black,no,no,768,1174,3.5.6,legacy,xpyriment,osweb,1.3.13,0,enter,enter,enter,,45964,17059,45964,,2,legacy,824,1536,24,864,24,0,0,1536,1646320147924,1024,2,48000,-16,experiment,p7sarr1.png,0,even,Win32,1263,130305,127292,1263,1263,430563,432070,425564,131822,425564,1263,,,,,,visual_patterns,0,0,0,yes,1366
undefined,undefined,undefined,undefined,white,no,Mozilla,Netscape,"5.0 (Windows NT 10.0; WOW64) AppleWebKit/537.36 (KHTML, like Gecko) Chrome/98.0.4758.102 Safari/537.36",xpyriment,legacy,legacy,0,uniform,0,0,0,0,24,24,24,0,0,39,39,39,39,39,0,39,0,,,,,,0,,03-02-22,03-02-22,16:08:08,Thu Mar 03 2022 16:08:08 GMT+0100 (közép-európai téli idő),The main experiment item,yes,0,0,C:/Users/rrics/Documents/!!ResearchBMECOGSCI/gnet,0,0,0,prototype1.png,no,mono,no,18,no,black,no,no,768,1174,3.5.6,legacy,xpyriment,osweb,1.3.13,0,enter,enter,enter,,45964,17059,45964,,2,legacy,824,1536,24,864,24,0,0,1536,1646320147924,1024,2,48000,-16,experiment,p1sarrsha1.png,0,even,Win32,1263,130305,127292,1263,1263,437078,438585,432078,131822,432078,1263,,,,,,visual_patterns,0,0,0,yes,1366
undefined,undefined,undefined,undefined,white,no,Mozilla,Netscape,"5.0 (Windows NT 10.0; WOW64) AppleWebKit/537.36 (KHTML, like Gecko) Chrome/98.0.4758.102 Safari/537.36",xpyriment,legacy,legacy,0,uniform,0,0,0,0,24,24,24,0,0,40,40,40,40,40,0,40,0,,,,,,0,,03-02-22,03-02-22,16:08:08,Thu Mar 03 2022 16:08:08 GMT+0100 (közép-európai téli idő),The main experiment item,yes,0,0,C:/Users/rrics/Documents/!!ResearchBMECOGSCI/gnet,0,0,0,prototype1.png,no,mono,no,18,no,black,no,no,768,1174,3.5.6,legacy,xpyriment,osweb,1.3.13,0,enter,enter,enter,,45964,17059,45964,,2,legacy,824,1536,24,864,24,0,0,1536,1646320147924,1024,2,48000,-16,experiment,prototype5.png,0,even,Win32,1263,130305,127292,1263,1263,443594,445097,438593,131822,438593,1263,,,,,,visual_patterns,0,0,0,yes,1366
undefined,undefined,undefined,undefined,white,no,Mozilla,Netscape,"5.0 (Windows NT 10.0; WOW64) AppleWebKit/537.36 (KHTML, like Gecko) Chrome/98.0.4758.102 Safari/537.36",xpyriment,legacy,legacy,0,uniform,0,0,0,0,24,24,24,0,0,41,41,41,41,41,0,41,0,,,,,,0,,03-02-22,03-02-22,16:08:08,Thu Mar 03 2022 16:08:08 GMT+0100 (közép-európai téli idő),The main experiment item,yes,0,0,C:/Users/rrics/Documents/!!ResearchBMECOGSCI/gnet,0,0,0,prototype1.png,no,mono,no,18,no,black,no,no,768,1174,3.5.6,legacy,xpyriment,osweb,1.3.13,0,enter,enter,enter,,45964,17059,45964,,2,legacy,824,1536,24,864,24,0,0,1536,1646320147924,1024,2,48000,-16,experiment,p3sarrshacol2.png,0,even,Win32,1263,130305,127292,1263,1263,450108,451611,445105,131822,445105,1263,,,,,,visual_patterns,0,0,0,yes,1366
undefined,undefined,undefined,undefined,white,no,Mozilla,Netscape,"5.0 (Windows NT 10.0; WOW64) AppleWebKit/537.36 (KHTML, like Gecko) Chrome/98.0.4758.102 Safari/537.36",xpyriment,legacy,legacy,0,uniform,0,0,0,0,24,24,24,0,0,42,42,42,42,42,0,42,0,,,,,,0,,03-02-22,03-02-22,16:08:08,Thu Mar 03 2022 16:08:08 GMT+0100 (közép-európai téli idő),The main experiment item,yes,0,0,C:/Users/rrics/Documents/!!ResearchBMECOGSCI/gnet,0,0,0,prototype1.png,no,mono,no,18,no,black,no,no,768,1174,3.5.6,legacy,xpyriment,osweb,1.3.13,0,enter,enter,enter,,45964,17059,45964,,2,legacy,824,1536,24,864,24,0,0,1536,1646320147924,1024,2,48000,-16,experiment,p3sarrcol2.png,0,even,Win32,1263,130305,127292,1263,1263,456623,458125,451620,131822,451620,1263,,,,,,visual_patterns,0,0,0,yes,1366
undefined,undefined,undefined,undefined,white,no,Mozilla,Netscape,"5.0 (Windows NT 10.0; WOW64) AppleWebKit/537.36 (KHTML, like Gecko) Chrome/98.0.4758.102 Safari/537.36",xpyriment,legacy,legacy,0,uniform,0,0,0,0,24,24,24,0,0,43,43,43,43,43,0,43,0,,,,,,0,,03-02-22,03-02-22,16:08:08,Thu Mar 03 2022 16:08:08 GMT+0100 (közép-európai téli idő),The main experiment item,yes,0,0,C:/Users/rrics/Documents/!!ResearchBMECOGSCI/gnet,0,0,0,prototype1.png,no,mono,no,18,no,black,no,no,768,1174,3.5.6,legacy,xpyriment,osweb,1.3.13,0,enter,enter,enter,,45964,17059,45964,,2,legacy,824,1536,24,864,24,0,0,1536,1646320147924,1024,2,48000,-16,experiment,p3sarr2.png,0,even,Win32,1263,130305,127292,1263,1263,463135,464638,458134,131822,458134,1263,,,,,,visual_patterns,0,0,0,yes,1366
undefined,undefined,undefined,undefined,white,no,Mozilla,Netscape,"5.0 (Windows NT 10.0; WOW64) AppleWebKit/537.36 (KHTML, like Gecko) Chrome/98.0.4758.102 Safari/537.36",xpyriment,legacy,legacy,0,uniform,0,0,0,0,24,24,24,0,0,44,44,44,44,44,0,44,0,,,,,,0,,03-02-22,03-02-22,16:08:08,Thu Mar 03 2022 16:08:08 GMT+0100 (közép-európai téli idő),The main experiment item,yes,0,0,C:/Users/rrics/Documents/!!ResearchBMECOGSCI/gnet,0,0,0,prototype1.png,no,mono,no,18,no,black,no,no,768,1174,3.5.6,legacy,xpyriment,osweb,1.3.13,0,enter,enter,enter,,45964,17059,45964,,2,legacy,824,1536,24,864,24,0,0,1536,1646320147924,1024,2,48000,-16,experiment,p2sarrsha1.png,0,even,Win32,1263,130305,127292,1263,1263,469646,471152,464647,131822,464647,1263,,,,,,visual_patterns,0,0,0,yes,1366
undefined,undefined,undefined,undefined,white,no,Mozilla,Netscape,"5.0 (Windows NT 10.0; WOW64) AppleWebKit/537.36 (KHTML, like Gecko) Chrome/98.0.4758.102 Safari/537.36",xpyriment,legacy,legacy,0,uniform,0,0,0,0,24,24,24,0,0,45,45,45,45,45,0,45,0,,,,,,0,,03-02-22,03-02-22,16:08:08,Thu Mar 03 2022 16:08:08 GMT+0100 (közép-európai téli idő),The main experiment item,yes,0,0,C:/Users/rrics/Documents/!!ResearchBMECOGSCI/gnet,0,0,0,prototype1.png,no,mono,no,18,no,black,no,no,768,1174,3.5.6,legacy,xpyriment,osweb,1.3.13,0,enter,enter,enter,,45964,17059,45964,,2,legacy,824,1536,24,864,24,0,0,1536,1646320147924,1024,2,48000,-16,experiment,p4sarrsha1.png,0,even,Win32,1263,130305,127292,1263,1263,476158,477666,471159,131822,471159,1263,,,,,,visual_patterns,0,0,0,yes,1366
undefined,undefined,undefined,undefined,white,no,Mozilla,Netscape,"5.0 (Windows NT 10.0; WOW64) AppleWebKit/537.36 (KHTML, like Gecko) Chrome/98.0.4758.102 Safari/537.36",xpyriment,legacy,legacy,0,uniform,0,0,0,0,24,24,24,0,0,46,46,46,46,46,0,46,0,,,,,,0,,03-02-22,03-02-22,16:08:08,Thu Mar 03 2022 16:08:08 GMT+0100 (közép-európai téli idő),The main experiment item,yes,0,0,C:/Users/rrics/Documents/!!ResearchBMECOGSCI/gnet,0,0,0,prototype1.png,no,mono,no,18,no,black,no,no,768,1174,3.5.6,legacy,xpyriment,osweb,1.3.13,0,enter,enter,enter,,45964,17059,45964,,2,legacy,824,1536,24,864,24,0,0,1536,1646320147924,1024,2,48000,-16,experiment,p1sarrcol1.png,0,even,Win32,1263,130305,127292,1263,1263,482674,484180,477678,131822,477678,1263,,,,,,visual_patterns,0,0,0,yes,1366
undefined,undefined,undefined,undefined,white,no,Mozilla,Netscape,"5.0 (Windows NT 10.0; WOW64) AppleWebKit/537.36 (KHTML, like Gecko) Chrome/98.0.4758.102 Safari/537.36",xpyriment,legacy,legacy,0,uniform,0,0,0,0,24,24,24,0,0,47,47,47,47,47,0,47,0,,,,,,0,,03-02-22,03-02-22,16:08:08,Thu Mar 03 2022 16:08:08 GMT+0100 (közép-európai téli idő),The main experiment item,yes,0,0,C:/Users/rrics/Documents/!!ResearchBMECOGSCI/gnet,0,0,0,prototype1.png,no,mono,no,18,no,black,no,no,768,1174,3.5.6,legacy,xpyriment,osweb,1.3.13,0,enter,enter,enter,,45964,17059,45964,,2,legacy,824,1536,24,864,24,0,0,1536,1646320147924,1024,2,48000,-16,experiment,p1sarrsha2.png,0,even,Win32,1263,130305,127292,1263,1263,489189,490694,484193,131822,484193,1263,,,,,,visual_patterns,0,0,0,yes,1366
undefined,undefined,undefined,undefined,white,no,Mozilla,Netscape,"5.0 (Windows NT 10.0; WOW64) AppleWebKit/537.36 (KHTML, like Gecko) Chrome/98.0.4758.102 Safari/537.36",xpyriment,legacy,legacy,0,uniform,0,0,0,0,24,24,24,0,0,48,48,48,48,48,0,48,0,,,,,,0,,03-02-22,03-02-22,16:08:08,Thu Mar 03 2022 16:08:08 GMT+0100 (közép-európai téli idő),The main experiment item,yes,0,0,C:/Users/rrics/Documents/!!ResearchBMECOGSCI/gnet,0,0,0,prototype1.png,no,mono,no,18,no,black,no,no,768,1174,3.5.6,legacy,xpyriment,osweb,1.3.13,0,enter,enter,enter,,45964,17059,45964,,2,legacy,824,1536,24,864,24,0,0,1536,1646320147924,1024,2,48000,-16,experiment,p7sarr2.png,0,even,Win32,1263,130305,127292,1263,1263,495702,497207,490706,131822,490706,1263,,,,,,visual_patterns,0,0,0,yes,1366
undefined,undefined,undefined,undefined,white,no,Mozilla,Netscape,"5.0 (Windows NT 10.0; WOW64) AppleWebKit/537.36 (KHTML, like Gecko) Chrome/98.0.4758.102 Safari/537.36",xpyriment,legacy,legacy,0,uniform,0,0,0,0,24,24,24,0,0,49,49,49,49,49,0,49,0,,,,,,0,,03-02-22,03-02-22,16:08:08,Thu Mar 03 2022 16:08:08 GMT+0100 (közép-európai téli idő),The main experiment item,yes,0,0,C:/Users/rrics/Documents/!!ResearchBMECOGSCI/gnet,0,0,0,prototype1.png,no,mono,no,18,no,black,no,no,768,1174,3.5.6,legacy,xpyriment,osweb,1.3.13,0,enter,enter,enter,,45964,17059,45964,,2,legacy,824,1536,24,864,24,0,0,1536,1646320147924,1024,2,48000,-16,experiment,p4sarr1.png,0,even,Win32,1263,130305,127292,1263,1263,502218,503721,497220,131822,497220,1263,,,,,,visual_patterns,0,0,0,yes,1366
undefined,undefined,undefined,undefined,white,no,Mozilla,Netscape,"5.0 (Windows NT 10.0; WOW64) AppleWebKit/537.36 (KHTML, like Gecko) Chrome/98.0.4758.102 Safari/537.36",xpyriment,legacy,legacy,0,uniform,0,0,0,0,24,24,24,0,0,50,50,50,50,50,0,50,0,,,,,,0,,03-02-22,03-02-22,16:08:08,Thu Mar 03 2022 16:08:08 GMT+0100 (közép-európai téli idő),The main experiment item,yes,0,0,C:/Users/rrics/Documents/!!ResearchBMECOGSCI/gnet,0,0,0,prototype1.png,no,mono,no,18,no,black,no,no,768,1174,3.5.6,legacy,xpyriment,osweb,1.3.13,0,enter,enter,enter,,45964,17059,45964,,2,legacy,824,1536,24,864,24,0,0,1536,1646320147924,1024,2,48000,-16,experiment,p10sarr1.png,0,even,Win32,1263,130305,127292,1263,1263,508730,510235,503732,131822,503732,1263,,,,,,visual_patterns,0,0,0,yes,1366
undefined,undefined,undefined,undefined,white,no,Mozilla,Netscape,"5.0 (Windows NT 10.0; WOW64) AppleWebKit/537.36 (KHTML, like Gecko) Chrome/98.0.4758.102 Safari/537.36",xpyriment,legacy,legacy,0,uniform,0,0,0,0,24,24,24,0,0,51,51,51,51,51,0,51,0,,,,,,0,,03-02-22,03-02-22,16:08:08,Thu Mar 03 2022 16:08:08 GMT+0100 (közép-európai téli idő),The main experiment item,yes,0,0,C:/Users/rrics/Documents/!!ResearchBMECOGSCI/gnet,0,0,0,prototype1.png,no,mono,no,18,no,black,no,no,768,1174,3.5.6,legacy,xpyriment,osweb,1.3.13,0,enter,enter,enter,,45964,17059,45964,,2,legacy,824,1536,24,864,24,0,0,1536,1646320147924,1024,2,48000,-16,experiment,prototype3.png,0,even,Win32,1263,130305,127292,1263,1263,515243,516749,510248,131822,510248,1263,,,,,,visual_patterns,0,0,0,yes,1366
undefined,undefined,undefined,undefined,white,no,Mozilla,Netscape,"5.0 (Windows NT 10.0; WOW64) AppleWebKit/537.36 (KHTML, like Gecko) Chrome/98.0.4758.102 Safari/537.36",xpyriment,legacy,legacy,0,uniform,0,0,0,0,24,24,24,0,0,52,52,52,52,52,0,52,0,,,,,,0,,03-02-22,03-02-22,16:08:08,Thu Mar 03 2022 16:08:08 GMT+0100 (közép-európai téli idő),The main experiment item,yes,0,0,C:/Users/rrics/Documents/!!ResearchBMECOGSCI/gnet,0,0,0,prototype1.png,no,mono,no,18,no,black,no,no,768,1174,3.5.6,legacy,xpyriment,osweb,1.3.13,0,enter,enter,enter,,45964,17059,45964,,2,legacy,824,1536,24,864,24,0,0,1536,1646320147924,1024,2,48000,-16,experiment,p1sarr1.png,0,even,Win32,1263,130305,127292,1263,1263,521766,523279,516768,131822,516768,1263,,,,,,visual_patterns,0,0,0,yes,1366
undefined,undefined,undefined,undefined,white,no,Mozilla,Netscape,"5.0 (Windows NT 10.0; WOW64) AppleWebKit/537.36 (KHTML, like Gecko) Chrome/98.0.4758.102 Safari/537.36",xpyriment,legacy,legacy,0,uniform,0,0,0,0,24,24,24,0,0,53,53,53,53,53,0,53,0,,,,,,0,,03-02-22,03-02-22,16:08:08,Thu Mar 03 2022 16:08:08 GMT+0100 (közép-európai téli idő),The main experiment item,yes,0,0,C:/Users/rrics/Documents/!!ResearchBMECOGSCI/gnet,0,0,0,prototype1.png,no,mono,no,18,no,black,no,no,768,1174,3.5.6,legacy,xpyriment,osweb,1.3.13,0,enter,enter,enter,,45964,17059,45964,,2,legacy,824,1536,24,864,24,0,0,1536,1646320147924,1024,2,48000,-16,experiment,p1sarrcol2.png,0,even,Win32,1263,130305,127292,1263,1263,528287,529793,523293,131822,523293,1263,,,,,,visual_patterns,0,0,0,yes,1366
undefined,undefined,undefined,undefined,white,no,Mozilla,Netscape,"5.0 (Windows NT 10.0; WOW64) AppleWebKit/537.36 (KHTML, like Gecko) Chrome/98.0.4758.102 Safari/537.36",xpyriment,legacy,legacy,0,uniform,0,0,0,0,24,24,24,0,0,54,54,54,54,54,0,54,0,,,,,,0,,03-02-22,03-02-22,16:08:08,Thu Mar 03 2022 16:08:08 GMT+0100 (közép-európai téli idő),The main experiment item,yes,0,0,C:/Users/rrics/Documents/!!ResearchBMECOGSCI/gnet,0,0,0,prototype1.png,no,mono,no,18,no,black,no,no,768,1174,3.5.6,legacy,xpyriment,osweb,1.3.13,0,enter,enter,enter,,45964,17059,45964,,2,legacy,824,1536,24,864,24,0,0,1536,1646320147924,1024,2,48000,-16,experiment,p2sarrcol2.png,0,even,Win32,1263,130305,127292,1263,1263,534804,536306,529803,131822,529803,1263,,,,,,visual_patterns,0,0,0,yes,1366
undefined,undefined,undefined,undefined,white,no,Mozilla,Netscape,"5.0 (Windows NT 10.0; WOW64) AppleWebKit/537.36 (KHTML, like Gecko) Chrome/98.0.4758.102 Safari/537.36",xpyriment,legacy,legacy,0,uniform,0,0,0,0,24,24,24,0,0,55,55,55,55,55,0,55,0,,,,,,0,,03-02-22,03-02-22,16:08:08,Thu Mar 03 2022 16:08:08 GMT+0100 (közép-európai téli idő),The main experiment item,yes,0,0,C:/Users/rrics/Documents/!!ResearchBMECOGSCI/gnet,0,0,0,prototype1.png,no,mono,no,18,no,black,no,no,768,1174,3.5.6,legacy,xpyriment,osweb,1.3.13,0,enter,enter,enter,,45964,17059,45964,,2,legacy,824,1536,24,864,24,0,0,1536,1646320147924,1024,2,48000,-16,experiment,prototype4.png,0,even,Win32,1263,130305,127292,1263,1263,541316,542820,536319,131822,536319,1263,,,,,,visual_patterns,0,0,0,yes,1366
undefined,undefined,undefined,undefined,white,no,Mozilla,Netscape,"5.0 (Windows NT 10.0; WOW64) AppleWebKit/537.36 (KHTML, like Gecko) Chrome/98.0.4758.102 Safari/537.36",xpyriment,legacy,legacy,0,uniform,0,0,0,0,24,24,24,0,0,56,56,56,56,56,0,56,0,,,,,,0,,03-02-22,03-02-22,16:08:08,Thu Mar 03 2022 16:08:08 GMT+0100 (közép-európai téli idő),The main experiment item,yes,0,0,C:/Users/rrics/Documents/!!ResearchBMECOGSCI/gnet,0,0,0,prototype1.png,no,mono,no,18,no,black,no,no,768,1174,3.5.6,legacy,xpyriment,osweb,1.3.13,0,enter,enter,enter,,45964,17059,45964,,2,legacy,824,1536,24,864,24,0,0,1536,1646320147924,1024,2,48000,-16,experiment,p2sarrshacol1.png,0,even,Win32,1263,130305,127292,1263,1263,547829,549334,542832,131822,542832,1263,,,,,,visual_patterns,0,0,0,yes,1366
undefined,undefined,undefined,undefined,white,no,Mozilla,Netscape,"5.0 (Windows NT 10.0; WOW64) AppleWebKit/537.36 (KHTML, like Gecko) Chrome/98.0.4758.102 Safari/537.36",xpyriment,legacy,legacy,0,uniform,0,0,0,0,24,24,24,0,0,57,57,57,57,57,0,57,0,,,,,,0,,03-02-22,03-02-22,16:08:08,Thu Mar 03 2022 16:08:08 GMT+0100 (közép-európai téli idő),The main experiment item,yes,0,0,C:/Users/rrics/Documents/!!ResearchBMECOGSCI/gnet,0,0,0,prototype1.png,no,mono,no,18,no,black,no,no,768,1174,3.5.6,legacy,xpyriment,osweb,1.3.13,0,enter,enter,enter,,45964,17059,45964,,2,legacy,824,1536,24,864,24,0,0,1536,1646320147924,1024,2,48000,-16,experiment,prototype5.png,0,even,Win32,1263,130305,127292,1263,1263,554349,555864,549353,131822,549353,1263,,,,,,visual_patterns,0,0,0,yes,1366
undefined,undefined,undefined,undefined,white,no,Mozilla,Netscape,"5.0 (Windows NT 10.0; WOW64) AppleWebKit/537.36 (KHTML, like Gecko) Chrome/98.0.4758.102 Safari/537.36",xpyriment,legacy,legacy,0,uniform,0,0,0,0,24,24,24,0,0,58,58,58,58,58,0,58,0,,,,,,0,,03-02-22,03-02-22,16:08:08,Thu Mar 03 2022 16:08:08 GMT+0100 (közép-európai téli idő),The main experiment item,yes,0,0,C:/Users/rrics/Documents/!!ResearchBMECOGSCI/gnet,0,0,0,prototype1.png,no,mono,no,18,no,black,no,no,768,1174,3.5.6,legacy,xpyriment,osweb,1.3.13,0,enter,enter,enter,,45964,17059,45964,,2,legacy,824,1536,24,864,24,0,0,1536,1646320147924,1024,2,48000,-16,experiment,prototype2.png,0,even,Win32,1263,130305,127292,1263,1263,560871,562378,555870,131822,555870,1263,,,,,,visual_patterns,0,0,0,yes,1366
undefined,undefined,undefined,undefined,white,no,Mozilla,Netscape,"5.0 (Windows NT 10.0; WOW64) AppleWebKit/537.36 (KHTML, like Gecko) Chrome/98.0.4758.102 Safari/537.36",xpyriment,legacy,legacy,0,uniform,0,0,0,0,24,24,24,0,0,59,59,59,59,59,0,59,0,,,,,,0,,03-02-22,03-02-22,16:08:08,Thu Mar 03 2022 16:08:08 GMT+0100 (közép-európai téli idő),The main experiment item,yes,0,0,C:/Users/rrics/Documents/!!ResearchBMECOGSCI/gnet,0,0,0,prototype1.png,no,mono,no,18,no,black,no,no,768,1174,3.5.6,legacy,xpyriment,osweb,1.3.13,0,enter,enter,enter,,45964,17059,45964,,2,legacy,824,1536,24,864,24,0,0,1536,1646320147924,1024,2,48000,-16,experiment,prototype5.png,0,even,Win32,1263,130305,127292,1263,1263,567388,568892,562384,131822,562384,1263,,,,,,visual_patterns,0,0,0,yes,1366
undefined,undefined,undefined,undefined,white,no,Mozilla,Netscape,"5.0 (Windows NT 10.0; WOW64) AppleWebKit/537.36 (KHTML, like Gecko) Chrome/98.0.4758.102 Safari/537.36",xpyriment,legacy,legacy,0,uniform,0,0,0,0,24,24,24,0,0,60,60,60,60,60,0,60,0,,,,,,0,,03-02-22,03-02-22,16:08:08,Thu Mar 03 2022 16:08:08 GMT+0100 (közép-európai téli idő),The main experiment item,yes,0,0,C:/Users/rrics/Documents/!!ResearchBMECOGSCI/gnet,0,0,0,prototype1.png,no,mono,no,18,no,black,no,no,768,1174,3.5.6,legacy,xpyriment,osweb,1.3.13,0,enter,enter,enter,,45964,17059,45964,,2,legacy,824,1536,24,864,24,0,0,1536,1646320147924,1024,2,48000,-16,experiment,p1sarrshacol2.png,0,even,Win32,1263,130305,127292,1263,1263,573903,575406,568904,131822,568904,1263,,,,,,visual_patterns,0,0,0,yes,1366
undefined,undefined,undefined,undefined,white,no,Mozilla,Netscape,"5.0 (Windows NT 10.0; WOW64) AppleWebKit/537.36 (KHTML, like Gecko) Chrome/98.0.4758.102 Safari/537.36",xpyriment,legacy,legacy,0,uniform,0,0,0,0,24,24,24,0,0,61,61,61,61,61,0,61,0,,,,,,0,,03-02-22,03-02-22,16:08:08,Thu Mar 03 2022 16:08:08 GMT+0100 (közép-európai téli idő),The main experiment item,yes,0,0,C:/Users/rrics/Documents/!!ResearchBMECOGSCI/gnet,0,0,0,prototype1.png,no,mono,no,18,no,black,no,no,768,1174,3.5.6,legacy,xpyriment,osweb,1.3.13,0,enter,enter,enter,,45964,17059,45964,,2,legacy,824,1536,24,864,24,0,0,1536,1646320147924,1024,2,48000,-16,experiment,p2sarrcol1.png,0,even,Win32,1263,130305,127292,1263,1263,580415,581920,575417,131822,575417,1263,,,,,,visual_patterns,0,0,0,yes,1366
undefined,undefined,undefined,undefined,white,no,Mozilla,Netscape,"5.0 (Windows NT 10.0; WOW64) AppleWebKit/537.36 (KHTML, like Gecko) Chrome/98.0.4758.102 Safari/537.36",xpyriment,legacy,legacy,0,uniform,0,0,0,0,24,24,24,0,0,62,62,62,62,62,0,62,0,,,,,,0,,03-02-22,03-02-22,16:08:08,Thu Mar 03 2022 16:08:08 GMT+0100 (közép-európai téli idő),The main experiment item,yes,0,0,C:/Users/rrics/Documents/!!ResearchBMECOGSCI/gnet,0,0,0,prototype1.png,no,mono,no,18,no,black,no,no,768,1174,3.5.6,legacy,xpyriment,osweb,1.3.13,0,enter,enter,enter,,45964,17059,45964,,2,legacy,824,1536,24,864,24,0,0,1536,1646320147924,1024,2,48000,-16,experiment,p5sarr2.png,0,even,Win32,1263,130305,127292,1263,1263,586933,588435,581937,131822,581937,1263,,,,,,visual_patterns,0,0,0,yes,1366
undefined,undefined,undefined,undefined,white,no,Mozilla,Netscape,"5.0 (Windows NT 10.0; WOW64) AppleWebKit/537.36 (KHTML, like Gecko) Chrome/98.0.4758.102 Safari/537.36",xpyriment,legacy,legacy,0,uniform,0,0,0,0,24,24,24,0,0,63,63,63,63,63,0,63,0,,,,,,0,,03-02-22,03-02-22,16:08:08,Thu Mar 03 2022 16:08:08 GMT+0100 (közép-európai téli idő),The main experiment item,yes,0,0,C:/Users/rrics/Documents/!!ResearchBMECOGSCI/gnet,0,0,0,prototype1.png,no,mono,no,18,no,black,no,no,768,1174,3.5.6,legacy,xpyriment,osweb,1.3.13,0,enter,enter,enter,,45964,17059,45964,,2,legacy,824,1536,24,864,24,0,0,1536,1646320147924,1024,2,48000,-16,experiment,p10sarr2.png,0,even,Win32,1263,130305,127292,1263,1263,593447,594964,588449,131822,588449,1263,,,,,,visual_patterns,0,0,0,yes,1366
undefined,undefined,undefined,undefined,white,no,Mozilla,Netscape,"5.0 (Windows NT 10.0; WOW64) AppleWebKit/537.36 (KHTML, like Gecko) Chrome/98.0.4758.102 Safari/537.36",xpyriment,legacy,legacy,0,uniform,0,0,0,0,24,24,24,0,0,64,64,64,64,64,0,64,0,,,,,,0,,03-02-22,03-02-22,16:08:08,Thu Mar 03 2022 16:08:08 GMT+0100 (közép-európai téli idő),The main experiment item,yes,0,0,C:/Users/rrics/Documents/!!ResearchBMECOGSCI/gnet,0,0,0,prototype1.png,no,mono,no,18,no,black,no,no,768,1174,3.5.6,legacy,xpyriment,osweb,1.3.13,0,enter,enter,enter,,45964,17059,45964,,2,legacy,824,1536,24,864,24,0,0,1536,1646320147924,1024,2,48000,-16,experiment,prototype1.png,0,even,Win32,1263,130305,127292,1263,1263,599971,601478,594980,131822,594980,1263,,,,,,visual_patterns,0,0,0,yes,1366
undefined,undefined,undefined,undefined,white,no,Mozilla,Netscape,"5.0 (Windows NT 10.0; WOW64) AppleWebKit/537.36 (KHTML, like Gecko) Chrome/98.0.4758.102 Safari/537.36",xpyriment,legacy,legacy,0,uniform,0,0,0,0,24,24,24,0,0,65,65,65,65,65,0,65,0,,,,,,0,,03-02-22,03-02-22,16:08:08,Thu Mar 03 2022 16:08:08 GMT+0100 (közép-európai téli idő),The main experiment item,yes,0,0,C:/Users/rrics/Documents/!!ResearchBMECOGSCI/gnet,0,0,0,prototype1.png,no,mono,no,18,no,black,no,no,768,1174,3.5.6,legacy,xpyriment,osweb,1.3.13,0,enter,enter,enter,,45964,17059,45964,,2,legacy,824,1536,24,864,24,0,0,1536,1646320147924,1024,2,48000,-16,experiment,prototype4.png,0,even,Win32,1263,130305,127292,1263,1263,606486,607991,601490,131822,601490,1263,,,,,,visual_patterns,0,0,0,yes,1366
undefined,undefined,undefined,undefined,white,no,Mozilla,Netscape,"5.0 (Windows NT 10.0; WOW64) AppleWebKit/537.36 (KHTML, like Gecko) Chrome/98.0.4758.102 Safari/537.36",xpyriment,legacy,legacy,0,uniform,0,0,0,0,24,24,24,0,0,66,66,66,66,66,0,66,0,,,,,,0,,03-02-22,03-02-22,16:08:08,Thu Mar 03 2022 16:08:08 GMT+0100 (közép-európai téli idő),The main experiment item,yes,0,0,C:/Users/rrics/Documents/!!ResearchBMECOGSCI/gnet,0,0,0,prototype1.png,no,mono,no,18,no,black,no,no,768,1174,3.5.6,legacy,xpyriment,osweb,1.3.13,0,enter,enter,enter,,45964,17059,45964,,2,legacy,824,1536,24,864,24,0,0,1536,1646320147924,1024,2,48000,-16,experiment,p2sarrshacol2.png,0,even,Win32,1263,130305,127292,1263,1263,613003,614505,608005,131822,608005,1263,,,,,,visual_patterns,0,0,0,yes,1366
undefined,undefined,undefined,undefined,white,no,Mozilla,Netscape,"5.0 (Windows NT 10.0; WOW64) AppleWebKit/537.36 (KHTML, like Gecko) Chrome/98.0.4758.102 Safari/537.36",xpyriment,legacy,legacy,0,uniform,0,0,0,0,24,24,24,0,0,67,67,67,67,67,0,67,0,,,,,,0,,03-02-22,03-02-22,16:08:08,Thu Mar 03 2022 16:08:08 GMT+0100 (közép-európai téli idő),The main experiment item,yes,0,0,C:/Users/rrics/Documents/!!ResearchBMECOGSCI/gnet,0,0,0,prototype1.png,no,mono,no,18,no,black,no,no,768,1174,3.5.6,legacy,xpyriment,osweb,1.3.13,0,enter,enter,enter,,45964,17059,45964,,2,legacy,824,1536,24,864,24,0,0,1536,1646320147924,1024,2,48000,-16,experiment,p1sarr2.png,0,even,Win32,1263,130305,127292,1263,1263,619517,621019,614519,131822,614519,1263,,,,,,visual_patterns,0,0,0,yes,1366
undefined,undefined,undefined,undefined,white,no,Mozilla,Netscape,"5.0 (Windows NT 10.0; WOW64) AppleWebKit/537.36 (KHTML, like Gecko) Chrome/98.0.4758.102 Safari/537.36",xpyriment,legacy,legacy,0,uniform,0,0,0,0,24,24,24,0,0,68,68,68,68,68,0,68,0,,,,,,0,,03-02-22,03-02-22,16:08:08,Thu Mar 03 2022 16:08:08 GMT+0100 (közép-európai téli idő),The main experiment item,yes,0,0,C:/Users/rrics/Documents/!!ResearchBMECOGSCI/gnet,0,0,0,prototype1.png,no,mono,no,18,no,black,no,no,768,1174,3.5.6,legacy,xpyriment,osweb,1.3.13,0,enter,enter,enter,,45964,17059,45964,,2,legacy,824,1536,24,864,24,0,0,1536,1646320147924,1024,2,48000,-16,experiment,p6sarr2.png,0,even,Win32,1263,130305,127292,1263,1263,626028,627533,621027,131822,621027,1263,,,,,,visual_patterns,0,0,0,yes,1366
undefined,undefined,undefined,undefined,white,no,Mozilla,Netscape,"5.0 (Windows NT 10.0; WOW64) AppleWebKit/537.36 (KHTML, like Gecko) Chrome/98.0.4758.102 Safari/537.36",xpyriment,legacy,legacy,0,uniform,0,0,0,0,24,24,24,0,0,69,69,69,69,69,0,69,0,,,,,,0,,03-02-22,03-02-22,16:08:08,Thu Mar 03 2022 16:08:08 GMT+0100 (közép-európai téli idő),The main experiment item,yes,0,0,C:/Users/rrics/Documents/!!ResearchBMECOGSCI/gnet,0,0,0,prototype1.png,no,mono,no,18,no,black,no,no,768,1174,3.5.6,legacy,xpyriment,osweb,1.3.13,0,enter,enter,enter,,45964,17059,45964,,2,legacy,824,1536,24,864,24,0,0,1536,1646320147924,1024,2,48000,-16,experiment,prototype2.png,0,even,Win32,1263,130305,127292,1263,1263,632541,634046,627540,131822,627540,1263,,,,,,visual_patterns,0,0,0,yes,1366
undefined,undefined,undefined,undefined,white,no,Mozilla,Netscape,"5.0 (Windows NT 10.0; WOW64) AppleWebKit/537.36 (KHTML, like Gecko) Chrome/98.0.4758.102 Safari/537.36",xpyriment,legacy,legacy,0,uniform,0,0,0,0,24,24,24,0,0,70,70,70,70,70,0,70,0,,,,,,0,,03-02-22,03-02-22,16:08:08,Thu Mar 03 2022 16:08:08 GMT+0100 (közép-európai téli idő),The main experiment item,yes,0,0,C:/Users/rrics/Documents/!!ResearchBMECOGSCI/gnet,0,0,0,prototype1.png,no,mono,no,18,no,black,no,no,768,1174,3.5.6,legacy,xpyriment,osweb,1.3.13,0,enter,enter,enter,,45964,17059,45964,,2,legacy,824,1536,24,864,24,0,0,1536,1646320147924,1024,2,48000,-16,experiment,p1sarrshacol1.png,0,even,Win32,1263,130305,127292,1263,1263,639051,640560,634054,131822,634054,1263,,,,,,visual_patterns,0,0,0,yes,1366
undefined,undefined,undefined,undefined,white,no,Mozilla,Netscape,"5.0 (Windows NT 10.0; WOW64) AppleWebKit/537.36 (KHTML, like Gecko) Chrome/98.0.4758.102 Safari/537.36",xpyriment,legacy,legacy,0,uniform,0,0,0,0,24,24,24,0,0,71,71,71,71,71,0,71,0,,,,,,0,,03-02-22,03-02-22,16:08:08,Thu Mar 03 2022 16:08:08 GMT+0100 (közép-európai téli idő),The main experiment item,yes,0,0,C:/Users/rrics/Documents/!!ResearchBMECOGSCI/gnet,0,0,0,prototype1.png,no,mono,no,18,no,black,no,no,768,1174,3.5.6,legacy,xpyriment,osweb,1.3.13,0,enter,enter,enter,,45964,17059,45964,,2,legacy,824,1536,24,864,24,0,0,1536,1646320147924,1024,2,48000,-16,experiment,prototype1.png,0,even,Win32,1263,130305,127292,1263,1263,645567,647074,640568,131822,640568,1263,,,,,,visual_patterns,0,0,0,yes,1366
undefined,undefined,undefined,undefined,white,no,Mozilla,Netscape,"5.0 (Windows NT 10.0; WOW64) AppleWebKit/537.36 (KHTML, like Gecko) Chrome/98.0.4758.102 Safari/537.36",xpyriment,legacy,legacy,0,uniform,0,0,0,0,24,24,24,0,0,72,72,72,72,72,0,72,0,,,,,,0,,03-02-22,03-02-22,16:08:08,Thu Mar 03 2022 16:08:08 GMT+0100 (közép-európai téli idő),The main experiment item,yes,0,0,C:/Users/rrics/Documents/!!ResearchBMECOGSCI/gnet,0,0,0,prototype1.png,no,mono,no,18,no,black,no,no,768,1174,3.5.6,legacy,xpyriment,osweb,1.3.13,0,enter,enter,enter,,45964,17059,45964,,2,legacy,824,1536,24,864,24,0,0,1536,1646320147924,1024,2,48000,-16,experiment,prototype5.png,0,even,Win32,1263,130305,127292,1263,1263,652093,653604,647089,131822,647089,1263,,,,,,visual_patterns,0,0,0,yes,1366
undefined,undefined,undefined,undefined,white,no,Mozilla,Netscape,"5.0 (Windows NT 10.0; WOW64) AppleWebKit/537.36 (KHTML, like Gecko) Chrome/98.0.4758.102 Safari/537.36",xpyriment,legacy,legacy,0,uniform,0,0,0,0,24,24,24,0,0,73,73,73,73,73,0,73,0,,,,,,0,,03-02-22,03-02-22,16:08:08,Thu Mar 03 2022 16:08:08 GMT+0100 (közép-európai téli idő),The main experiment item,yes,0,0,C:/Users/rrics/Documents/!!ResearchBMECOGSCI/gnet,0,0,0,prototype1.png,no,mono,no,18,no,black,no,no,768,1174,3.5.6,legacy,xpyriment,osweb,1.3.13,0,enter,enter,enter,,45964,17059,45964,,2,legacy,824,1536,24,864,24,0,0,1536,1646320147924,1024,2,48000,-16,experiment,prototype3.png,0,even,Win32,1263,130305,127292,1263,1263,658614,660118,653613,131822,653613,1263,,,,,,visual_patterns,0,0,0,yes,1366
undefined,undefined,undefined,undefined,white,no,Mozilla,Netscape,"5.0 (Windows NT 10.0; WOW64) AppleWebKit/537.36 (KHTML, like Gecko) Chrome/98.0.4758.102 Safari/537.36",xpyriment,legacy,legacy,0,uniform,0,0,0,0,24,24,24,0,0,74,74,74,74,74,0,74,0,,,,,,0,,03-02-22,03-02-22,16:08:08,Thu Mar 03 2022 16:08:08 GMT+0100 (közép-európai téli idő),The main experiment item,yes,0,0,C:/Users/rrics/Documents/!!ResearchBMECOGSCI/gnet,0,0,0,prototype1.png,no,mono,no,18,no,black,no,no,768,1174,3.5.6,legacy,xpyriment,osweb,1.3.13,0,enter,enter,enter,,45964,17059,45964,,2,legacy,824,1536,24,864,24,0,0,1536,1646320147924,1024,2,48000,-16,experiment,prototype2.png,0,even,Win32,1263,130305,127292,1263,1263,665124,666632,660124,131822,660124,1263,,,,,,visual_patterns,0,0,0,yes,1366
undefined,undefined,undefined,undefined,white,no,Mozilla,Netscape,"5.0 (Windows NT 10.0; WOW64) AppleWebKit/537.36 (KHTML, like Gecko) Chrome/98.0.4758.102 Safari/537.36",xpyriment,legacy,legacy,0,uniform,0,0,0,0,24,24,24,0,0,74,74,74,74,74,0,74,0,0,0,0,0,0,0,0,03-02-22,03-02-22,16:08:08,Thu Mar 03 2022 16:08:08 GMT+0100 (közép-európai téli idő),The main experiment item,yes,0,0,C:/Users/rrics/Documents/!!ResearchBMECOGSCI/gnet,0,0,0,prototype1.png,no,mono,no,18,no,black,no,no,768,1174,3.5.6,legacy,xpyriment,osweb,1.3.13,0,enter,enter,enter,enter,53404,17059,45964,53404,2,legacy,824,1536,24,864,24,0,0,1536,1646320147924,1024,2,48000,-16,experiment,p5sarrsha3.png,0,even,Win32,1263,130305,127292,1263,1263,665124,666632,660124,131822,660124,1263,723146,724656,720146,666636,720146,visual_patterns,0,0,0,yes,1366
undefined,undefined,undefined,undefined,white,no,Mozilla,Netscape,"5.0 (Windows NT 10.0; WOW64) AppleWebKit/537.36 (KHTML, like Gecko) Chrome/98.0.4758.102 Safari/537.36",xpyriment,legacy,legacy,0,uniform,0,0,0,0,24,24,24,0,0,74,74,74,74,74,0,74,0,1,1,1,1,1,0,1,03-02-22,03-02-22,16:08:08,Thu Mar 03 2022 16:08:08 GMT+0100 (közép-európai téli idő),The main experiment item,yes,0,0,C:/Users/rrics/Documents/!!ResearchBMECOGSCI/gnet,0,0,0,prototype1.png,no,mono,no,18,no,black,no,no,768,1174,3.5.6,legacy,xpyriment,osweb,1.3.13,0,enter,enter,enter,enter,53404,17059,45964,53404,2,legacy,824,1536,24,864,24,0,0,1536,1646320147924,1024,2,48000,-16,experiment,p2sarrshacol1.png,0,even,Win32,1263,130305,127292,1263,1263,665124,666632,660124,131822,660124,1263,727667,729171,724670,666636,724670,visual_patterns,0,0,0,yes,1366
undefined,undefined,undefined,undefined,white,no,Mozilla,Netscape,"5.0 (Windows NT 10.0; WOW64) AppleWebKit/537.36 (KHTML, like Gecko) Chrome/98.0.4758.102 Safari/537.36",xpyriment,legacy,legacy,0,uniform,0,0,0,0,24,24,24,0,0,74,74,74,74,74,0,74,0,2,2,2,2,2,0,2,03-02-22,03-02-22,16:08:08,Thu Mar 03 2022 16:08:08 GMT+0100 (közép-európai téli idő),The main experiment item,yes,0,0,C:/Users/rrics/Documents/!!ResearchBMECOGSCI/gnet,0,0,0,prototype1.png,no,mono,no,18,no,black,no,no,768,1174,3.5.6,legacy,xpyriment,osweb,1.3.13,0,enter,enter,enter,enter,53404,17059,45964,53404,2,legacy,824,1536,24,864,24,0,0,1536,1646320147924,1024,2,48000,-16,experiment,p4sarr4.png,0,even,Win32,1263,130305,127292,1263,1263,665124,666632,660124,131822,660124,1263,732182,733685,729181,666636,729181,visual_patterns,0,0,0,yes,1366
undefined,undefined,undefined,undefined,white,no,Mozilla,Netscape,"5.0 (Windows NT 10.0; WOW64) AppleWebKit/537.36 (KHTML, like Gecko) Chrome/98.0.4758.102 Safari/537.36",xpyriment,legacy,legacy,0,uniform,0,0,0,0,24,24,24,0,0,74,74,74,74,74,0,74,0,3,3,3,3,3,0,3,03-02-22,03-02-22,16:08:08,Thu Mar 03 2022 16:08:08 GMT+0100 (közép-európai téli idő),The main experiment item,yes,0,0,C:/Users/rrics/Documents/!!ResearchBMECOGSCI/gnet,0,0,0,prototype1.png,no,mono,no,18,no,black,no,no,768,1174,3.5.6,legacy,xpyriment,osweb,1.3.13,0,enter,enter,enter,enter,53404,17059,45964,53404,2,legacy,824,1536,24,864,24,0,0,1536,1646320147924,1024,2,48000,-16,experiment,p5sarrsha2.png,0,even,Win32,1263,130305,127292,1263,1263,665124,666632,660124,131822,660124,1263,736696,738200,733694,666636,733694,visual_patterns,0,0,0,yes,1366
undefined,undefined,undefined,undefined,white,no,Mozilla,Netscape,"5.0 (Windows NT 10.0; WOW64) AppleWebKit/537.36 (KHTML, like Gecko) Chrome/98.0.4758.102 Safari/537.36",xpyriment,legacy,legacy,0,uniform,0,0,0,0,24,24,24,0,0,74,74,74,74,74,0,74,0,4,4,4,4,4,0,4,03-02-22,03-02-22,16:08:08,Thu Mar 03 2022 16:08:08 GMT+0100 (közép-európai téli idő),The main experiment item,yes,0,0,C:/Users/rrics/Documents/!!ResearchBMECOGSCI/gnet,0,0,0,prototype1.png,no,mono,no,18,no,black,no,no,768,1174,3.5.6,legacy,xpyriment,osweb,1.3.13,0,enter,enter,enter,enter,53404,17059,45964,53404,2,legacy,824,1536,24,864,24,0,0,1536,1646320147924,1024,2,48000,-16,experiment,p7sarr2.png,0,even,Win32,1263,130305,127292,1263,1263,665124,666632,660124,131822,660124,1263,741209,742715,738209,666636,738209,visual_patterns,0,0,0,yes,1366
undefined,undefined,undefined,undefined,white,no,Mozilla,Netscape,"5.0 (Windows NT 10.0; WOW64) AppleWebKit/537.36 (KHTML, like Gecko) Chrome/98.0.4758.102 Safari/537.36",xpyriment,legacy,legacy,0,uniform,0,0,0,0,24,24,24,0,0,74,74,74,74,74,0,74,0,5,5,5,5,5,0,5,03-02-22,03-02-22,16:08:08,Thu Mar 03 2022 16:08:08 GMT+0100 (közép-európai téli idő),The main experiment item,yes,0,0,C:/Users/rrics/Documents/!!ResearchBMECOGSCI/gnet,0,0,0,prototype1.png,no,mono,no,18,no,black,no,no,768,1174,3.5.6,legacy,xpyriment,osweb,1.3.13,0,enter,enter,enter,enter,53404,17059,45964,53404,2,legacy,824,1536,24,864,24,0,0,1536,1646320147924,1024,2,48000,-16,experiment,p1sarrsha4.png,0,even,Win32,1263,130305,127292,1263,1263,665124,666632,660124,131822,660124,1263,745727,747229,742726,666636,742726,visual_patterns,0,0,0,yes,1366
undefined,undefined,undefined,undefined,white,no,Mozilla,Netscape,"5.0 (Windows NT 10.0; WOW64) AppleWebKit/537.36 (KHTML, like Gecko) Chrome/98.0.4758.102 Safari/537.36",xpyriment,legacy,legacy,0,uniform,0,0,0,0,24,24,24,0,0,74,74,74,74,74,0,74,0,6,6,6,6,6,0,6,03-02-22,03-02-22,16:08:08,Thu Mar 03 2022 16:08:08 GMT+0100 (közép-európai téli idő),The main experiment item,yes,0,0,C:/Users/rrics/Documents/!!ResearchBMECOGSCI/gnet,0,0,0,prototype1.png,no,mono,no,18,no,black,no,no,768,1174,3.5.6,legacy,xpyriment,osweb,1.3.13,0,enter,enter,enter,enter,53404,17059,45964,53404,2,legacy,824,1536,24,864,24,0,0,1536,1646320147924,1024,2,48000,-16,experiment,p3sarrcol2.png,0,even,Win32,1263,130305,127292,1263,1263,665124,666632,660124,131822,660124,1263,750238,751744,747238,666636,747238,visual_patterns,0,0,0,yes,1366
undefined,undefined,undefined,undefined,white,no,Mozilla,Netscape,"5.0 (Windows NT 10.0; WOW64) AppleWebKit/537.36 (KHTML, like Gecko) Chrome/98.0.4758.102 Safari/537.36",xpyriment,legacy,legacy,0,uniform,0,0,0,0,24,24,24,0,0,74,74,74,74,74,0,74,0,7,7,7,7,7,0,7,03-02-22,03-02-22,16:08:08,Thu Mar 03 2022 16:08:08 GMT+0100 (közép-európai téli idő),The main experiment item,yes,0,0,C:/Users/rrics/Documents/!!ResearchBMECOGSCI/gnet,0,0,0,prototype1.png,no,mono,no,18,no,black,no,no,768,1174,3.5.6,legacy,xpyriment,osweb,1.3.13,0,enter,enter,enter,enter,53404,17059,45964,53404,2,legacy,824,1536,24,864,24,0,0,1536,1646320147924,1024,2,48000,-16,experiment,p3sarrcol3.png,0,even,Win32,1263,130305,127292,1263,1263,665124,666632,660124,131822,660124,1263,754751,756259,751752,666636,751752,visual_patterns,0,0,0,yes,1366
undefined,undefined,undefined,undefined,white,no,Mozilla,Netscape,"5.0 (Windows NT 10.0; WOW64) AppleWebKit/537.36 (KHTML, like Gecko) Chrome/98.0.4758.102 Safari/537.36",xpyriment,legacy,legacy,0,uniform,0,0,0,0,24,24,24,0,0,74,74,74,74,74,0,74,0,8,8,8,8,8,0,8,03-02-22,03-02-22,16:08:08,Thu Mar 03 2022 16:08:08 GMT+0100 (közép-európai téli idő),The main experiment item,yes,0,0,C:/Users/rrics/Documents/!!ResearchBMECOGSCI/gnet,0,0,0,prototype1.png,no,mono,no,18,no,black,no,no,768,1174,3.5.6,legacy,xpyriment,osweb,1.3.13,0,enter,enter,enter,enter,53404,17059,45964,53404,2,legacy,824,1536,24,864,24,0,0,1536,1646320147924,1024,2,48000,-16,experiment,p1sarrsha1.png,0,even,Win32,1263,130305,127292,1263,1263,665124,666632,660124,131822,660124,1263,759269,760773,756267,666636,756267,visual_patterns,0,0,0,yes,1366
undefined,undefined,undefined,undefined,white,no,Mozilla,Netscape,"5.0 (Windows NT 10.0; WOW64) AppleWebKit/537.36 (KHTML, like Gecko) Chrome/98.0.4758.102 Safari/537.36",xpyriment,legacy,legacy,0,uniform,0,0,0,0,24,24,24,0,0,74,74,74,74,74,0,74,0,9,9,9,9,9,0,9,03-02-22,03-02-22,16:08:08,Thu Mar 03 2022 16:08:08 GMT+0100 (közép-európai téli idő),The main experiment item,yes,0,0,C:/Users/rrics/Documents/!!ResearchBMECOGSCI/gnet,0,0,0,prototype1.png,no,mono,no,18,no,black,no,no,768,1174,3.5.6,legacy,xpyriment,osweb,1.3.13,0,enter,enter,enter,enter,53404,17059,45964,53404,2,legacy,824,1536,24,864,24,0,0,1536,1646320147924,1024,2,48000,-16,experiment,p4sarr1.png,0,even,Win32,1263,130305,127292,1263,1263,665124,666632,660124,131822,660124,1263,763784,765288,760781,666636,760781,visual_patterns,0,0,0,yes,1366
undefined,undefined,undefined,undefined,white,no,Mozilla,Netscape,"5.0 (Windows NT 10.0; WOW64) AppleWebKit/537.36 (KHTML, like Gecko) Chrome/98.0.4758.102 Safari/537.36",xpyriment,legacy,legacy,0,uniform,0,0,0,0,24,24,24,0,0,74,74,74,74,74,0,74,0,10,10,10,10,10,0,10,03-02-22,03-02-22,16:08:08,Thu Mar 03 2022 16:08:08 GMT+0100 (közép-európai téli idő),The main experiment item,yes,0,0,C:/Users/rrics/Documents/!!ResearchBMECOGSCI/gnet,0,0,0,prototype1.png,no,mono,no,18,no,black,no,no,768,1174,3.5.6,legacy,xpyriment,osweb,1.3.13,0,enter,enter,enter,enter,53404,17059,45964,53404,2,legacy,824,1536,24,864,24,0,0,1536,1646320147924,1024,2,48000,-16,experiment,p9sarr2.png,0,even,Win32,1263,130305,127292,1263,1263,665124,666632,660124,131822,660124,1263,768296,769802,765298,666636,765298,visual_patterns,0,0,0,yes,1366
undefined,undefined,undefined,undefined,white,no,Mozilla,Netscape,"5.0 (Windows NT 10.0; WOW64) AppleWebKit/537.36 (KHTML, like Gecko) Chrome/98.0.4758.102 Safari/537.36",xpyriment,legacy,legacy,0,uniform,0,0,0,0,24,24,24,0,0,74,74,74,74,74,0,74,0,11,11,11,11,11,0,11,03-02-22,03-02-22,16:08:08,Thu Mar 03 2022 16:08:08 GMT+0100 (közép-európai téli idő),The main experiment item,yes,0,0,C:/Users/rrics/Documents/!!ResearchBMECOGSCI/gnet,0,0,0,prototype1.png,no,mono,no,18,no,black,no,no,768,1174,3.5.6,legacy,xpyriment,osweb,1.3.13,0,enter,enter,enter,enter,53404,17059,45964,53404,2,legacy,824,1536,24,864,24,0,0,1536,1646320147924,1024,2,48000,-16,experiment,p1sarr2.png,0,even,Win32,1263,130305,127292,1263,1263,665124,666632,660124,131822,660124,1263,772811,774317,769809,666636,769809,visual_patterns,0,0,0,yes,1366
undefined,undefined,undefined,undefined,white,no,Mozilla,Netscape,"5.0 (Windows NT 10.0; WOW64) AppleWebKit/537.36 (KHTML, like Gecko) Chrome/98.0.4758.102 Safari/537.36",xpyriment,legacy,legacy,0,uniform,0,0,0,0,24,24,24,0,0,74,74,74,74,74,0,74,0,12,12,12,12,12,0,12,03-02-22,03-02-22,16:08:08,Thu Mar 03 2022 16:08:08 GMT+0100 (közép-európai téli idő),The main experiment item,yes,0,0,C:/Users/rrics/Documents/!!ResearchBMECOGSCI/gnet,0,0,0,prototype1.png,no,mono,no,18,no,black,no,no,768,1174,3.5.6,legacy,xpyriment,osweb,1.3.13,0,enter,enter,enter,enter,53404,17059,45964,53404,2,legacy,824,1536,24,864,24,0,0,1536,1646320147924,1024,2,48000,-16,experiment,p3sarrcol4.png,0,even,Win32,1263,130305,127292,1263,1263,665124,666632,660124,131822,660124,1263,777329,778832,774327,666636,774327,visual_patterns,0,0,0,yes,1366
undefined,undefined,undefined,undefined,white,no,Mozilla,Netscape,"5.0 (Windows NT 10.0; WOW64) AppleWebKit/537.36 (KHTML, like Gecko) Chrome/98.0.4758.102 Safari/537.36",xpyriment,legacy,legacy,0,uniform,0,0,0,0,24,24,24,0,0,74,74,74,74,74,0,74,0,13,13,13,13,13,0,13,03-02-22,03-02-22,16:08:08,Thu Mar 03 2022 16:08:08 GMT+0100 (közép-európai téli idő),The main experiment item,yes,0,0,C:/Users/rrics/Documents/!!ResearchBMECOGSCI/gnet,0,0,0,prototype1.png,no,mono,no,18,no,black,no,no,768,1174,3.5.6,legacy,xpyriment,osweb,1.3.13,0,enter,enter,enter,enter,53404,17059,45964,53404,2,legacy,824,1536,24,864,24,0,0,1536,1646320147924,1024,2,48000,-16,experiment,p2sarrshacol2.png,0,even,Win32,1263,130305,127292,1263,1263,665124,666632,660124,131822,660124,1263,781843,783346,778842,666636,778841,visual_patterns,0,0,0,yes,1366
undefined,undefined,undefined,undefined,white,no,Mozilla,Netscape,"5.0 (Windows NT 10.0; WOW64) AppleWebKit/537.36 (KHTML, like Gecko) Chrome/98.0.4758.102 Safari/537.36",xpyriment,legacy,legacy,0,uniform,0,0,0,0,24,24,24,0,0,74,74,74,74,74,0,74,0,14,14,14,14,14,0,14,03-02-22,03-02-22,16:08:08,Thu Mar 03 2022 16:08:08 GMT+0100 (közép-európai téli idő),The main experiment item,yes,0,0,C:/Users/rrics/Documents/!!ResearchBMECOGSCI/gnet,0,0,0,prototype1.png,no,mono,no,18,no,black,no,no,768,1174,3.5.6,legacy,xpyriment,osweb,1.3.13,0,enter,enter,enter,enter,53404,17059,45964,53404,2,legacy,824,1536,24,864,24,0,0,1536,1646320147924,1024,2,48000,-16,experiment,p6sarr1.png,0,even,Win32,1263,130305,127292,1263,1263,665124,666632,660124,131822,660124,1263,786355,787861,783358,666636,783358,visual_patterns,0,0,0,yes,1366
undefined,undefined,undefined,undefined,white,no,Mozilla,Netscape,"5.0 (Windows NT 10.0; WOW64) AppleWebKit/537.36 (KHTML, like Gecko) Chrome/98.0.4758.102 Safari/537.36",xpyriment,legacy,legacy,0,uniform,0,0,0,0,24,24,24,0,0,74,74,74,74,74,0,74,0,15,15,15,15,15,0,15,03-02-22,03-02-22,16:08:08,Thu Mar 03 2022 16:08:08 GMT+0100 (közép-európai téli idő),The main experiment item,yes,0,0,C:/Users/rrics/Documents/!!ResearchBMECOGSCI/gnet,0,0,0,prototype1.png,no,mono,no,18,no,black,no,no,768,1174,3.5.6,legacy,xpyriment,osweb,1.3.13,0,enter,enter,enter,enter,53404,17059,45964,53404,2,legacy,824,1536,24,864,24,0,0,1536,1646320147924,1024,2,48000,-16,experiment,p4sarrshacol3.png,0,even,Win32,1263,130305,127292,1263,1263,665124,666632,660124,131822,660124,1263,790871,792376,787870,666636,787870,visual_patterns,0,0,0,yes,1366
undefined,undefined,undefined,undefined,white,no,Mozilla,Netscape,"5.0 (Windows NT 10.0; WOW64) AppleWebKit/537.36 (KHTML, like Gecko) Chrome/98.0.4758.102 Safari/537.36",xpyriment,legacy,legacy,0,uniform,0,0,0,0,24,24,24,0,0,74,74,74,74,74,0,74,0,16,16,16,16,16,0,16,03-02-22,03-02-22,16:08:08,Thu Mar 03 2022 16:08:08 GMT+0100 (közép-európai téli idő),The main experiment item,yes,0,0,C:/Users/rrics/Documents/!!ResearchBMECOGSCI/gnet,0,0,0,prototype1.png,no,mono,no,18,no,black,no,no,768,1174,3.5.6,legacy,xpyriment,osweb,1.3.13,0,enter,enter,enter,enter,53404,17059,45964,53404,2,legacy,824,1536,24,864,24,0,0,1536,1646320147924,1024,2,48000,-16,experiment,p4sarrshacol4.png,0,even,Win32,1263,130305,127292,1263,1263,665124,666632,660124,131822,660124,1263,795385,796891,792383,666636,792383,visual_patterns,0,0,0,yes,1366
undefined,undefined,undefined,undefined,white,no,Mozilla,Netscape,"5.0 (Windows NT 10.0; WOW64) AppleWebKit/537.36 (KHTML, like Gecko) Chrome/98.0.4758.102 Safari/537.36",xpyriment,legacy,legacy,0,uniform,0,0,0,0,24,24,24,0,0,74,74,74,74,74,0,74,0,17,17,17,17,17,0,17,03-02-22,03-02-22,16:08:08,Thu Mar 03 2022 16:08:08 GMT+0100 (közép-európai téli idő),The main experiment item,yes,0,0,C:/Users/rrics/Documents/!!ResearchBMECOGSCI/gnet,0,0,0,prototype1.png,no,mono,no,18,no,black,no,no,768,1174,3.5.6,legacy,xpyriment,osweb,1.3.13,0,enter,enter,enter,enter,53404,17059,45964,53404,2,legacy,824,1536,24,864,24,0,0,1536,1646320147924,1024,2,48000,-16,experiment,p2sarrcol1.png,0,even,Win32,1263,130305,127292,1263,1263,665124,666632,660124,131822,660124,1263,799902,801405,796900,666636,796900,visual_patterns,0,0,0,yes,1366
undefined,undefined,undefined,undefined,white,no,Mozilla,Netscape,"5.0 (Windows NT 10.0; WOW64) AppleWebKit/537.36 (KHTML, like Gecko) Chrome/98.0.4758.102 Safari/537.36",xpyriment,legacy,legacy,0,uniform,0,0,0,0,24,24,24,0,0,74,74,74,74,74,0,74,0,18,18,18,18,18,0,18,03-02-22,03-02-22,16:08:08,Thu Mar 03 2022 16:08:08 GMT+0100 (közép-európai téli idő),The main experiment item,yes,0,0,C:/Users/rrics/Documents/!!ResearchBMECOGSCI/gnet,0,0,0,prototype1.png,no,mono,no,18,no,black,no,no,768,1174,3.5.6,legacy,xpyriment,osweb,1.3.13,0,enter,enter,enter,enter,53404,17059,45964,53404,2,legacy,824,1536,24,864,24,0,0,1536,1646320147924,1024,2,48000,-16,experiment,p1sarr4.png,0,even,Win32,1263,130305,127292,1263,1263,665124,666632,660124,131822,660124,1263,804416,805920,801414,666636,801414,visual_patterns,0,0,0,yes,1366
undefined,undefined,undefined,undefined,white,no,Mozilla,Netscape,"5.0 (Windows NT 10.0; WOW64) AppleWebKit/537.36 (KHTML, like Gecko) Chrome/98.0.4758.102 Safari/537.36",xpyriment,legacy,legacy,0,uniform,0,0,0,0,24,24,24,0,0,74,74,74,74,74,0,74,0,19,19,19,19,19,0,19,03-02-22,03-02-22,16:08:08,Thu Mar 03 2022 16:08:08 GMT+0100 (közép-európai téli idő),The main experiment item,yes,0,0,C:/Users/rrics/Documents/!!ResearchBMECOGSCI/gnet,0,0,0,prototype1.png,no,mono,no,18,no,black,no,no,768,1174,3.5.6,legacy,xpyriment,osweb,1.3.13,0,enter,enter,enter,enter,53404,17059,45964,53404,2,legacy,824,1536,24,864,24,0,0,1536,1646320147924,1024,2,48000,-16,experiment,p10sarr1.png,0,even,Win32,1263,130305,127292,1263,1263,665124,666632,660124,131822,660124,1263,808932,810435,805932,666636,805932,visual_patterns,0,0,0,yes,1366
undefined,undefined,undefined,undefined,white,no,Mozilla,Netscape,"5.0 (Windows NT 10.0; WOW64) AppleWebKit/537.36 (KHTML, like Gecko) Chrome/98.0.4758.102 Safari/537.36",xpyriment,legacy,legacy,0,uniform,0,0,0,0,24,24,24,0,0,74,74,74,74,74,0,74,0,20,20,20,20,20,0,20,03-02-22,03-02-22,16:08:08,Thu Mar 03 2022 16:08:08 GMT+0100 (közép-európai téli idő),The main experiment item,yes,0,0,C:/Users/rrics/Documents/!!ResearchBMECOGSCI/gnet,0,0,0,prototype1.png,no,mono,no,18,no,black,no,no,768,1174,3.5.6,legacy,xpyriment,osweb,1.3.13,0,enter,enter,enter,enter,53404,17059,45964,53404,2,legacy,824,1536,24,864,24,0,0,1536,1646320147924,1024,2,48000,-16,experiment,p8sarr3.png,0,even,Win32,1263,130305,127292,1263,1263,665124,666632,660124,131822,660124,1263,813449,814966,810446,666636,810446,visual_patterns,0,0,0,yes,1366
undefined,undefined,undefined,undefined,white,no,Mozilla,Netscape,"5.0 (Windows NT 10.0; WOW64) AppleWebKit/537.36 (KHTML, like Gecko) Chrome/98.0.4758.102 Safari/537.36",xpyriment,legacy,legacy,0,uniform,0,0,0,0,24,24,24,0,0,74,74,74,74,74,0,74,0,21,21,21,21,21,0,21,03-02-22,03-02-22,16:08:08,Thu Mar 03 2022 16:08:08 GMT+0100 (közép-európai téli idő),The main experiment item,yes,0,0,C:/Users/rrics/Documents/!!ResearchBMECOGSCI/gnet,0,0,0,prototype1.png,no,mono,no,18,no,black,no,no,768,1174,3.5.6,legacy,xpyriment,osweb,1.3.13,0,enter,enter,enter,enter,53404,17059,45964,53404,2,legacy,824,1536,24,864,24,0,0,1536,1646320147924,1024,2,48000,-16,experiment,p9sarr4.png,0,even,Win32,1263,130305,127292,1263,1263,665124,666632,660124,131822,660124,1263,817974,819480,814975,666636,814975,visual_patterns,0,0,0,yes,1366
undefined,undefined,undefined,undefined,white,no,Mozilla,Netscape,"5.0 (Windows NT 10.0; WOW64) AppleWebKit/537.36 (KHTML, like Gecko) Chrome/98.0.4758.102 Safari/537.36",xpyriment,legacy,legacy,0,uniform,0,0,0,0,24,24,24,0,0,74,74,74,74,74,0,74,0,22,22,22,22,22,0,22,03-02-22,03-02-22,16:08:08,Thu Mar 03 2022 16:08:08 GMT+0100 (közép-európai téli idő),The main experiment item,yes,0,0,C:/Users/rrics/Documents/!!ResearchBMECOGSCI/gnet,0,0,0,prototype1.png,no,mono,no,18,no,black,no,no,768,1174,3.5.6,legacy,xpyriment,osweb,1.3.13,0,enter,enter,enter,enter,53404,17059,45964,53404,2,legacy,824,1536,24,864,24,0,0,1536,1646320147924,1024,2,48000,-16,experiment,p5sarrcol2.png,0,even,Win32,1263,130305,127292,1263,1263,665124,666632,660124,131822,660124,1263,822496,824012,819497,666636,819497,visual_patterns,0,0,0,yes,1366
undefined,undefined,undefined,undefined,white,no,Mozilla,Netscape,"5.0 (Windows NT 10.0; WOW64) AppleWebKit/537.36 (KHTML, like Gecko) Chrome/98.0.4758.102 Safari/537.36",xpyriment,legacy,legacy,0,uniform,0,0,0,0,24,24,24,0,0,74,74,74,74,74,0,74,0,23,23,23,23,23,0,23,03-02-22,03-02-22,16:08:08,Thu Mar 03 2022 16:08:08 GMT+0100 (közép-európai téli idő),The main experiment item,yes,0,0,C:/Users/rrics/Documents/!!ResearchBMECOGSCI/gnet,0,0,0,prototype1.png,no,mono,no,18,no,black,no,no,768,1174,3.5.6,legacy,xpyriment,osweb,1.3.13,0,enter,enter,enter,enter,53404,17059,45964,53404,2,legacy,824,1536,24,864,24,0,0,1536,1646320147924,1024,2,48000,-16,experiment,p7sarr4.png,0,even,Win32,1263,130305,127292,1263,1263,665124,666632,660124,131822,660124,1263,827020,828527,824020,666636,824020,visual_patterns,0,0,0,yes,1366
undefined,undefined,undefined,undefined,white,no,Mozilla,Netscape,"5.0 (Windows NT 10.0; WOW64) AppleWebKit/537.36 (KHTML, like Gecko) Chrome/98.0.4758.102 Safari/537.36",xpyriment,legacy,legacy,0,uniform,0,0,0,0,24,24,24,0,0,74,74,74,74,74,0,74,0,24,24,24,24,24,0,24,03-02-22,03-02-22,16:08:08,Thu Mar 03 2022 16:08:08 GMT+0100 (közép-európai téli idő),The main experiment item,yes,0,0,C:/Users/rrics/Documents/!!ResearchBMECOGSCI/gnet,0,0,0,prototype1.png,no,mono,no,18,no,black,no,no,768,1174,3.5.6,legacy,xpyriment,osweb,1.3.13,0,enter,enter,enter,enter,53404,17059,45964,53404,2,legacy,824,1536,24,864,24,0,0,1536,1646320147924,1024,2,48000,-16,experiment,p3sarrsha3.png,0,even,Win32,1263,130305,127292,1263,1263,665124,666632,660124,131822,660124,1263,831538,833041,828536,666636,828536,visual_patterns,0,0,0,yes,1366
undefined,undefined,undefined,undefined,white,no,Mozilla,Netscape,"5.0 (Windows NT 10.0; WOW64) AppleWebKit/537.36 (KHTML, like Gecko) Chrome/98.0.4758.102 Safari/537.36",xpyriment,legacy,legacy,0,uniform,0,0,0,0,24,24,24,0,0,74,74,74,74,74,0,74,0,25,25,25,25,25,0,25,03-02-22,03-02-22,16:08:08,Thu Mar 03 2022 16:08:08 GMT+0100 (közép-európai téli idő),The main experiment item,yes,0,0,C:/Users/rrics/Documents/!!ResearchBMECOGSCI/gnet,0,0,0,prototype1.png,no,mono,no,18,no,black,no,no,768,1174,3.5.6,legacy,xpyriment,osweb,1.3.13,0,enter,enter,enter,enter,53404,17059,45964,53404,2,legacy,824,1536,24,864,24,0,0,1536,1646320147924,1024,2,48000,-16,experiment,p8sarr4.png,0,even,Win32,1263,130305,127292,1263,1263,665124,666632,660124,131822,660124,1263,836052,837556,833052,666636,833052,visual_patterns,0,0,0,yes,1366
undefined,undefined,undefined,undefined,white,no,Mozilla,Netscape,"5.0 (Windows NT 10.0; WOW64) AppleWebKit/537.36 (KHTML, like Gecko) Chrome/98.0.4758.102 Safari/537.36",xpyriment,legacy,legacy,0,uniform,0,0,0,0,24,24,24,0,0,74,74,74,74,74,0,74,0,26,26,26,26,26,0,26,03-02-22,03-02-22,16:08:08,Thu Mar 03 2022 16:08:08 GMT+0100 (közép-európai téli idő),The main experiment item,yes,0,0,C:/Users/rrics/Documents/!!ResearchBMECOGSCI/gnet,0,0,0,prototype1.png,no,mono,no,18,no,black,no,no,768,1174,3.5.6,legacy,xpyriment,osweb,1.3.13,0,enter,enter,enter,enter,53404,17059,45964,53404,2,legacy,824,1536,24,864,24,0,0,1536,1646320147924,1024,2,48000,-16,experiment,p2sarrshacol4.png,0,even,Win32,1263,130305,127292,1263,1263,665124,666632,660124,131822,660124,1263,840564,842071,837565,666636,837565,visual_patterns,0,0,0,yes,1366
undefined,undefined,undefined,undefined,white,no,Mozilla,Netscape,"5.0 (Windows NT 10.0; WOW64) AppleWebKit/537.36 (KHTML, like Gecko) Chrome/98.0.4758.102 Safari/537.36",xpyriment,legacy,legacy,0,uniform,0,0,0,0,24,24,24,0,0,74,74,74,74,74,0,74,0,27,27,27,27,27,0,27,03-02-22,03-02-22,16:08:08,Thu Mar 03 2022 16:08:08 GMT+0100 (közép-európai téli idő),The main experiment item,yes,0,0,C:/Users/rrics/Documents/!!ResearchBMECOGSCI/gnet,0,0,0,prototype1.png,no,mono,no,18,no,black,no,no,768,1174,3.5.6,legacy,xpyriment,osweb,1.3.13,0,enter,enter,enter,enter,53404,17059,45964,53404,2,legacy,824,1536,24,864,24,0,0,1536,1646320147924,1024,2,48000,-16,experiment,p4sarrshacol1.png,0,even,Win32,1263,130305,127292,1263,1263,665124,666632,660124,131822,660124,1263,845083,846585,842080,666636,842080,visual_patterns,0,0,0,yes,1366
undefined,undefined,undefined,undefined,white,no,Mozilla,Netscape,"5.0 (Windows NT 10.0; WOW64) AppleWebKit/537.36 (KHTML, like Gecko) Chrome/98.0.4758.102 Safari/537.36",xpyriment,legacy,legacy,0,uniform,0,0,0,0,24,24,24,0,0,74,74,74,74,74,0,74,0,28,28,28,28,28,0,28,03-02-22,03-02-22,16:08:08,Thu Mar 03 2022 16:08:08 GMT+0100 (közép-európai téli idő),The main experiment item,yes,0,0,C:/Users/rrics/Documents/!!ResearchBMECOGSCI/gnet,0,0,0,prototype1.png,no,mono,no,18,no,black,no,no,768,1174,3.5.6,legacy,xpyriment,osweb,1.3.13,0,enter,enter,enter,enter,53404,17059,45964,53404,2,legacy,824,1536,24,864,24,0,0,1536,1646320147924,1024,2,48000,-16,experiment,p1sarrshacol3.png,0,even,Win32,1263,130305,127292,1263,1263,665124,666632,660124,131822,660124,1263,849593,851100,846596,666636,846596,visual_patterns,0,0,0,yes,1366
undefined,undefined,undefined,undefined,white,no,Mozilla,Netscape,"5.0 (Windows NT 10.0; WOW64) AppleWebKit/537.36 (KHTML, like Gecko) Chrome/98.0.4758.102 Safari/537.36",xpyriment,legacy,legacy,0,uniform,0,0,0,0,24,24,24,0,0,74,74,74,74,74,0,74,0,29,29,29,29,29,0,29,03-02-22,03-02-22,16:08:08,Thu Mar 03 2022 16:08:08 GMT+0100 (közép-európai téli idő),The main experiment item,yes,0,0,C:/Users/rrics/Documents/!!ResearchBMECOGSCI/gnet,0,0,0,prototype1.png,no,mono,no,18,no,black,no,no,768,1174,3.5.6,legacy,xpyriment,osweb,1.3.13,0,enter,enter,enter,enter,53404,17059,45964,53404,2,legacy,824,1536,24,864,24,0,0,1536,1646320147924,1024,2,48000,-16,experiment,p2sarrsha1.png,0,even,Win32,1263,130305,127292,1263,1263,665124,666632,660124,131822,660124,1263,854111,855614,851108,666636,851108,visual_patterns,0,0,0,yes,1366
undefined,undefined,undefined,undefined,white,no,Mozilla,Netscape,"5.0 (Windows NT 10.0; WOW64) AppleWebKit/537.36 (KHTML, like Gecko) Chrome/98.0.4758.102 Safari/537.36",xpyriment,legacy,legacy,0,uniform,0,0,0,0,24,24,24,0,0,74,74,74,74,74,0,74,0,30,30,30,30,30,0,30,03-02-22,03-02-22,16:08:08,Thu Mar 03 2022 16:08:08 GMT+0100 (közép-európai téli idő),The main experiment item,yes,0,0,C:/Users/rrics/Documents/!!ResearchBMECOGSCI/gnet,0,0,0,prototype1.png,no,mono,no,18,no,black,no,no,768,1174,3.5.6,legacy,xpyriment,osweb,1.3.13,0,enter,enter,enter,enter,53404,17059,45964,53404,2,legacy,824,1536,24,864,24,0,0,1536,1646320147924,1024,2,48000,-16,experiment,p3sarr2.png,0,even,Win32,1263,130305,127292,1263,1263,665124,666632,660124,131822,660124,1263,858623,860129,855622,666636,855622,visual_patterns,0,0,0,yes,1366
undefined,undefined,undefined,undefined,white,no,Mozilla,Netscape,"5.0 (Windows NT 10.0; WOW64) AppleWebKit/537.36 (KHTML, like Gecko) Chrome/98.0.4758.102 Safari/537.36",xpyriment,legacy,legacy,0,uniform,0,0,0,0,24,24,24,0,0,74,74,74,74,74,0,74,0,31,31,31,31,31,0,31,03-02-22,03-02-22,16:08:08,Thu Mar 03 2022 16:08:08 GMT+0100 (közép-európai téli idő),The main experiment item,yes,0,0,C:/Users/rrics/Documents/!!ResearchBMECOGSCI/gnet,0,0,0,prototype1.png,no,mono,no,18,no,black,no,no,768,1174,3.5.6,legacy,xpyriment,osweb,1.3.13,0,enter,enter,enter,enter,53404,17059,45964,53404,2,legacy,824,1536,24,864,24,0,0,1536,1646320147924,1024,2,48000,-16,experiment,p3sarrshacol3.png,0,even,Win32,1263,130305,127292,1263,1263,665124,666632,660124,131822,660124,1263,863140,864644,860137,666636,860137,visual_patterns,0,0,0,yes,1366
undefined,undefined,undefined,undefined,white,no,Mozilla,Netscape,"5.0 (Windows NT 10.0; WOW64) AppleWebKit/537.36 (KHTML, like Gecko) Chrome/98.0.4758.102 Safari/537.36",xpyriment,legacy,legacy,0,uniform,0,0,0,0,24,24,24,0,0,74,74,74,74,74,0,74,0,32,32,32,32,32,0,32,03-02-22,03-02-22,16:08:08,Thu Mar 03 2022 16:08:08 GMT+0100 (közép-európai téli idő),The main experiment item,yes,0,0,C:/Users/rrics/Documents/!!ResearchBMECOGSCI/gnet,0,0,0,prototype1.png,no,mono,no,18,no,black,no,no,768,1174,3.5.6,legacy,xpyriment,osweb,1.3.13,0,enter,enter,enter,enter,53404,17059,45964,53404,2,legacy,824,1536,24,864,24,0,0,1536,1646320147924,1024,2,48000,-16,experiment,p2sarrcol4.png,0,even,Win32,1263,130305,127292,1263,1263,665124,666632,660124,131822,660124,1263,867655,869158,864652,666636,864652,visual_patterns,0,0,0,yes,1366
undefined,undefined,undefined,undefined,white,no,Mozilla,Netscape,"5.0 (Windows NT 10.0; WOW64) AppleWebKit/537.36 (KHTML, like Gecko) Chrome/98.0.4758.102 Safari/537.36",xpyriment,legacy,legacy,0,uniform,0,0,0,0,24,24,24,0,0,74,74,74,74,74,0,74,0,33,33,33,33,33,0,33,03-02-22,03-02-22,16:08:08,Thu Mar 03 2022 16:08:08 GMT+0100 (közép-európai téli idő),The main experiment item,yes,0,0,C:/Users/rrics/Documents/!!ResearchBMECOGSCI/gnet,0,0,0,prototype1.png,no,mono,no,18,no,black,no,no,768,1174,3.5.6,legacy,xpyriment,osweb,1.3.13,0,enter,enter,enter,enter,53404,17059,45964,53404,2,legacy,824,1536,24,864,24,0,0,1536,1646320147924,1024,2,48000,-16,experiment,p5sarrcol1.png,0,even,Win32,1263,130305,127292,1263,1263,665124,666632,660124,131822,660124,1263,872171,873673,869170,666636,869170,visual_patterns,0,0,0,yes,1366
undefined,undefined,undefined,undefined,white,no,Mozilla,Netscape,"5.0 (Windows NT 10.0; WOW64) AppleWebKit/537.36 (KHTML, like Gecko) Chrome/98.0.4758.102 Safari/537.36",xpyriment,legacy,legacy,0,uniform,0,0,0,0,24,24,24,0,0,74,74,74,74,74,0,74,0,34,34,34,34,34,0,34,03-02-22,03-02-22,16:08:08,Thu Mar 03 2022 16:08:08 GMT+0100 (közép-európai téli idő),The main experiment item,yes,0,0,C:/Users/rrics/Documents/!!ResearchBMECOGSCI/gnet,0,0,0,prototype1.png,no,mono,no,18,no,black,no,no,768,1174,3.5.6,legacy,xpyriment,osweb,1.3.13,0,enter,enter,enter,enter,53404,17059,45964,53404,2,legacy,824,1536,24,864,24,0,0,1536,1646320147924,1024,2,48000,-16,experiment,p8sarr2.png,0,even,Win32,1263,130305,127292,1263,1263,665124,666632,660124,131822,660124,1263,876736,878238,873737,666636,873737,visual_patterns,0,0,0,yes,1366
undefined,undefined,undefined,undefined,white,no,Mozilla,Netscape,"5.0 (Windows NT 10.0; WOW64) AppleWebKit/537.36 (KHTML, like Gecko) Chrome/98.0.4758.102 Safari/537.36",xpyriment,legacy,legacy,0,uniform,0,0,0,0,24,24,24,0,0,74,74,74,74,74,0,74,0,35,35,35,35,35,0,35,03-02-22,03-02-22,16:08:08,Thu Mar 03 2022 16:08:08 GMT+0100 (közép-európai téli idő),The main experiment item,yes,0,0,C:/Users/rrics/Documents/!!ResearchBMECOGSCI/gnet,0,0,0,prototype1.png,no,mono,no,18,no,black,no,no,768,1174,3.5.6,legacy,xpyriment,osweb,1.3.13,0,enter,enter,enter,enter,53404,17059,45964,53404,2,legacy,824,1536,24,864,24,0,0,1536,1646320147924,1024,2,48000,-16,experiment,p5sarr3.png,0,even,Win32,1263,130305,127292,1263,1263,665124,666632,660124,131822,660124,1263,881248,882752,878246,666636,878246,visual_patterns,0,0,0,yes,1366
undefined,undefined,undefined,undefined,white,no,Mozilla,Netscape,"5.0 (Windows NT 10.0; WOW64) AppleWebKit/537.36 (KHTML, like Gecko) Chrome/98.0.4758.102 Safari/537.36",xpyriment,legacy,legacy,0,uniform,0,0,0,0,24,24,24,0,0,74,74,74,74,74,0,74,0,36,36,36,36,36,0,36,03-02-22,03-02-22,16:08:08,Thu Mar 03 2022 16:08:08 GMT+0100 (közép-európai téli idő),The main experiment item,yes,0,0,C:/Users/rrics/Documents/!!ResearchBMECOGSCI/gnet,0,0,0,prototype1.png,no,mono,no,18,no,black,no,no,768,1174,3.5.6,legacy,xpyriment,osweb,1.3.13,0,enter,enter,enter,enter,53404,17059,45964,53404,2,legacy,824,1536,24,864,24,0,0,1536,1646320147924,1024,2,48000,-16,experiment,p7sarr1.png,0,even,Win32,1263,130305,127292,1263,1263,665124,666632,660124,131822,660124,1263,885761,887267,882761,666636,882761,visual_patterns,0,0,0,yes,1366
undefined,undefined,undefined,undefined,white,no,Mozilla,Netscape,"5.0 (Windows NT 10.0; WOW64) AppleWebKit/537.36 (KHTML, like Gecko) Chrome/98.0.4758.102 Safari/537.36",xpyriment,legacy,legacy,0,uniform,0,0,0,0,24,24,24,0,0,74,74,74,74,74,0,74,0,37,37,37,37,37,0,37,03-02-22,03-02-22,16:08:08,Thu Mar 03 2022 16:08:08 GMT+0100 (közép-európai téli idő),The main experiment item,yes,0,0,C:/Users/rrics/Documents/!!ResearchBMECOGSCI/gnet,0,0,0,prototype1.png,no,mono,no,18,no,black,no,no,768,1174,3.5.6,legacy,xpyriment,osweb,1.3.13,0,enter,enter,enter,enter,53404,17059,45964,53404,2,legacy,824,1536,24,864,24,0,0,1536,1646320147924,1024,2,48000,-16,experiment,p1sarrcol4.png,0,even,Win32,1263,130305,127292,1263,1263,665124,666632,660124,131822,660124,1263,890277,891782,887275,666636,887275,visual_patterns,0,0,0,yes,1366
undefined,undefined,undefined,undefined,white,no,Mozilla,Netscape,"5.0 (Windows NT 10.0; WOW64) AppleWebKit/537.36 (KHTML, like Gecko) Chrome/98.0.4758.102 Safari/537.36",xpyriment,legacy,legacy,0,uniform,0,0,0,0,24,24,24,0,0,74,74,74,74,74,0,74,0,38,38,38,38,38,0,38,03-02-22,03-02-22,16:08:08,Thu Mar 03 2022 16:08:08 GMT+0100 (közép-európai téli idő),The main experiment item,yes,0,0,C:/Users/rrics/Documents/!!ResearchBMECOGSCI/gnet,0,0,0,prototype1.png,no,mono,no,18,no,black,no,no,768,1174,3.5.6,legacy,xpyriment,osweb,1.3.13,0,enter,enter,enter,enter,53404,17059,45964,53404,2,legacy,824,1536,24,864,24,0,0,1536,1646320147924,1024,2,48000,-16,experiment,p3sarrsha4.png,0,even,Win32,1263,130305,127292,1263,1263,665124,666632,660124,131822,660124,1263,894794,896296,891792,666636,891791,visual_patterns,0,0,0,yes,1366
undefined,undefined,undefined,undefined,white,no,Mozilla,Netscape,"5.0 (Windows NT 10.0; WOW64) AppleWebKit/537.36 (KHTML, like Gecko) Chrome/98.0.4758.102 Safari/537.36",xpyriment,legacy,legacy,0,uniform,0,0,0,0,24,24,24,0,0,74,74,74,74,74,0,74,0,39,39,39,39,39,0,39,03-02-22,03-02-22,16:08:08,Thu Mar 03 2022 16:08:08 GMT+0100 (közép-európai téli idő),The main experiment item,yes,0,0,C:/Users/rrics/Documents/!!ResearchBMECOGSCI/gnet,0,0,0,prototype1.png,no,mono,no,18,no,black,no,no,768,1174,3.5.6,legacy,xpyriment,osweb,1.3.13,0,enter,enter,enter,enter,53404,17059,45964,53404,2,legacy,824,1536,24,864,24,0,0,1536,1646320147924,1024,2,48000,-16,experiment,p3sarr1.png,0,even,Win32,1263,130305,127292,1263,1263,665124,666632,660124,131822,660124,1263,899308,900811,896305,666636,896305,visual_patterns,0,0,0,yes,1366
undefined,undefined,undefined,undefined,white,no,Mozilla,Netscape,"5.0 (Windows NT 10.0; WOW64) AppleWebKit/537.36 (KHTML, like Gecko) Chrome/98.0.4758.102 Safari/537.36",xpyriment,legacy,legacy,0,uniform,0,0,0,0,24,24,24,0,0,74,74,74,74,74,0,74,0,40,40,40,40,40,0,40,03-02-22,03-02-22,16:08:08,Thu Mar 03 2022 16:08:08 GMT+0100 (közép-európai téli idő),The main experiment item,yes,0,0,C:/Users/rrics/Documents/!!ResearchBMECOGSCI/gnet,0,0,0,prototype1.png,no,mono,no,18,no,black,no,no,768,1174,3.5.6,legacy,xpyriment,osweb,1.3.13,0,enter,enter,enter,enter,53404,17059,45964,53404,2,legacy,824,1536,24,864,24,0,0,1536,1646320147924,1024,2,48000,-16,experiment,p2sarrsha3.png,0,even,Win32,1263,130305,127292,1263,1263,665124,666632,660124,131822,660124,1263,903820,905325,900821,666636,900821,visual_patterns,0,0,0,yes,1366
undefined,undefined,undefined,undefined,white,no,Mozilla,Netscape,"5.0 (Windows NT 10.0; WOW64) AppleWebKit/537.36 (KHTML, like Gecko) Chrome/98.0.4758.102 Safari/537.36",xpyriment,legacy,legacy,0,uniform,0,0,0,0,24,24,24,0,0,74,74,74,74,74,0,74,0,41,41,41,41,41,0,41,03-02-22,03-02-22,16:08:08,Thu Mar 03 2022 16:08:08 GMT+0100 (közép-európai téli idő),The main experiment item,yes,0,0,C:/Users/rrics/Documents/!!ResearchBMECOGSCI/gnet,0,0,0,prototype1.png,no,mono,no,18,no,black,no,no,768,1174,3.5.6,legacy,xpyriment,osweb,1.3.13,0,enter,enter,enter,enter,53404,17059,45964,53404,2,legacy,824,1536,24,864,24,0,0,1536,1646320147924,1024,2,48000,-16,experiment,p9sarr3.png,0,even,Win32,1263,130305,127292,1263,1263,665124,666632,660124,131822,660124,1263,908333,909840,905333,666636,905333,visual_patterns,0,0,0,yes,1366
undefined,undefined,undefined,undefined,white,no,Mozilla,Netscape,"5.0 (Windows NT 10.0; WOW64) AppleWebKit/537.36 (KHTML, like Gecko) Chrome/98.0.4758.102 Safari/537.36",xpyriment,legacy,legacy,0,uniform,0,0,0,0,24,24,24,0,0,74,74,74,74,74,0,74,0,42,42,42,42,42,0,42,03-02-22,03-02-22,16:08:08,Thu Mar 03 2022 16:08:08 GMT+0100 (közép-európai téli idő),The main experiment item,yes,0,0,C:/Users/rrics/Documents/!!ResearchBMECOGSCI/gnet,0,0,0,prototype1.png,no,mono,no,18,no,black,no,no,768,1174,3.5.6,legacy,xpyriment,osweb,1.3.13,0,enter,enter,enter,enter,53404,17059,45964,53404,2,legacy,824,1536,24,864,24,0,0,1536,1646320147924,1024,2,48000,-16,experiment,p10sarr4.png,0,even,Win32,1263,130305,127292,1263,1263,665124,666632,660124,131822,660124,1263,912856,914372,909857,666636,909857,visual_patterns,0,0,0,yes,1366
undefined,undefined,undefined,undefined,white,no,Mozilla,Netscape,"5.0 (Windows NT 10.0; WOW64) AppleWebKit/537.36 (KHTML, like Gecko) Chrome/98.0.4758.102 Safari/537.36",xpyriment,legacy,legacy,0,uniform,0,0,0,0,24,24,24,0,0,74,74,74,74,74,0,74,0,43,43,43,43,43,0,43,03-02-22,03-02-22,16:08:08,Thu Mar 03 2022 16:08:08 GMT+0100 (közép-európai téli idő),The main experiment item,yes,0,0,C:/Users/rrics/Documents/!!ResearchBMECOGSCI/gnet,0,0,0,prototype1.png,no,mono,no,18,no,black,no,no,768,1174,3.5.6,legacy,xpyriment,osweb,1.3.13,0,enter,enter,enter,enter,53404,17059,45964,53404,2,legacy,824,1536,24,864,24,0,0,1536,1646320147924,1024,2,48000,-16,experiment,p4sarrcol1.png,0,even,Win32,1263,130305,127292,1263,1263,665124,666632,660124,131822,660124,1263,917380,918886,914380,666636,914380,visual_patterns,0,0,0,yes,1366
undefined,undefined,undefined,undefined,white,no,Mozilla,Netscape,"5.0 (Windows NT 10.0; WOW64) AppleWebKit/537.36 (KHTML, like Gecko) Chrome/98.0.4758.102 Safari/537.36",xpyriment,legacy,legacy,0,uniform,0,0,0,0,24,24,24,0,0,74,74,74,74,74,0,74,0,44,44,44,44,44,0,44,03-02-22,03-02-22,16:08:08,Thu Mar 03 2022 16:08:08 GMT+0100 (közép-európai téli idő),The main experiment item,yes,0,0,C:/Users/rrics/Documents/!!ResearchBMECOGSCI/gnet,0,0,0,prototype1.png,no,mono,no,18,no,black,no,no,768,1174,3.5.6,legacy,xpyriment,osweb,1.3.13,0,enter,enter,enter,enter,53404,17059,45964,53404,2,legacy,824,1536,24,864,24,0,0,1536,1646320147924,1024,2,48000,-16,experiment,p5sarrshacol4.png,0,even,Win32,1263,130305,127292,1263,1263,665124,666632,660124,131822,660124,1263,921896,923401,918896,666636,918896,visual_patterns,0,0,0,yes,1366
undefined,undefined,undefined,undefined,white,no,Mozilla,Netscape,"5.0 (Windows NT 10.0; WOW64) AppleWebKit/537.36 (KHTML, like Gecko) Chrome/98.0.4758.102 Safari/537.36",xpyriment,legacy,legacy,0,uniform,0,0,0,0,24,24,24,0,0,74,74,74,74,74,0,74,0,45,45,45,45,45,0,45,03-02-22,03-02-22,16:08:08,Thu Mar 03 2022 16:08:08 GMT+0100 (közép-európai téli idő),The main experiment item,yes,0,0,C:/Users/rrics/Documents/!!ResearchBMECOGSCI/gnet,0,0,0,prototype1.png,no,mono,no,18,no,black,no,no,768,1174,3.5.6,legacy,xpyriment,osweb,1.3.13,0,enter,enter,enter,enter,53404,17059,45964,53404,2,legacy,824,1536,24,864,24,0,0,1536,1646320147924,1024,2,48000,-16,experiment,p3sarr3.png,0,even,Win32,1263,130305,127292,1263,1263,665124,666632,660124,131822,660124,1263,926411,927915,923412,666636,923412,visual_patterns,0,0,0,yes,1366
undefined,undefined,undefined,undefined,white,no,Mozilla,Netscape,"5.0 (Windows NT 10.0; WOW64) AppleWebKit/537.36 (KHTML, like Gecko) Chrome/98.0.4758.102 Safari/537.36",xpyriment,legacy,legacy,0,uniform,0,0,0,0,24,24,24,0,0,74,74,74,74,74,0,74,0,46,46,46,46,46,0,46,03-02-22,03-02-22,16:08:08,Thu Mar 03 2022 16:08:08 GMT+0100 (közép-európai téli idő),The main experiment item,yes,0,0,C:/Users/rrics/Documents/!!ResearchBMECOGSCI/gnet,0,0,0,prototype1.png,no,mono,no,18,no,black,no,no,768,1174,3.5.6,legacy,xpyriment,osweb,1.3.13,0,enter,enter,enter,enter,53404,17059,45964,53404,2,legacy,824,1536,24,864,24,0,0,1536,1646320147924,1024,2,48000,-16,experiment,p2sarr3.png,0,even,Win32,1263,130305,127292,1263,1263,665124,666632,660124,131822,660124,1263,930924,932430,927923,666636,927923,visual_patterns,0,0,0,yes,1366
undefined,undefined,undefined,undefined,white,no,Mozilla,Netscape,"5.0 (Windows NT 10.0; WOW64) AppleWebKit/537.36 (KHTML, like Gecko) Chrome/98.0.4758.102 Safari/537.36",xpyriment,legacy,legacy,0,uniform,0,0,0,0,24,24,24,0,0,74,74,74,74,74,0,74,0,47,47,47,47,47,0,47,03-02-22,03-02-22,16:08:08,Thu Mar 03 2022 16:08:08 GMT+0100 (közép-európai téli idő),The main experiment item,yes,0,0,C:/Users/rrics/Documents/!!ResearchBMECOGSCI/gnet,0,0,0,prototype1.png,no,mono,no,18,no,black,no,no,768,1174,3.5.6,legacy,xpyriment,osweb,1.3.13,0,enter,enter,enter,enter,53404,17059,45964,53404,2,legacy,824,1536,24,864,24,0,0,1536,1646320147924,1024,2,48000,-16,experiment,p4sarr2.png,0,even,Win32,1263,130305,127292,1263,1263,665124,666632,660124,131822,660124,1263,935440,936945,932440,666636,932440,visual_patterns,0,0,0,yes,1366
undefined,undefined,undefined,undefined,white,no,Mozilla,Netscape,"5.0 (Windows NT 10.0; WOW64) AppleWebKit/537.36 (KHTML, like Gecko) Chrome/98.0.4758.102 Safari/537.36",xpyriment,legacy,legacy,0,uniform,0,0,0,0,24,24,24,0,0,74,74,74,74,74,0,74,0,48,48,48,48,48,0,48,03-02-22,03-02-22,16:08:08,Thu Mar 03 2022 16:08:08 GMT+0100 (közép-európai téli idő),The main experiment item,yes,0,0,C:/Users/rrics/Documents/!!ResearchBMECOGSCI/gnet,0,0,0,prototype1.png,no,mono,no,18,no,black,no,no,768,1174,3.5.6,legacy,xpyriment,osweb,1.3.13,0,enter,enter,enter,enter,53404,17059,45964,53404,2,legacy,824,1536,24,864,24,0,0,1536,1646320147924,1024,2,48000,-16,experiment,p2sarrshacol3.png,0,even,Win32,1263,130305,127292,1263,1263,665124,666632,660124,131822,660124,1263,939952,941459,936955,666636,936955,visual_patterns,0,0,0,yes,1366
