acc,accuracy,average_response_time,avg_rt,background,bidi,browser_codename,browser_name,browser_version,canvas_backend,clock_backend,color_backend,compensation,coordinates,count_end,count_experiment,count_osweb,count_prestudy,count_prestudy_isi,count_prestudy_sequence,count_prestudy_stimpres,count_start,count_study,count_study_coroutines,count_study_isi,count_study_logger,count_study_response,count_study_sequence,count_study_start,count_study_stimpres,count_test,count_test_coroutines,count_test_isi,count_test_logger,count_test_response,count_test_sequence,count_test_start,count_test_stimpres,date_startdate,date_startdateUTC,date_starttime,datetime,description,disable_garbage_collection,experiment_debug,experiment_parameters,experiment_path,experiment_pilot,experiment_taskname,experiment_taskversion,fampict,font_bold,font_family,font_italic,font_size,font_underline,foreground,form_clicks,fullscreen,height,jatosStudyResultId,jatosVersion,keyboard_backend,mouse_backend,opensesame_codename,opensesame_version,repeat_cycle,response,response_start,response_study_start,response_test_start,response_time,response_time_start,response_time_study_start,response_time_test_start,round_decimals,sampler_backend,screen_availableHeight,screen_availableWidth,screen_colorDepth,screen_height,screen_pixelDepth,screen_screenX,screen_screenY,screen_width,sessionid,sound_buf_size,sound_channels,sound_freq,sound_sample_size,start,stim,subject_nr,subject_parity,system_os,time_prestudy,time_prestudy_isi,time_prestudy_stimpres,time_start,time_study,time_study_isi,time_study_logger,time_study_response,time_study_start,time_study_stimpres,time_test,time_test_isi,time_test_logger,time_test_response,time_test_start,time_test_stimpres,title,total_correct,total_response_time,total_responses,uniform_coordinates,width
undefined,undefined,undefined,undefined,white,no,Mozilla,Netscape,"5.0 (Windows NT 10.0; Win64; x64) AppleWebKit/537.36 (KHTML, like Gecko) Chrome/99.0.4844.51 Safari/537.36",xpyriment,legacy,legacy,0,uniform,0,0,0,0,24,24,24,0,0,0,0,0,0,0,0,0,0,,,,,,0,,04-02-22,04-02-22,09:00:45,Fri Mar 04 2022 09:00:45 GMT+0100 (közép-európai téli idő),The main experiment item,yes,0,0,C:/Users/rrics/Documents/!!ResearchBMECOGSCI/gnet,0,0,0,prototype1.png,no,mono,no,18,no,black,no,no,768,1175,3.5.6,legacy,xpyriment,osweb,1.3.13,0,space,space,space,,46936,46463,46936,,2,legacy,687,1280,24,720,24,0,0,1280,1646380881520,1024,2,48000,-16,experiment,p6sarr1.png,1,odd,Win32,143,158437,155423,143,143,211908,213422,206908,159957,206907,143,,,,,,visual_patterns,0,0,0,yes,1366
undefined,undefined,undefined,undefined,white,no,Mozilla,Netscape,"5.0 (Windows NT 10.0; Win64; x64) AppleWebKit/537.36 (KHTML, like Gecko) Chrome/99.0.4844.51 Safari/537.36",xpyriment,legacy,legacy,0,uniform,0,0,0,0,24,24,24,0,0,1,1,1,1,1,0,1,0,,,,,,0,,04-02-22,04-02-22,09:00:45,Fri Mar 04 2022 09:00:45 GMT+0100 (közép-európai téli idő),The main experiment item,yes,0,0,C:/Users/rrics/Documents/!!ResearchBMECOGSCI/gnet,0,0,0,prototype1.png,no,mono,no,18,no,black,no,no,768,1175,3.5.6,legacy,xpyriment,osweb,1.3.13,0,space,space,space,,46936,46463,46936,,2,legacy,687,1280,24,720,24,0,0,1280,1646380881520,1024,2,48000,-16,experiment,prototype3.png,1,odd,Win32,143,158437,155423,143,143,218433,219939,213429,159957,213429,143,,,,,,visual_patterns,0,0,0,yes,1366
undefined,undefined,undefined,undefined,white,no,Mozilla,Netscape,"5.0 (Windows NT 10.0; Win64; x64) AppleWebKit/537.36 (KHTML, like Gecko) Chrome/99.0.4844.51 Safari/537.36",xpyriment,legacy,legacy,0,uniform,0,0,0,0,24,24,24,0,0,2,2,2,2,2,0,2,0,,,,,,0,,04-02-22,04-02-22,09:00:45,Fri Mar 04 2022 09:00:45 GMT+0100 (közép-európai téli idő),The main experiment item,yes,0,0,C:/Users/rrics/Documents/!!ResearchBMECOGSCI/gnet,0,0,0,prototype1.png,no,mono,no,18,no,black,no,no,768,1175,3.5.6,legacy,xpyriment,osweb,1.3.13,0,space,space,space,,46936,46463,46936,,2,legacy,687,1280,24,720,24,0,0,1280,1646380881520,1024,2,48000,-16,experiment,p3sarr1.png,1,odd,Win32,143,158437,155423,143,143,224961,226472,219959,159957,219959,143,,,,,,visual_patterns,0,0,0,yes,1366
undefined,undefined,undefined,undefined,white,no,Mozilla,Netscape,"5.0 (Windows NT 10.0; Win64; x64) AppleWebKit/537.36 (KHTML, like Gecko) Chrome/99.0.4844.51 Safari/537.36",xpyriment,legacy,legacy,0,uniform,0,0,0,0,24,24,24,0,0,3,3,3,3,3,0,3,0,,,,,,0,,04-02-22,04-02-22,09:00:45,Fri Mar 04 2022 09:00:45 GMT+0100 (közép-európai téli idő),The main experiment item,yes,0,0,C:/Users/rrics/Documents/!!ResearchBMECOGSCI/gnet,0,0,0,prototype1.png,no,mono,no,18,no,black,no,no,768,1175,3.5.6,legacy,xpyriment,osweb,1.3.13,0,space,space,space,,46936,46463,46936,,2,legacy,687,1280,24,720,24,0,0,1280,1646380881520,1024,2,48000,-16,experiment,p9sarr2.png,1,odd,Win32,143,158437,155423,143,143,231479,232990,226479,159957,226479,143,,,,,,visual_patterns,0,0,0,yes,1366
undefined,undefined,undefined,undefined,white,no,Mozilla,Netscape,"5.0 (Windows NT 10.0; Win64; x64) AppleWebKit/537.36 (KHTML, like Gecko) Chrome/99.0.4844.51 Safari/537.36",xpyriment,legacy,legacy,0,uniform,0,0,0,0,24,24,24,0,0,4,4,4,4,4,0,4,0,,,,,,0,,04-02-22,04-02-22,09:00:45,Fri Mar 04 2022 09:00:45 GMT+0100 (közép-európai téli idő),The main experiment item,yes,0,0,C:/Users/rrics/Documents/!!ResearchBMECOGSCI/gnet,0,0,0,prototype1.png,no,mono,no,18,no,black,no,no,768,1175,3.5.6,legacy,xpyriment,osweb,1.3.13,0,space,space,space,,46936,46463,46936,,2,legacy,687,1280,24,720,24,0,0,1280,1646380881520,1024,2,48000,-16,experiment,p4sarr2.png,1,odd,Win32,143,158437,155423,143,143,238008,239523,233013,159957,233012,143,,,,,,visual_patterns,0,0,0,yes,1366
undefined,undefined,undefined,undefined,white,no,Mozilla,Netscape,"5.0 (Windows NT 10.0; Win64; x64) AppleWebKit/537.36 (KHTML, like Gecko) Chrome/99.0.4844.51 Safari/537.36",xpyriment,legacy,legacy,0,uniform,0,0,0,0,24,24,24,0,0,5,5,5,5,5,0,5,0,,,,,,0,,04-02-22,04-02-22,09:00:45,Fri Mar 04 2022 09:00:45 GMT+0100 (közép-európai téli idő),The main experiment item,yes,0,0,C:/Users/rrics/Documents/!!ResearchBMECOGSCI/gnet,0,0,0,prototype1.png,no,mono,no,18,no,black,no,no,768,1175,3.5.6,legacy,xpyriment,osweb,1.3.13,0,space,space,space,,46936,46463,46936,,2,legacy,687,1280,24,720,24,0,0,1280,1646380881520,1024,2,48000,-16,experiment,p4sarrshacol2.png,1,odd,Win32,143,158437,155423,143,143,244543,246057,239543,159957,239543,143,,,,,,visual_patterns,0,0,0,yes,1366
undefined,undefined,undefined,undefined,white,no,Mozilla,Netscape,"5.0 (Windows NT 10.0; Win64; x64) AppleWebKit/537.36 (KHTML, like Gecko) Chrome/99.0.4844.51 Safari/537.36",xpyriment,legacy,legacy,0,uniform,0,0,0,0,24,24,24,0,0,6,6,6,6,6,0,6,0,,,,,,0,,04-02-22,04-02-22,09:00:45,Fri Mar 04 2022 09:00:45 GMT+0100 (közép-európai téli idő),The main experiment item,yes,0,0,C:/Users/rrics/Documents/!!ResearchBMECOGSCI/gnet,0,0,0,prototype1.png,no,mono,no,18,no,black,no,no,768,1175,3.5.6,legacy,xpyriment,osweb,1.3.13,0,space,space,space,,46936,46463,46936,,2,legacy,687,1280,24,720,24,0,0,1280,1646380881520,1024,2,48000,-16,experiment,p5sarrsha2.png,1,odd,Win32,143,158437,155423,143,143,251068,252574,246067,159957,246067,143,,,,,,visual_patterns,0,0,0,yes,1366
undefined,undefined,undefined,undefined,white,no,Mozilla,Netscape,"5.0 (Windows NT 10.0; Win64; x64) AppleWebKit/537.36 (KHTML, like Gecko) Chrome/99.0.4844.51 Safari/537.36",xpyriment,legacy,legacy,0,uniform,0,0,0,0,24,24,24,0,0,7,7,7,7,7,0,7,0,,,,,,0,,04-02-22,04-02-22,09:00:45,Fri Mar 04 2022 09:00:45 GMT+0100 (közép-európai téli idő),The main experiment item,yes,0,0,C:/Users/rrics/Documents/!!ResearchBMECOGSCI/gnet,0,0,0,prototype1.png,no,mono,no,18,no,black,no,no,768,1175,3.5.6,legacy,xpyriment,osweb,1.3.13,0,space,space,space,,46936,46463,46936,,2,legacy,687,1280,24,720,24,0,0,1280,1646380881520,1024,2,48000,-16,experiment,p2sarr1.png,1,odd,Win32,143,158437,155423,143,143,257596,259107,252597,159957,252597,143,,,,,,visual_patterns,0,0,0,yes,1366
undefined,undefined,undefined,undefined,white,no,Mozilla,Netscape,"5.0 (Windows NT 10.0; Win64; x64) AppleWebKit/537.36 (KHTML, like Gecko) Chrome/99.0.4844.51 Safari/537.36",xpyriment,legacy,legacy,0,uniform,0,0,0,0,24,24,24,0,0,8,8,8,8,8,0,8,0,,,,,,0,,04-02-22,04-02-22,09:00:45,Fri Mar 04 2022 09:00:45 GMT+0100 (közép-európai téli idő),The main experiment item,yes,0,0,C:/Users/rrics/Documents/!!ResearchBMECOGSCI/gnet,0,0,0,prototype1.png,no,mono,no,18,no,black,no,no,768,1175,3.5.6,legacy,xpyriment,osweb,1.3.13,0,space,space,space,,46936,46463,46936,,2,legacy,687,1280,24,720,24,0,0,1280,1646380881520,1024,2,48000,-16,experiment,prototype4.png,1,odd,Win32,143,158437,155423,143,143,264115,265624,259115,159957,259115,143,,,,,,visual_patterns,0,0,0,yes,1366
undefined,undefined,undefined,undefined,white,no,Mozilla,Netscape,"5.0 (Windows NT 10.0; Win64; x64) AppleWebKit/537.36 (KHTML, like Gecko) Chrome/99.0.4844.51 Safari/537.36",xpyriment,legacy,legacy,0,uniform,0,0,0,0,24,24,24,0,0,9,9,9,9,9,0,9,0,,,,,,0,,04-02-22,04-02-22,09:00:45,Fri Mar 04 2022 09:00:45 GMT+0100 (közép-európai téli idő),The main experiment item,yes,0,0,C:/Users/rrics/Documents/!!ResearchBMECOGSCI/gnet,0,0,0,prototype1.png,no,mono,no,18,no,black,no,no,768,1175,3.5.6,legacy,xpyriment,osweb,1.3.13,0,space,space,space,,46936,46463,46936,,2,legacy,687,1280,24,720,24,0,0,1280,1646380881520,1024,2,48000,-16,experiment,p5sarrsha1.png,1,odd,Win32,143,158437,155423,143,143,270635,272141,265633,159957,265633,143,,,,,,visual_patterns,0,0,0,yes,1366
undefined,undefined,undefined,undefined,white,no,Mozilla,Netscape,"5.0 (Windows NT 10.0; Win64; x64) AppleWebKit/537.36 (KHTML, like Gecko) Chrome/99.0.4844.51 Safari/537.36",xpyriment,legacy,legacy,0,uniform,0,0,0,0,24,24,24,0,0,10,10,10,10,10,0,10,0,,,,,,0,,04-02-22,04-02-22,09:00:45,Fri Mar 04 2022 09:00:45 GMT+0100 (közép-európai téli idő),The main experiment item,yes,0,0,C:/Users/rrics/Documents/!!ResearchBMECOGSCI/gnet,0,0,0,prototype1.png,no,mono,no,18,no,black,no,no,768,1175,3.5.6,legacy,xpyriment,osweb,1.3.13,0,space,space,space,,46936,46463,46936,,2,legacy,687,1280,24,720,24,0,0,1280,1646380881520,1024,2,48000,-16,experiment,p5sarrcol1.png,1,odd,Win32,143,158437,155423,143,143,277152,278659,272150,159957,272150,143,,,,,,visual_patterns,0,0,0,yes,1366
undefined,undefined,undefined,undefined,white,no,Mozilla,Netscape,"5.0 (Windows NT 10.0; Win64; x64) AppleWebKit/537.36 (KHTML, like Gecko) Chrome/99.0.4844.51 Safari/537.36",xpyriment,legacy,legacy,0,uniform,0,0,0,0,24,24,24,0,0,11,11,11,11,11,0,11,0,,,,,,0,,04-02-22,04-02-22,09:00:45,Fri Mar 04 2022 09:00:45 GMT+0100 (közép-európai téli idő),The main experiment item,yes,0,0,C:/Users/rrics/Documents/!!ResearchBMECOGSCI/gnet,0,0,0,prototype1.png,no,mono,no,18,no,black,no,no,768,1175,3.5.6,legacy,xpyriment,osweb,1.3.13,0,space,space,space,,46936,46463,46936,,2,legacy,687,1280,24,720,24,0,0,1280,1646380881520,1024,2,48000,-16,experiment,p8sarr2.png,1,odd,Win32,143,158437,155423,143,143,283670,285175,278668,159957,278668,143,,,,,,visual_patterns,0,0,0,yes,1366
undefined,undefined,undefined,undefined,white,no,Mozilla,Netscape,"5.0 (Windows NT 10.0; Win64; x64) AppleWebKit/537.36 (KHTML, like Gecko) Chrome/99.0.4844.51 Safari/537.36",xpyriment,legacy,legacy,0,uniform,0,0,0,0,24,24,24,0,0,12,12,12,12,12,0,12,0,,,,,,0,,04-02-22,04-02-22,09:00:45,Fri Mar 04 2022 09:00:45 GMT+0100 (közép-európai téli idő),The main experiment item,yes,0,0,C:/Users/rrics/Documents/!!ResearchBMECOGSCI/gnet,0,0,0,prototype1.png,no,mono,no,18,no,black,no,no,768,1175,3.5.6,legacy,xpyriment,osweb,1.3.13,0,space,space,space,,46936,46463,46936,,2,legacy,687,1280,24,720,24,0,0,1280,1646380881520,1024,2,48000,-16,experiment,p5sarrshacol2.png,1,odd,Win32,143,158437,155423,143,143,290186,291693,285183,159957,285183,143,,,,,,visual_patterns,0,0,0,yes,1366
undefined,undefined,undefined,undefined,white,no,Mozilla,Netscape,"5.0 (Windows NT 10.0; Win64; x64) AppleWebKit/537.36 (KHTML, like Gecko) Chrome/99.0.4844.51 Safari/537.36",xpyriment,legacy,legacy,0,uniform,0,0,0,0,24,24,24,0,0,13,13,13,13,13,0,13,0,,,,,,0,,04-02-22,04-02-22,09:00:45,Fri Mar 04 2022 09:00:45 GMT+0100 (közép-európai téli idő),The main experiment item,yes,0,0,C:/Users/rrics/Documents/!!ResearchBMECOGSCI/gnet,0,0,0,prototype1.png,no,mono,no,18,no,black,no,no,768,1175,3.5.6,legacy,xpyriment,osweb,1.3.13,0,space,space,space,,46936,46463,46936,,2,legacy,687,1280,24,720,24,0,0,1280,1646380881520,1024,2,48000,-16,experiment,p8sarr1.png,1,odd,Win32,143,158437,155423,143,143,296703,298209,291705,159957,291705,143,,,,,,visual_patterns,0,0,0,yes,1366
undefined,undefined,undefined,undefined,white,no,Mozilla,Netscape,"5.0 (Windows NT 10.0; Win64; x64) AppleWebKit/537.36 (KHTML, like Gecko) Chrome/99.0.4844.51 Safari/537.36",xpyriment,legacy,legacy,0,uniform,0,0,0,0,24,24,24,0,0,14,14,14,14,14,0,14,0,,,,,,0,,04-02-22,04-02-22,09:00:45,Fri Mar 04 2022 09:00:45 GMT+0100 (közép-európai téli idő),The main experiment item,yes,0,0,C:/Users/rrics/Documents/!!ResearchBMECOGSCI/gnet,0,0,0,prototype1.png,no,mono,no,18,no,black,no,no,768,1175,3.5.6,legacy,xpyriment,osweb,1.3.13,0,space,space,space,,46936,46463,46936,,2,legacy,687,1280,24,720,24,0,0,1280,1646380881520,1024,2,48000,-16,experiment,p3sarrcol1.png,1,odd,Win32,143,158437,155423,143,143,303218,304726,298217,159957,298217,143,,,,,,visual_patterns,0,0,0,yes,1366
undefined,undefined,undefined,undefined,white,no,Mozilla,Netscape,"5.0 (Windows NT 10.0; Win64; x64) AppleWebKit/537.36 (KHTML, like Gecko) Chrome/99.0.4844.51 Safari/537.36",xpyriment,legacy,legacy,0,uniform,0,0,0,0,24,24,24,0,0,15,15,15,15,15,0,15,0,,,,,,0,,04-02-22,04-02-22,09:00:45,Fri Mar 04 2022 09:00:45 GMT+0100 (közép-európai téli idő),The main experiment item,yes,0,0,C:/Users/rrics/Documents/!!ResearchBMECOGSCI/gnet,0,0,0,prototype1.png,no,mono,no,18,no,black,no,no,768,1175,3.5.6,legacy,xpyriment,osweb,1.3.13,0,space,space,space,,46936,46463,46936,,2,legacy,687,1280,24,720,24,0,0,1280,1646380881520,1024,2,48000,-16,experiment,prototype1.png,1,odd,Win32,143,158437,155423,143,143,309733,311243,304731,159957,304731,143,,,,,,visual_patterns,0,0,0,yes,1366
undefined,undefined,undefined,undefined,white,no,Mozilla,Netscape,"5.0 (Windows NT 10.0; Win64; x64) AppleWebKit/537.36 (KHTML, like Gecko) Chrome/99.0.4844.51 Safari/537.36",xpyriment,legacy,legacy,0,uniform,0,0,0,0,24,24,24,0,0,16,16,16,16,16,0,16,0,,,,,,0,,04-02-22,04-02-22,09:00:45,Fri Mar 04 2022 09:00:45 GMT+0100 (közép-európai téli idő),The main experiment item,yes,0,0,C:/Users/rrics/Documents/!!ResearchBMECOGSCI/gnet,0,0,0,prototype1.png,no,mono,no,18,no,black,no,no,768,1175,3.5.6,legacy,xpyriment,osweb,1.3.13,0,space,space,space,,46936,46463,46936,,2,legacy,687,1280,24,720,24,0,0,1280,1646380881520,1024,2,48000,-16,experiment,p2sarr2.png,1,odd,Win32,143,158437,155423,143,143,316256,317760,311253,159957,311253,143,,,,,,visual_patterns,0,0,0,yes,1366
undefined,undefined,undefined,undefined,white,no,Mozilla,Netscape,"5.0 (Windows NT 10.0; Win64; x64) AppleWebKit/537.36 (KHTML, like Gecko) Chrome/99.0.4844.51 Safari/537.36",xpyriment,legacy,legacy,0,uniform,0,0,0,0,24,24,24,0,0,17,17,17,17,17,0,17,0,,,,,,0,,04-02-22,04-02-22,09:00:45,Fri Mar 04 2022 09:00:45 GMT+0100 (közép-európai téli idő),The main experiment item,yes,0,0,C:/Users/rrics/Documents/!!ResearchBMECOGSCI/gnet,0,0,0,prototype1.png,no,mono,no,18,no,black,no,no,768,1175,3.5.6,legacy,xpyriment,osweb,1.3.13,0,space,space,space,,46936,46463,46936,,2,legacy,687,1280,24,720,24,0,0,1280,1646380881520,1024,2,48000,-16,experiment,p3sarrsha2.png,1,odd,Win32,143,158437,155423,143,143,322787,324294,317791,159957,317791,143,,,,,,visual_patterns,0,0,0,yes,1366
undefined,undefined,undefined,undefined,white,no,Mozilla,Netscape,"5.0 (Windows NT 10.0; Win64; x64) AppleWebKit/537.36 (KHTML, like Gecko) Chrome/99.0.4844.51 Safari/537.36",xpyriment,legacy,legacy,0,uniform,0,0,0,0,24,24,24,0,0,18,18,18,18,18,0,18,0,,,,,,0,,04-02-22,04-02-22,09:00:45,Fri Mar 04 2022 09:00:45 GMT+0100 (közép-európai téli idő),The main experiment item,yes,0,0,C:/Users/rrics/Documents/!!ResearchBMECOGSCI/gnet,0,0,0,prototype1.png,no,mono,no,18,no,black,no,no,768,1175,3.5.6,legacy,xpyriment,osweb,1.3.13,0,space,space,space,,46936,46463,46936,,2,legacy,687,1280,24,720,24,0,0,1280,1646380881520,1024,2,48000,-16,experiment,prototype4.png,1,odd,Win32,143,158437,155423,143,143,329305,330810,324300,159957,324300,143,,,,,,visual_patterns,0,0,0,yes,1366
undefined,undefined,undefined,undefined,white,no,Mozilla,Netscape,"5.0 (Windows NT 10.0; Win64; x64) AppleWebKit/537.36 (KHTML, like Gecko) Chrome/99.0.4844.51 Safari/537.36",xpyriment,legacy,legacy,0,uniform,0,0,0,0,24,24,24,0,0,19,19,19,19,19,0,19,0,,,,,,0,,04-02-22,04-02-22,09:00:45,Fri Mar 04 2022 09:00:45 GMT+0100 (közép-európai téli idő),The main experiment item,yes,0,0,C:/Users/rrics/Documents/!!ResearchBMECOGSCI/gnet,0,0,0,prototype1.png,no,mono,no,18,no,black,no,no,768,1175,3.5.6,legacy,xpyriment,osweb,1.3.13,0,space,space,space,,46936,46463,46936,,2,legacy,687,1280,24,720,24,0,0,1280,1646380881520,1024,2,48000,-16,experiment,p3sarrsha1.png,1,odd,Win32,143,158437,155423,143,143,335822,337328,330822,159957,330822,143,,,,,,visual_patterns,0,0,0,yes,1366
undefined,undefined,undefined,undefined,white,no,Mozilla,Netscape,"5.0 (Windows NT 10.0; Win64; x64) AppleWebKit/537.36 (KHTML, like Gecko) Chrome/99.0.4844.51 Safari/537.36",xpyriment,legacy,legacy,0,uniform,0,0,0,0,24,24,24,0,0,20,20,20,20,20,0,20,0,,,,,,0,,04-02-22,04-02-22,09:00:45,Fri Mar 04 2022 09:00:45 GMT+0100 (közép-európai téli idő),The main experiment item,yes,0,0,C:/Users/rrics/Documents/!!ResearchBMECOGSCI/gnet,0,0,0,prototype1.png,no,mono,no,18,no,black,no,no,768,1175,3.5.6,legacy,xpyriment,osweb,1.3.13,0,space,space,space,,46936,46463,46936,,2,legacy,687,1280,24,720,24,0,0,1280,1646380881520,1024,2,48000,-16,experiment,prototype2.png,1,odd,Win32,143,158437,155423,143,143,342339,343845,337338,159957,337338,143,,,,,,visual_patterns,0,0,0,yes,1366
undefined,undefined,undefined,undefined,white,no,Mozilla,Netscape,"5.0 (Windows NT 10.0; Win64; x64) AppleWebKit/537.36 (KHTML, like Gecko) Chrome/99.0.4844.51 Safari/537.36",xpyriment,legacy,legacy,0,uniform,0,0,0,0,24,24,24,0,0,21,21,21,21,21,0,21,0,,,,,,0,,04-02-22,04-02-22,09:00:45,Fri Mar 04 2022 09:00:45 GMT+0100 (közép-európai téli idő),The main experiment item,yes,0,0,C:/Users/rrics/Documents/!!ResearchBMECOGSCI/gnet,0,0,0,prototype1.png,no,mono,no,18,no,black,no,no,768,1175,3.5.6,legacy,xpyriment,osweb,1.3.13,0,space,space,space,,46936,46463,46936,,2,legacy,687,1280,24,720,24,0,0,1280,1646380881520,1024,2,48000,-16,experiment,p4sarrcol2.png,1,odd,Win32,143,158437,155423,143,143,348857,350361,343855,159957,343855,143,,,,,,visual_patterns,0,0,0,yes,1366
undefined,undefined,undefined,undefined,white,no,Mozilla,Netscape,"5.0 (Windows NT 10.0; Win64; x64) AppleWebKit/537.36 (KHTML, like Gecko) Chrome/99.0.4844.51 Safari/537.36",xpyriment,legacy,legacy,0,uniform,0,0,0,0,24,24,24,0,0,22,22,22,22,22,0,22,0,,,,,,0,,04-02-22,04-02-22,09:00:45,Fri Mar 04 2022 09:00:45 GMT+0100 (közép-európai téli idő),The main experiment item,yes,0,0,C:/Users/rrics/Documents/!!ResearchBMECOGSCI/gnet,0,0,0,prototype1.png,no,mono,no,18,no,black,no,no,768,1175,3.5.6,legacy,xpyriment,osweb,1.3.13,0,space,space,space,,46936,46463,46936,,2,legacy,687,1280,24,720,24,0,0,1280,1646380881520,1024,2,48000,-16,experiment,p5sarrshacol1.png,1,odd,Win32,143,158437,155423,143,143,355426,356928,350428,159957,350428,143,,,,,,visual_patterns,0,0,0,yes,1366
undefined,undefined,undefined,undefined,white,no,Mozilla,Netscape,"5.0 (Windows NT 10.0; Win64; x64) AppleWebKit/537.36 (KHTML, like Gecko) Chrome/99.0.4844.51 Safari/537.36",xpyriment,legacy,legacy,0,uniform,0,0,0,0,24,24,24,0,0,23,23,23,23,23,0,23,0,,,,,,0,,04-02-22,04-02-22,09:00:45,Fri Mar 04 2022 09:00:45 GMT+0100 (közép-európai téli idő),The main experiment item,yes,0,0,C:/Users/rrics/Documents/!!ResearchBMECOGSCI/gnet,0,0,0,prototype1.png,no,mono,no,18,no,black,no,no,768,1175,3.5.6,legacy,xpyriment,osweb,1.3.13,0,space,space,space,,46936,46463,46936,,2,legacy,687,1280,24,720,24,0,0,1280,1646380881520,1024,2,48000,-16,experiment,prototype2.png,1,odd,Win32,143,158437,155423,143,143,361940,363445,356936,159957,356936,143,,,,,,visual_patterns,0,0,0,yes,1366
undefined,undefined,undefined,undefined,white,no,Mozilla,Netscape,"5.0 (Windows NT 10.0; Win64; x64) AppleWebKit/537.36 (KHTML, like Gecko) Chrome/99.0.4844.51 Safari/537.36",xpyriment,legacy,legacy,0,uniform,0,0,0,0,24,24,24,0,0,24,24,24,24,24,0,24,0,,,,,,0,,04-02-22,04-02-22,09:00:45,Fri Mar 04 2022 09:00:45 GMT+0100 (közép-európai téli idő),The main experiment item,yes,0,0,C:/Users/rrics/Documents/!!ResearchBMECOGSCI/gnet,0,0,0,prototype1.png,no,mono,no,18,no,black,no,no,768,1175,3.5.6,legacy,xpyriment,osweb,1.3.13,0,space,space,space,,46936,46463,46936,,2,legacy,687,1280,24,720,24,0,0,1280,1646380881520,1024,2,48000,-16,experiment,p4sarrsha2.png,1,odd,Win32,143,158437,155423,143,143,368456,369962,363456,159957,363456,143,,,,,,visual_patterns,0,0,0,yes,1366
undefined,undefined,undefined,undefined,white,no,Mozilla,Netscape,"5.0 (Windows NT 10.0; Win64; x64) AppleWebKit/537.36 (KHTML, like Gecko) Chrome/99.0.4844.51 Safari/537.36",xpyriment,legacy,legacy,0,uniform,0,0,0,0,24,24,24,0,0,25,25,25,25,25,0,25,0,,,,,,0,,04-02-22,04-02-22,09:00:45,Fri Mar 04 2022 09:00:45 GMT+0100 (közép-európai téli idő),The main experiment item,yes,0,0,C:/Users/rrics/Documents/!!ResearchBMECOGSCI/gnet,0,0,0,prototype1.png,no,mono,no,18,no,black,no,no,768,1175,3.5.6,legacy,xpyriment,osweb,1.3.13,0,space,space,space,,46936,46463,46936,,2,legacy,687,1280,24,720,24,0,0,1280,1646380881520,1024,2,48000,-16,experiment,p9sarr1.png,1,odd,Win32,143,158437,155423,143,143,374971,376479,369971,159957,369971,143,,,,,,visual_patterns,0,0,0,yes,1366
undefined,undefined,undefined,undefined,white,no,Mozilla,Netscape,"5.0 (Windows NT 10.0; Win64; x64) AppleWebKit/537.36 (KHTML, like Gecko) Chrome/99.0.4844.51 Safari/537.36",xpyriment,legacy,legacy,0,uniform,0,0,0,0,24,24,24,0,0,26,26,26,26,26,0,26,0,,,,,,0,,04-02-22,04-02-22,09:00:45,Fri Mar 04 2022 09:00:45 GMT+0100 (közép-európai téli idő),The main experiment item,yes,0,0,C:/Users/rrics/Documents/!!ResearchBMECOGSCI/gnet,0,0,0,prototype1.png,no,mono,no,18,no,black,no,no,768,1175,3.5.6,legacy,xpyriment,osweb,1.3.13,0,space,space,space,,46936,46463,46936,,2,legacy,687,1280,24,720,24,0,0,1280,1646380881520,1024,2,48000,-16,experiment,prototype1.png,1,odd,Win32,143,158437,155423,143,143,381488,382996,376486,159957,376486,143,,,,,,visual_patterns,0,0,0,yes,1366
undefined,undefined,undefined,undefined,white,no,Mozilla,Netscape,"5.0 (Windows NT 10.0; Win64; x64) AppleWebKit/537.36 (KHTML, like Gecko) Chrome/99.0.4844.51 Safari/537.36",xpyriment,legacy,legacy,0,uniform,0,0,0,0,24,24,24,0,0,27,27,27,27,27,0,27,0,,,,,,0,,04-02-22,04-02-22,09:00:45,Fri Mar 04 2022 09:00:45 GMT+0100 (közép-európai téli idő),The main experiment item,yes,0,0,C:/Users/rrics/Documents/!!ResearchBMECOGSCI/gnet,0,0,0,prototype1.png,no,mono,no,18,no,black,no,no,768,1175,3.5.6,legacy,xpyriment,osweb,1.3.13,0,space,space,space,,46936,46463,46936,,2,legacy,687,1280,24,720,24,0,0,1280,1646380881520,1024,2,48000,-16,experiment,p4sarrcol1.png,1,odd,Win32,143,158437,155423,143,143,388006,389513,383006,159957,383006,143,,,,,,visual_patterns,0,0,0,yes,1366
undefined,undefined,undefined,undefined,white,no,Mozilla,Netscape,"5.0 (Windows NT 10.0; Win64; x64) AppleWebKit/537.36 (KHTML, like Gecko) Chrome/99.0.4844.51 Safari/537.36",xpyriment,legacy,legacy,0,uniform,0,0,0,0,24,24,24,0,0,28,28,28,28,28,0,28,0,,,,,,0,,04-02-22,04-02-22,09:00:45,Fri Mar 04 2022 09:00:45 GMT+0100 (közép-európai téli idő),The main experiment item,yes,0,0,C:/Users/rrics/Documents/!!ResearchBMECOGSCI/gnet,0,0,0,prototype1.png,no,mono,no,18,no,black,no,no,768,1175,3.5.6,legacy,xpyriment,osweb,1.3.13,0,space,space,space,,46936,46463,46936,,2,legacy,687,1280,24,720,24,0,0,1280,1646380881520,1024,2,48000,-16,experiment,prototype4.png,1,odd,Win32,143,158437,155423,143,143,394522,396030,389521,159957,389521,143,,,,,,visual_patterns,0,0,0,yes,1366
undefined,undefined,undefined,undefined,white,no,Mozilla,Netscape,"5.0 (Windows NT 10.0; Win64; x64) AppleWebKit/537.36 (KHTML, like Gecko) Chrome/99.0.4844.51 Safari/537.36",xpyriment,legacy,legacy,0,uniform,0,0,0,0,24,24,24,0,0,29,29,29,29,29,0,29,0,,,,,,0,,04-02-22,04-02-22,09:00:45,Fri Mar 04 2022 09:00:45 GMT+0100 (közép-európai téli idő),The main experiment item,yes,0,0,C:/Users/rrics/Documents/!!ResearchBMECOGSCI/gnet,0,0,0,prototype1.png,no,mono,no,18,no,black,no,no,768,1175,3.5.6,legacy,xpyriment,osweb,1.3.13,0,space,space,space,,46936,46463,46936,,2,legacy,687,1280,24,720,24,0,0,1280,1646380881520,1024,2,48000,-16,experiment,prototype5.png,1,odd,Win32,143,158437,155423,143,143,401040,402547,396038,159957,396038,143,,,,,,visual_patterns,0,0,0,yes,1366
undefined,undefined,undefined,undefined,white,no,Mozilla,Netscape,"5.0 (Windows NT 10.0; Win64; x64) AppleWebKit/537.36 (KHTML, like Gecko) Chrome/99.0.4844.51 Safari/537.36",xpyriment,legacy,legacy,0,uniform,0,0,0,0,24,24,24,0,0,30,30,30,30,30,0,30,0,,,,,,0,,04-02-22,04-02-22,09:00:45,Fri Mar 04 2022 09:00:45 GMT+0100 (közép-európai téli idő),The main experiment item,yes,0,0,C:/Users/rrics/Documents/!!ResearchBMECOGSCI/gnet,0,0,0,prototype1.png,no,mono,no,18,no,black,no,no,768,1175,3.5.6,legacy,xpyriment,osweb,1.3.13,0,space,space,space,,46936,46463,46936,,2,legacy,687,1280,24,720,24,0,0,1280,1646380881520,1024,2,48000,-16,experiment,p5sarrcol2.png,1,odd,Win32,143,158437,155423,143,143,407555,409064,402555,159957,402555,143,,,,,,visual_patterns,0,0,0,yes,1366
undefined,undefined,undefined,undefined,white,no,Mozilla,Netscape,"5.0 (Windows NT 10.0; Win64; x64) AppleWebKit/537.36 (KHTML, like Gecko) Chrome/99.0.4844.51 Safari/537.36",xpyriment,legacy,legacy,0,uniform,0,0,0,0,24,24,24,0,0,31,31,31,31,31,0,31,0,,,,,,0,,04-02-22,04-02-22,09:00:45,Fri Mar 04 2022 09:00:45 GMT+0100 (közép-európai téli idő),The main experiment item,yes,0,0,C:/Users/rrics/Documents/!!ResearchBMECOGSCI/gnet,0,0,0,prototype1.png,no,mono,no,18,no,black,no,no,768,1175,3.5.6,legacy,xpyriment,osweb,1.3.13,0,space,space,space,,46936,46463,46936,,2,legacy,687,1280,24,720,24,0,0,1280,1646380881520,1024,2,48000,-16,experiment,p2sarrsha2.png,1,odd,Win32,143,158437,155423,143,143,414073,415580,409073,159957,409073,143,,,,,,visual_patterns,0,0,0,yes,1366
undefined,undefined,undefined,undefined,white,no,Mozilla,Netscape,"5.0 (Windows NT 10.0; Win64; x64) AppleWebKit/537.36 (KHTML, like Gecko) Chrome/99.0.4844.51 Safari/537.36",xpyriment,legacy,legacy,0,uniform,0,0,0,0,24,24,24,0,0,32,32,32,32,32,0,32,0,,,,,,0,,04-02-22,04-02-22,09:00:45,Fri Mar 04 2022 09:00:45 GMT+0100 (közép-európai téli idő),The main experiment item,yes,0,0,C:/Users/rrics/Documents/!!ResearchBMECOGSCI/gnet,0,0,0,prototype1.png,no,mono,no,18,no,black,no,no,768,1175,3.5.6,legacy,xpyriment,osweb,1.3.13,0,space,space,space,,46936,46463,46936,,2,legacy,687,1280,24,720,24,0,0,1280,1646380881520,1024,2,48000,-16,experiment,p5sarr1.png,1,odd,Win32,143,158437,155423,143,143,420604,422114,415606,159957,415606,143,,,,,,visual_patterns,0,0,0,yes,1366
undefined,undefined,undefined,undefined,white,no,Mozilla,Netscape,"5.0 (Windows NT 10.0; Win64; x64) AppleWebKit/537.36 (KHTML, like Gecko) Chrome/99.0.4844.51 Safari/537.36",xpyriment,legacy,legacy,0,uniform,0,0,0,0,24,24,24,0,0,33,33,33,33,33,0,33,0,,,,,,0,,04-02-22,04-02-22,09:00:45,Fri Mar 04 2022 09:00:45 GMT+0100 (közép-európai téli idő),The main experiment item,yes,0,0,C:/Users/rrics/Documents/!!ResearchBMECOGSCI/gnet,0,0,0,prototype1.png,no,mono,no,18,no,black,no,no,768,1175,3.5.6,legacy,xpyriment,osweb,1.3.13,0,space,space,space,,46936,46463,46936,,2,legacy,687,1280,24,720,24,0,0,1280,1646380881520,1024,2,48000,-16,experiment,p3sarrshacol1.png,1,odd,Win32,143,158437,155423,143,143,427126,428631,422125,159957,422125,143,,,,,,visual_patterns,0,0,0,yes,1366
undefined,undefined,undefined,undefined,white,no,Mozilla,Netscape,"5.0 (Windows NT 10.0; Win64; x64) AppleWebKit/537.36 (KHTML, like Gecko) Chrome/99.0.4844.51 Safari/537.36",xpyriment,legacy,legacy,0,uniform,0,0,0,0,24,24,24,0,0,34,34,34,34,34,0,34,0,,,,,,0,,04-02-22,04-02-22,09:00:45,Fri Mar 04 2022 09:00:45 GMT+0100 (közép-európai téli idő),The main experiment item,yes,0,0,C:/Users/rrics/Documents/!!ResearchBMECOGSCI/gnet,0,0,0,prototype1.png,no,mono,no,18,no,black,no,no,768,1175,3.5.6,legacy,xpyriment,osweb,1.3.13,0,space,space,space,,46936,46463,46936,,2,legacy,687,1280,24,720,24,0,0,1280,1646380881520,1024,2,48000,-16,experiment,prototype1.png,1,odd,Win32,143,158437,155423,143,143,433642,435150,428640,159957,428640,143,,,,,,visual_patterns,0,0,0,yes,1366
undefined,undefined,undefined,undefined,white,no,Mozilla,Netscape,"5.0 (Windows NT 10.0; Win64; x64) AppleWebKit/537.36 (KHTML, like Gecko) Chrome/99.0.4844.51 Safari/537.36",xpyriment,legacy,legacy,0,uniform,0,0,0,0,24,24,24,0,0,35,35,35,35,35,0,35,0,,,,,,0,,04-02-22,04-02-22,09:00:45,Fri Mar 04 2022 09:00:45 GMT+0100 (közép-európai téli idő),The main experiment item,yes,0,0,C:/Users/rrics/Documents/!!ResearchBMECOGSCI/gnet,0,0,0,prototype1.png,no,mono,no,18,no,black,no,no,768,1175,3.5.6,legacy,xpyriment,osweb,1.3.13,0,space,space,space,,46936,46463,46936,,2,legacy,687,1280,24,720,24,0,0,1280,1646380881520,1024,2,48000,-16,experiment,p4sarrshacol1.png,1,odd,Win32,143,158437,155423,143,143,440167,441682,435173,159957,435173,143,,,,,,visual_patterns,0,0,0,yes,1366
undefined,undefined,undefined,undefined,white,no,Mozilla,Netscape,"5.0 (Windows NT 10.0; Win64; x64) AppleWebKit/537.36 (KHTML, like Gecko) Chrome/99.0.4844.51 Safari/537.36",xpyriment,legacy,legacy,0,uniform,0,0,0,0,24,24,24,0,0,36,36,36,36,36,0,36,0,,,,,,0,,04-02-22,04-02-22,09:00:45,Fri Mar 04 2022 09:00:45 GMT+0100 (közép-európai téli idő),The main experiment item,yes,0,0,C:/Users/rrics/Documents/!!ResearchBMECOGSCI/gnet,0,0,0,prototype1.png,no,mono,no,18,no,black,no,no,768,1175,3.5.6,legacy,xpyriment,osweb,1.3.13,0,space,space,space,,46936,46463,46936,,2,legacy,687,1280,24,720,24,0,0,1280,1646380881520,1024,2,48000,-16,experiment,prototype3.png,1,odd,Win32,143,158437,155423,143,143,446696,448199,441694,159957,441694,143,,,,,,visual_patterns,0,0,0,yes,1366
undefined,undefined,undefined,undefined,white,no,Mozilla,Netscape,"5.0 (Windows NT 10.0; Win64; x64) AppleWebKit/537.36 (KHTML, like Gecko) Chrome/99.0.4844.51 Safari/537.36",xpyriment,legacy,legacy,0,uniform,0,0,0,0,24,24,24,0,0,37,37,37,37,37,0,37,0,,,,,,0,,04-02-22,04-02-22,09:00:45,Fri Mar 04 2022 09:00:45 GMT+0100 (közép-európai téli idő),The main experiment item,yes,0,0,C:/Users/rrics/Documents/!!ResearchBMECOGSCI/gnet,0,0,0,prototype1.png,no,mono,no,18,no,black,no,no,768,1175,3.5.6,legacy,xpyriment,osweb,1.3.13,0,space,space,space,,46936,46463,46936,,2,legacy,687,1280,24,720,24,0,0,1280,1646380881520,1024,2,48000,-16,experiment,prototype3.png,1,odd,Win32,143,158437,155423,143,143,453222,454733,448218,159957,448218,143,,,,,,visual_patterns,0,0,0,yes,1366
undefined,undefined,undefined,undefined,white,no,Mozilla,Netscape,"5.0 (Windows NT 10.0; Win64; x64) AppleWebKit/537.36 (KHTML, like Gecko) Chrome/99.0.4844.51 Safari/537.36",xpyriment,legacy,legacy,0,uniform,0,0,0,0,24,24,24,0,0,38,38,38,38,38,0,38,0,,,,,,0,,04-02-22,04-02-22,09:00:45,Fri Mar 04 2022 09:00:45 GMT+0100 (közép-európai téli idő),The main experiment item,yes,0,0,C:/Users/rrics/Documents/!!ResearchBMECOGSCI/gnet,0,0,0,prototype1.png,no,mono,no,18,no,black,no,no,768,1175,3.5.6,legacy,xpyriment,osweb,1.3.13,0,space,space,space,,46936,46463,46936,,2,legacy,687,1280,24,720,24,0,0,1280,1646380881520,1024,2,48000,-16,experiment,p7sarr1.png,1,odd,Win32,143,158437,155423,143,143,459740,461249,454741,159957,454741,143,,,,,,visual_patterns,0,0,0,yes,1366
undefined,undefined,undefined,undefined,white,no,Mozilla,Netscape,"5.0 (Windows NT 10.0; Win64; x64) AppleWebKit/537.36 (KHTML, like Gecko) Chrome/99.0.4844.51 Safari/537.36",xpyriment,legacy,legacy,0,uniform,0,0,0,0,24,24,24,0,0,39,39,39,39,39,0,39,0,,,,,,0,,04-02-22,04-02-22,09:00:45,Fri Mar 04 2022 09:00:45 GMT+0100 (közép-európai téli idő),The main experiment item,yes,0,0,C:/Users/rrics/Documents/!!ResearchBMECOGSCI/gnet,0,0,0,prototype1.png,no,mono,no,18,no,black,no,no,768,1175,3.5.6,legacy,xpyriment,osweb,1.3.13,0,space,space,space,,46936,46463,46936,,2,legacy,687,1280,24,720,24,0,0,1280,1646380881520,1024,2,48000,-16,experiment,p1sarrsha1.png,1,odd,Win32,143,158437,155423,143,143,466265,467766,461269,159957,461269,143,,,,,,visual_patterns,0,0,0,yes,1366
undefined,undefined,undefined,undefined,white,no,Mozilla,Netscape,"5.0 (Windows NT 10.0; Win64; x64) AppleWebKit/537.36 (KHTML, like Gecko) Chrome/99.0.4844.51 Safari/537.36",xpyriment,legacy,legacy,0,uniform,0,0,0,0,24,24,24,0,0,40,40,40,40,40,0,40,0,,,,,,0,,04-02-22,04-02-22,09:00:45,Fri Mar 04 2022 09:00:45 GMT+0100 (közép-európai téli idő),The main experiment item,yes,0,0,C:/Users/rrics/Documents/!!ResearchBMECOGSCI/gnet,0,0,0,prototype1.png,no,mono,no,18,no,black,no,no,768,1175,3.5.6,legacy,xpyriment,osweb,1.3.13,0,space,space,space,,46936,46463,46936,,2,legacy,687,1280,24,720,24,0,0,1280,1646380881520,1024,2,48000,-16,experiment,prototype5.png,1,odd,Win32,143,158437,155423,143,143,472777,474283,467774,159957,467774,143,,,,,,visual_patterns,0,0,0,yes,1366
undefined,undefined,undefined,undefined,white,no,Mozilla,Netscape,"5.0 (Windows NT 10.0; Win64; x64) AppleWebKit/537.36 (KHTML, like Gecko) Chrome/99.0.4844.51 Safari/537.36",xpyriment,legacy,legacy,0,uniform,0,0,0,0,24,24,24,0,0,41,41,41,41,41,0,41,0,,,,,,0,,04-02-22,04-02-22,09:00:45,Fri Mar 04 2022 09:00:45 GMT+0100 (közép-európai téli idő),The main experiment item,yes,0,0,C:/Users/rrics/Documents/!!ResearchBMECOGSCI/gnet,0,0,0,prototype1.png,no,mono,no,18,no,black,no,no,768,1175,3.5.6,legacy,xpyriment,osweb,1.3.13,0,space,space,space,,46936,46463,46936,,2,legacy,687,1280,24,720,24,0,0,1280,1646380881520,1024,2,48000,-16,experiment,p3sarrshacol2.png,1,odd,Win32,143,158437,155423,143,143,479292,480800,474290,159957,474290,143,,,,,,visual_patterns,0,0,0,yes,1366
undefined,undefined,undefined,undefined,white,no,Mozilla,Netscape,"5.0 (Windows NT 10.0; Win64; x64) AppleWebKit/537.36 (KHTML, like Gecko) Chrome/99.0.4844.51 Safari/537.36",xpyriment,legacy,legacy,0,uniform,0,0,0,0,24,24,24,0,0,42,42,42,42,42,0,42,0,,,,,,0,,04-02-22,04-02-22,09:00:45,Fri Mar 04 2022 09:00:45 GMT+0100 (közép-európai téli idő),The main experiment item,yes,0,0,C:/Users/rrics/Documents/!!ResearchBMECOGSCI/gnet,0,0,0,prototype1.png,no,mono,no,18,no,black,no,no,768,1175,3.5.6,legacy,xpyriment,osweb,1.3.13,0,space,space,space,,46936,46463,46936,,2,legacy,687,1280,24,720,24,0,0,1280,1646380881520,1024,2,48000,-16,experiment,p3sarrcol2.png,1,odd,Win32,143,158437,155423,143,143,485816,487317,480821,159957,480821,143,,,,,,visual_patterns,0,0,0,yes,1366
undefined,undefined,undefined,undefined,white,no,Mozilla,Netscape,"5.0 (Windows NT 10.0; Win64; x64) AppleWebKit/537.36 (KHTML, like Gecko) Chrome/99.0.4844.51 Safari/537.36",xpyriment,legacy,legacy,0,uniform,0,0,0,0,24,24,24,0,0,43,43,43,43,43,0,43,0,,,,,,0,,04-02-22,04-02-22,09:00:45,Fri Mar 04 2022 09:00:45 GMT+0100 (közép-európai téli idő),The main experiment item,yes,0,0,C:/Users/rrics/Documents/!!ResearchBMECOGSCI/gnet,0,0,0,prototype1.png,no,mono,no,18,no,black,no,no,768,1175,3.5.6,legacy,xpyriment,osweb,1.3.13,0,space,space,space,,46936,46463,46936,,2,legacy,687,1280,24,720,24,0,0,1280,1646380881520,1024,2,48000,-16,experiment,p3sarr2.png,1,odd,Win32,143,158437,155423,143,143,492331,493834,487331,159957,487331,143,,,,,,visual_patterns,0,0,0,yes,1366
undefined,undefined,undefined,undefined,white,no,Mozilla,Netscape,"5.0 (Windows NT 10.0; Win64; x64) AppleWebKit/537.36 (KHTML, like Gecko) Chrome/99.0.4844.51 Safari/537.36",xpyriment,legacy,legacy,0,uniform,0,0,0,0,24,24,24,0,0,44,44,44,44,44,0,44,0,,,,,,0,,04-02-22,04-02-22,09:00:45,Fri Mar 04 2022 09:00:45 GMT+0100 (közép-európai téli idő),The main experiment item,yes,0,0,C:/Users/rrics/Documents/!!ResearchBMECOGSCI/gnet,0,0,0,prototype1.png,no,mono,no,18,no,black,no,no,768,1175,3.5.6,legacy,xpyriment,osweb,1.3.13,0,space,space,space,,46936,46463,46936,,2,legacy,687,1280,24,720,24,0,0,1280,1646380881520,1024,2,48000,-16,experiment,p2sarrsha1.png,1,odd,Win32,143,158437,155423,143,143,498849,500351,493856,159957,493856,143,,,,,,visual_patterns,0,0,0,yes,1366
undefined,undefined,undefined,undefined,white,no,Mozilla,Netscape,"5.0 (Windows NT 10.0; Win64; x64) AppleWebKit/537.36 (KHTML, like Gecko) Chrome/99.0.4844.51 Safari/537.36",xpyriment,legacy,legacy,0,uniform,0,0,0,0,24,24,24,0,0,45,45,45,45,45,0,45,0,,,,,,0,,04-02-22,04-02-22,09:00:45,Fri Mar 04 2022 09:00:45 GMT+0100 (közép-európai téli idő),The main experiment item,yes,0,0,C:/Users/rrics/Documents/!!ResearchBMECOGSCI/gnet,0,0,0,prototype1.png,no,mono,no,18,no,black,no,no,768,1175,3.5.6,legacy,xpyriment,osweb,1.3.13,0,space,space,space,,46936,46463,46936,,2,legacy,687,1280,24,720,24,0,0,1280,1646380881520,1024,2,48000,-16,experiment,p4sarrsha1.png,1,odd,Win32,143,158437,155423,143,143,505360,506867,500360,159957,500360,143,,,,,,visual_patterns,0,0,0,yes,1366
undefined,undefined,undefined,undefined,white,no,Mozilla,Netscape,"5.0 (Windows NT 10.0; Win64; x64) AppleWebKit/537.36 (KHTML, like Gecko) Chrome/99.0.4844.51 Safari/537.36",xpyriment,legacy,legacy,0,uniform,0,0,0,0,24,24,24,0,0,46,46,46,46,46,0,46,0,,,,,,0,,04-02-22,04-02-22,09:00:45,Fri Mar 04 2022 09:00:45 GMT+0100 (közép-európai téli idő),The main experiment item,yes,0,0,C:/Users/rrics/Documents/!!ResearchBMECOGSCI/gnet,0,0,0,prototype1.png,no,mono,no,18,no,black,no,no,768,1175,3.5.6,legacy,xpyriment,osweb,1.3.13,0,space,space,space,,46936,46463,46936,,2,legacy,687,1280,24,720,24,0,0,1280,1646380881520,1024,2,48000,-16,experiment,p1sarrcol1.png,1,odd,Win32,143,158437,155423,143,143,511879,513385,506881,159957,506881,143,,,,,,visual_patterns,0,0,0,yes,1366
undefined,undefined,undefined,undefined,white,no,Mozilla,Netscape,"5.0 (Windows NT 10.0; Win64; x64) AppleWebKit/537.36 (KHTML, like Gecko) Chrome/99.0.4844.51 Safari/537.36",xpyriment,legacy,legacy,0,uniform,0,0,0,0,24,24,24,0,0,47,47,47,47,47,0,47,0,,,,,,0,,04-02-22,04-02-22,09:00:45,Fri Mar 04 2022 09:00:45 GMT+0100 (közép-európai téli idő),The main experiment item,yes,0,0,C:/Users/rrics/Documents/!!ResearchBMECOGSCI/gnet,0,0,0,prototype1.png,no,mono,no,18,no,black,no,no,768,1175,3.5.6,legacy,xpyriment,osweb,1.3.13,0,space,space,space,,46936,46463,46936,,2,legacy,687,1280,24,720,24,0,0,1280,1646380881520,1024,2,48000,-16,experiment,p1sarrsha2.png,1,odd,Win32,143,158437,155423,143,143,518398,519902,513396,159957,513396,143,,,,,,visual_patterns,0,0,0,yes,1366
undefined,undefined,undefined,undefined,white,no,Mozilla,Netscape,"5.0 (Windows NT 10.0; Win64; x64) AppleWebKit/537.36 (KHTML, like Gecko) Chrome/99.0.4844.51 Safari/537.36",xpyriment,legacy,legacy,0,uniform,0,0,0,0,24,24,24,0,0,48,48,48,48,48,0,48,0,,,,,,0,,04-02-22,04-02-22,09:00:45,Fri Mar 04 2022 09:00:45 GMT+0100 (közép-európai téli idő),The main experiment item,yes,0,0,C:/Users/rrics/Documents/!!ResearchBMECOGSCI/gnet,0,0,0,prototype1.png,no,mono,no,18,no,black,no,no,768,1175,3.5.6,legacy,xpyriment,osweb,1.3.13,0,space,space,space,,46936,46463,46936,,2,legacy,687,1280,24,720,24,0,0,1280,1646380881520,1024,2,48000,-16,experiment,p7sarr2.png,1,odd,Win32,143,158437,155423,143,143,524917,526419,519923,159957,519922,143,,,,,,visual_patterns,0,0,0,yes,1366
undefined,undefined,undefined,undefined,white,no,Mozilla,Netscape,"5.0 (Windows NT 10.0; Win64; x64) AppleWebKit/537.36 (KHTML, like Gecko) Chrome/99.0.4844.51 Safari/537.36",xpyriment,legacy,legacy,0,uniform,0,0,0,0,24,24,24,0,0,49,49,49,49,49,0,49,0,,,,,,0,,04-02-22,04-02-22,09:00:45,Fri Mar 04 2022 09:00:45 GMT+0100 (közép-európai téli idő),The main experiment item,yes,0,0,C:/Users/rrics/Documents/!!ResearchBMECOGSCI/gnet,0,0,0,prototype1.png,no,mono,no,18,no,black,no,no,768,1175,3.5.6,legacy,xpyriment,osweb,1.3.13,0,space,space,space,,46936,46463,46936,,2,legacy,687,1280,24,720,24,0,0,1280,1646380881520,1024,2,48000,-16,experiment,p4sarr1.png,1,odd,Win32,143,158437,155423,143,143,531429,532936,526428,159957,526428,143,,,,,,visual_patterns,0,0,0,yes,1366
undefined,undefined,undefined,undefined,white,no,Mozilla,Netscape,"5.0 (Windows NT 10.0; Win64; x64) AppleWebKit/537.36 (KHTML, like Gecko) Chrome/99.0.4844.51 Safari/537.36",xpyriment,legacy,legacy,0,uniform,0,0,0,0,24,24,24,0,0,50,50,50,50,50,0,50,0,,,,,,0,,04-02-22,04-02-22,09:00:45,Fri Mar 04 2022 09:00:45 GMT+0100 (közép-európai téli idő),The main experiment item,yes,0,0,C:/Users/rrics/Documents/!!ResearchBMECOGSCI/gnet,0,0,0,prototype1.png,no,mono,no,18,no,black,no,no,768,1175,3.5.6,legacy,xpyriment,osweb,1.3.13,0,space,space,space,,46936,46463,46936,,2,legacy,687,1280,24,720,24,0,0,1280,1646380881520,1024,2,48000,-16,experiment,p10sarr1.png,1,odd,Win32,143,158437,155423,143,143,537952,539469,532955,159957,532955,143,,,,,,visual_patterns,0,0,0,yes,1366
undefined,undefined,undefined,undefined,white,no,Mozilla,Netscape,"5.0 (Windows NT 10.0; Win64; x64) AppleWebKit/537.36 (KHTML, like Gecko) Chrome/99.0.4844.51 Safari/537.36",xpyriment,legacy,legacy,0,uniform,0,0,0,0,24,24,24,0,0,51,51,51,51,51,0,51,0,,,,,,0,,04-02-22,04-02-22,09:00:45,Fri Mar 04 2022 09:00:45 GMT+0100 (közép-európai téli idő),The main experiment item,yes,0,0,C:/Users/rrics/Documents/!!ResearchBMECOGSCI/gnet,0,0,0,prototype1.png,no,mono,no,18,no,black,no,no,768,1175,3.5.6,legacy,xpyriment,osweb,1.3.13,0,space,space,space,,46936,46463,46936,,2,legacy,687,1280,24,720,24,0,0,1280,1646380881520,1024,2,48000,-16,experiment,prototype3.png,1,odd,Win32,143,158437,155423,143,143,544477,545986,539474,159957,539474,143,,,,,,visual_patterns,0,0,0,yes,1366
undefined,undefined,undefined,undefined,white,no,Mozilla,Netscape,"5.0 (Windows NT 10.0; Win64; x64) AppleWebKit/537.36 (KHTML, like Gecko) Chrome/99.0.4844.51 Safari/537.36",xpyriment,legacy,legacy,0,uniform,0,0,0,0,24,24,24,0,0,52,52,52,52,52,0,52,0,,,,,,0,,04-02-22,04-02-22,09:00:45,Fri Mar 04 2022 09:00:45 GMT+0100 (közép-európai téli idő),The main experiment item,yes,0,0,C:/Users/rrics/Documents/!!ResearchBMECOGSCI/gnet,0,0,0,prototype1.png,no,mono,no,18,no,black,no,no,768,1175,3.5.6,legacy,xpyriment,osweb,1.3.13,0,space,space,space,,46936,46463,46936,,2,legacy,687,1280,24,720,24,0,0,1280,1646380881520,1024,2,48000,-16,experiment,p1sarr1.png,1,odd,Win32,143,158437,155423,143,143,551046,552553,546045,159957,546045,143,,,,,,visual_patterns,0,0,0,yes,1366
undefined,undefined,undefined,undefined,white,no,Mozilla,Netscape,"5.0 (Windows NT 10.0; Win64; x64) AppleWebKit/537.36 (KHTML, like Gecko) Chrome/99.0.4844.51 Safari/537.36",xpyriment,legacy,legacy,0,uniform,0,0,0,0,24,24,24,0,0,53,53,53,53,53,0,53,0,,,,,,0,,04-02-22,04-02-22,09:00:45,Fri Mar 04 2022 09:00:45 GMT+0100 (közép-európai téli idő),The main experiment item,yes,0,0,C:/Users/rrics/Documents/!!ResearchBMECOGSCI/gnet,0,0,0,prototype1.png,no,mono,no,18,no,black,no,no,768,1175,3.5.6,legacy,xpyriment,osweb,1.3.13,0,space,space,space,,46936,46463,46936,,2,legacy,687,1280,24,720,24,0,0,1280,1646380881520,1024,2,48000,-16,experiment,p1sarrcol2.png,1,odd,Win32,143,158437,155423,143,143,557565,559070,552563,159957,552563,143,,,,,,visual_patterns,0,0,0,yes,1366
undefined,undefined,undefined,undefined,white,no,Mozilla,Netscape,"5.0 (Windows NT 10.0; Win64; x64) AppleWebKit/537.36 (KHTML, like Gecko) Chrome/99.0.4844.51 Safari/537.36",xpyriment,legacy,legacy,0,uniform,0,0,0,0,24,24,24,0,0,54,54,54,54,54,0,54,0,,,,,,0,,04-02-22,04-02-22,09:00:45,Fri Mar 04 2022 09:00:45 GMT+0100 (közép-európai téli idő),The main experiment item,yes,0,0,C:/Users/rrics/Documents/!!ResearchBMECOGSCI/gnet,0,0,0,prototype1.png,no,mono,no,18,no,black,no,no,768,1175,3.5.6,legacy,xpyriment,osweb,1.3.13,0,space,space,space,,46936,46463,46936,,2,legacy,687,1280,24,720,24,0,0,1280,1646380881520,1024,2,48000,-16,experiment,p2sarrcol2.png,1,odd,Win32,143,158437,155423,143,143,564085,565587,559090,159957,559090,143,,,,,,visual_patterns,0,0,0,yes,1366
undefined,undefined,undefined,undefined,white,no,Mozilla,Netscape,"5.0 (Windows NT 10.0; Win64; x64) AppleWebKit/537.36 (KHTML, like Gecko) Chrome/99.0.4844.51 Safari/537.36",xpyriment,legacy,legacy,0,uniform,0,0,0,0,24,24,24,0,0,55,55,55,55,55,0,55,0,,,,,,0,,04-02-22,04-02-22,09:00:45,Fri Mar 04 2022 09:00:45 GMT+0100 (közép-európai téli idő),The main experiment item,yes,0,0,C:/Users/rrics/Documents/!!ResearchBMECOGSCI/gnet,0,0,0,prototype1.png,no,mono,no,18,no,black,no,no,768,1175,3.5.6,legacy,xpyriment,osweb,1.3.13,0,space,space,space,,46936,46463,46936,,2,legacy,687,1280,24,720,24,0,0,1280,1646380881520,1024,2,48000,-16,experiment,prototype4.png,1,odd,Win32,143,158437,155423,143,143,570599,572104,565597,159957,565597,143,,,,,,visual_patterns,0,0,0,yes,1366
undefined,undefined,undefined,undefined,white,no,Mozilla,Netscape,"5.0 (Windows NT 10.0; Win64; x64) AppleWebKit/537.36 (KHTML, like Gecko) Chrome/99.0.4844.51 Safari/537.36",xpyriment,legacy,legacy,0,uniform,0,0,0,0,24,24,24,0,0,56,56,56,56,56,0,56,0,,,,,,0,,04-02-22,04-02-22,09:00:45,Fri Mar 04 2022 09:00:45 GMT+0100 (közép-európai téli idő),The main experiment item,yes,0,0,C:/Users/rrics/Documents/!!ResearchBMECOGSCI/gnet,0,0,0,prototype1.png,no,mono,no,18,no,black,no,no,768,1175,3.5.6,legacy,xpyriment,osweb,1.3.13,0,space,space,space,,46936,46463,46936,,2,legacy,687,1280,24,720,24,0,0,1280,1646380881520,1024,2,48000,-16,experiment,p2sarrshacol1.png,1,odd,Win32,143,158437,155423,143,143,577121,578638,572126,159957,572126,143,,,,,,visual_patterns,0,0,0,yes,1366
undefined,undefined,undefined,undefined,white,no,Mozilla,Netscape,"5.0 (Windows NT 10.0; Win64; x64) AppleWebKit/537.36 (KHTML, like Gecko) Chrome/99.0.4844.51 Safari/537.36",xpyriment,legacy,legacy,0,uniform,0,0,0,0,24,24,24,0,0,57,57,57,57,57,0,57,0,,,,,,0,,04-02-22,04-02-22,09:00:45,Fri Mar 04 2022 09:00:45 GMT+0100 (közép-európai téli idő),The main experiment item,yes,0,0,C:/Users/rrics/Documents/!!ResearchBMECOGSCI/gnet,0,0,0,prototype1.png,no,mono,no,18,no,black,no,no,768,1175,3.5.6,legacy,xpyriment,osweb,1.3.13,0,space,space,space,,46936,46463,46936,,2,legacy,687,1280,24,720,24,0,0,1280,1646380881520,1024,2,48000,-16,experiment,prototype5.png,1,odd,Win32,143,158437,155423,143,143,583661,585172,578656,159957,578656,143,,,,,,visual_patterns,0,0,0,yes,1366
undefined,undefined,undefined,undefined,white,no,Mozilla,Netscape,"5.0 (Windows NT 10.0; Win64; x64) AppleWebKit/537.36 (KHTML, like Gecko) Chrome/99.0.4844.51 Safari/537.36",xpyriment,legacy,legacy,0,uniform,0,0,0,0,24,24,24,0,0,58,58,58,58,58,0,58,0,,,,,,0,,04-02-22,04-02-22,09:00:45,Fri Mar 04 2022 09:00:45 GMT+0100 (közép-európai téli idő),The main experiment item,yes,0,0,C:/Users/rrics/Documents/!!ResearchBMECOGSCI/gnet,0,0,0,prototype1.png,no,mono,no,18,no,black,no,no,768,1175,3.5.6,legacy,xpyriment,osweb,1.3.13,0,space,space,space,,46936,46463,46936,,2,legacy,687,1280,24,720,24,0,0,1280,1646380881520,1024,2,48000,-16,experiment,prototype2.png,1,odd,Win32,143,158437,155423,143,143,590186,591688,585191,159957,585191,143,,,,,,visual_patterns,0,0,0,yes,1366
undefined,undefined,undefined,undefined,white,no,Mozilla,Netscape,"5.0 (Windows NT 10.0; Win64; x64) AppleWebKit/537.36 (KHTML, like Gecko) Chrome/99.0.4844.51 Safari/537.36",xpyriment,legacy,legacy,0,uniform,0,0,0,0,24,24,24,0,0,59,59,59,59,59,0,59,0,,,,,,0,,04-02-22,04-02-22,09:00:45,Fri Mar 04 2022 09:00:45 GMT+0100 (közép-európai téli idő),The main experiment item,yes,0,0,C:/Users/rrics/Documents/!!ResearchBMECOGSCI/gnet,0,0,0,prototype1.png,no,mono,no,18,no,black,no,no,768,1175,3.5.6,legacy,xpyriment,osweb,1.3.13,0,space,space,space,,46936,46463,46936,,2,legacy,687,1280,24,720,24,0,0,1280,1646380881520,1024,2,48000,-16,experiment,prototype5.png,1,odd,Win32,143,158437,155423,143,143,596696,598205,591694,159957,591694,143,,,,,,visual_patterns,0,0,0,yes,1366
undefined,undefined,undefined,undefined,white,no,Mozilla,Netscape,"5.0 (Windows NT 10.0; Win64; x64) AppleWebKit/537.36 (KHTML, like Gecko) Chrome/99.0.4844.51 Safari/537.36",xpyriment,legacy,legacy,0,uniform,0,0,0,0,24,24,24,0,0,60,60,60,60,60,0,60,0,,,,,,0,,04-02-22,04-02-22,09:00:45,Fri Mar 04 2022 09:00:45 GMT+0100 (közép-európai téli idő),The main experiment item,yes,0,0,C:/Users/rrics/Documents/!!ResearchBMECOGSCI/gnet,0,0,0,prototype1.png,no,mono,no,18,no,black,no,no,768,1175,3.5.6,legacy,xpyriment,osweb,1.3.13,0,space,space,space,,46936,46463,46936,,2,legacy,687,1280,24,720,24,0,0,1280,1646380881520,1024,2,48000,-16,experiment,p1sarrshacol2.png,1,odd,Win32,143,158437,155423,143,143,603213,604722,598212,159957,598212,143,,,,,,visual_patterns,0,0,0,yes,1366
undefined,undefined,undefined,undefined,white,no,Mozilla,Netscape,"5.0 (Windows NT 10.0; Win64; x64) AppleWebKit/537.36 (KHTML, like Gecko) Chrome/99.0.4844.51 Safari/537.36",xpyriment,legacy,legacy,0,uniform,0,0,0,0,24,24,24,0,0,61,61,61,61,61,0,61,0,,,,,,0,,04-02-22,04-02-22,09:00:45,Fri Mar 04 2022 09:00:45 GMT+0100 (közép-európai téli idő),The main experiment item,yes,0,0,C:/Users/rrics/Documents/!!ResearchBMECOGSCI/gnet,0,0,0,prototype1.png,no,mono,no,18,no,black,no,no,768,1175,3.5.6,legacy,xpyriment,osweb,1.3.13,0,space,space,space,,46936,46463,46936,,2,legacy,687,1280,24,720,24,0,0,1280,1646380881520,1024,2,48000,-16,experiment,p2sarrcol1.png,1,odd,Win32,143,158437,155423,143,143,609732,611239,604730,159957,604730,143,,,,,,visual_patterns,0,0,0,yes,1366
undefined,undefined,undefined,undefined,white,no,Mozilla,Netscape,"5.0 (Windows NT 10.0; Win64; x64) AppleWebKit/537.36 (KHTML, like Gecko) Chrome/99.0.4844.51 Safari/537.36",xpyriment,legacy,legacy,0,uniform,0,0,0,0,24,24,24,0,0,62,62,62,62,62,0,62,0,,,,,,0,,04-02-22,04-02-22,09:00:45,Fri Mar 04 2022 09:00:45 GMT+0100 (közép-európai téli idő),The main experiment item,yes,0,0,C:/Users/rrics/Documents/!!ResearchBMECOGSCI/gnet,0,0,0,prototype1.png,no,mono,no,18,no,black,no,no,768,1175,3.5.6,legacy,xpyriment,osweb,1.3.13,0,space,space,space,,46936,46463,46936,,2,legacy,687,1280,24,720,24,0,0,1280,1646380881520,1024,2,48000,-16,experiment,p5sarr2.png,1,odd,Win32,143,158437,155423,143,143,616255,617756,611260,159957,611260,143,,,,,,visual_patterns,0,0,0,yes,1366
undefined,undefined,undefined,undefined,white,no,Mozilla,Netscape,"5.0 (Windows NT 10.0; Win64; x64) AppleWebKit/537.36 (KHTML, like Gecko) Chrome/99.0.4844.51 Safari/537.36",xpyriment,legacy,legacy,0,uniform,0,0,0,0,24,24,24,0,0,63,63,63,63,63,0,63,0,,,,,,0,,04-02-22,04-02-22,09:00:45,Fri Mar 04 2022 09:00:45 GMT+0100 (közép-európai téli idő),The main experiment item,yes,0,0,C:/Users/rrics/Documents/!!ResearchBMECOGSCI/gnet,0,0,0,prototype1.png,no,mono,no,18,no,black,no,no,768,1175,3.5.6,legacy,xpyriment,osweb,1.3.13,0,space,space,space,,46936,46463,46936,,2,legacy,687,1280,24,720,24,0,0,1280,1646380881520,1024,2,48000,-16,experiment,p10sarr2.png,1,odd,Win32,143,158437,155423,143,143,622767,624273,617766,159957,617766,143,,,,,,visual_patterns,0,0,0,yes,1366
undefined,undefined,undefined,undefined,white,no,Mozilla,Netscape,"5.0 (Windows NT 10.0; Win64; x64) AppleWebKit/537.36 (KHTML, like Gecko) Chrome/99.0.4844.51 Safari/537.36",xpyriment,legacy,legacy,0,uniform,0,0,0,0,24,24,24,0,0,64,64,64,64,64,0,64,0,,,,,,0,,04-02-22,04-02-22,09:00:45,Fri Mar 04 2022 09:00:45 GMT+0100 (közép-európai téli idő),The main experiment item,yes,0,0,C:/Users/rrics/Documents/!!ResearchBMECOGSCI/gnet,0,0,0,prototype1.png,no,mono,no,18,no,black,no,no,768,1175,3.5.6,legacy,xpyriment,osweb,1.3.13,0,space,space,space,,46936,46463,46936,,2,legacy,687,1280,24,720,24,0,0,1280,1646380881520,1024,2,48000,-16,experiment,prototype1.png,1,odd,Win32,143,158437,155423,143,143,629291,630807,624288,159957,624288,143,,,,,,visual_patterns,0,0,0,yes,1366
undefined,undefined,undefined,undefined,white,no,Mozilla,Netscape,"5.0 (Windows NT 10.0; Win64; x64) AppleWebKit/537.36 (KHTML, like Gecko) Chrome/99.0.4844.51 Safari/537.36",xpyriment,legacy,legacy,0,uniform,0,0,0,0,24,24,24,0,0,65,65,65,65,65,0,65,0,,,,,,0,,04-02-22,04-02-22,09:00:45,Fri Mar 04 2022 09:00:45 GMT+0100 (közép-európai téli idő),The main experiment item,yes,0,0,C:/Users/rrics/Documents/!!ResearchBMECOGSCI/gnet,0,0,0,prototype1.png,no,mono,no,18,no,black,no,no,768,1175,3.5.6,legacy,xpyriment,osweb,1.3.13,0,space,space,space,,46936,46463,46936,,2,legacy,687,1280,24,720,24,0,0,1280,1646380881520,1024,2,48000,-16,experiment,prototype4.png,1,odd,Win32,143,158437,155423,143,143,635817,637324,630814,159957,630814,143,,,,,,visual_patterns,0,0,0,yes,1366
undefined,undefined,undefined,undefined,white,no,Mozilla,Netscape,"5.0 (Windows NT 10.0; Win64; x64) AppleWebKit/537.36 (KHTML, like Gecko) Chrome/99.0.4844.51 Safari/537.36",xpyriment,legacy,legacy,0,uniform,0,0,0,0,24,24,24,0,0,66,66,66,66,66,0,66,0,,,,,,0,,04-02-22,04-02-22,09:00:45,Fri Mar 04 2022 09:00:45 GMT+0100 (közép-európai téli idő),The main experiment item,yes,0,0,C:/Users/rrics/Documents/!!ResearchBMECOGSCI/gnet,0,0,0,prototype1.png,no,mono,no,18,no,black,no,no,768,1175,3.5.6,legacy,xpyriment,osweb,1.3.13,0,space,space,space,,46936,46463,46936,,2,legacy,687,1280,24,720,24,0,0,1280,1646380881520,1024,2,48000,-16,experiment,p2sarrshacol2.png,1,odd,Win32,143,158437,155423,143,143,642336,643841,637334,159957,637334,143,,,,,,visual_patterns,0,0,0,yes,1366
undefined,undefined,undefined,undefined,white,no,Mozilla,Netscape,"5.0 (Windows NT 10.0; Win64; x64) AppleWebKit/537.36 (KHTML, like Gecko) Chrome/99.0.4844.51 Safari/537.36",xpyriment,legacy,legacy,0,uniform,0,0,0,0,24,24,24,0,0,67,67,67,67,67,0,67,0,,,,,,0,,04-02-22,04-02-22,09:00:45,Fri Mar 04 2022 09:00:45 GMT+0100 (közép-európai téli idő),The main experiment item,yes,0,0,C:/Users/rrics/Documents/!!ResearchBMECOGSCI/gnet,0,0,0,prototype1.png,no,mono,no,18,no,black,no,no,768,1175,3.5.6,legacy,xpyriment,osweb,1.3.13,0,space,space,space,,46936,46463,46936,,2,legacy,687,1280,24,720,24,0,0,1280,1646380881520,1024,2,48000,-16,experiment,p1sarr2.png,1,odd,Win32,143,158437,155423,143,143,648848,650358,643848,159957,643848,143,,,,,,visual_patterns,0,0,0,yes,1366
undefined,undefined,undefined,undefined,white,no,Mozilla,Netscape,"5.0 (Windows NT 10.0; Win64; x64) AppleWebKit/537.36 (KHTML, like Gecko) Chrome/99.0.4844.51 Safari/537.36",xpyriment,legacy,legacy,0,uniform,0,0,0,0,24,24,24,0,0,68,68,68,68,68,0,68,0,,,,,,0,,04-02-22,04-02-22,09:00:45,Fri Mar 04 2022 09:00:45 GMT+0100 (közép-európai téli idő),The main experiment item,yes,0,0,C:/Users/rrics/Documents/!!ResearchBMECOGSCI/gnet,0,0,0,prototype1.png,no,mono,no,18,no,black,no,no,768,1175,3.5.6,legacy,xpyriment,osweb,1.3.13,0,space,space,space,,46936,46463,46936,,2,legacy,687,1280,24,720,24,0,0,1280,1646380881520,1024,2,48000,-16,experiment,p6sarr2.png,1,odd,Win32,143,158437,155423,143,143,655366,656874,650366,159957,650366,143,,,,,,visual_patterns,0,0,0,yes,1366
undefined,undefined,undefined,undefined,white,no,Mozilla,Netscape,"5.0 (Windows NT 10.0; Win64; x64) AppleWebKit/537.36 (KHTML, like Gecko) Chrome/99.0.4844.51 Safari/537.36",xpyriment,legacy,legacy,0,uniform,0,0,0,0,24,24,24,0,0,69,69,69,69,69,0,69,0,,,,,,0,,04-02-22,04-02-22,09:00:45,Fri Mar 04 2022 09:00:45 GMT+0100 (közép-európai téli idő),The main experiment item,yes,0,0,C:/Users/rrics/Documents/!!ResearchBMECOGSCI/gnet,0,0,0,prototype1.png,no,mono,no,18,no,black,no,no,768,1175,3.5.6,legacy,xpyriment,osweb,1.3.13,0,space,space,space,,46936,46463,46936,,2,legacy,687,1280,24,720,24,0,0,1280,1646380881520,1024,2,48000,-16,experiment,prototype2.png,1,odd,Win32,143,158437,155423,143,143,661881,663391,656881,159957,656881,143,,,,,,visual_patterns,0,0,0,yes,1366
undefined,undefined,undefined,undefined,white,no,Mozilla,Netscape,"5.0 (Windows NT 10.0; Win64; x64) AppleWebKit/537.36 (KHTML, like Gecko) Chrome/99.0.4844.51 Safari/537.36",xpyriment,legacy,legacy,0,uniform,0,0,0,0,24,24,24,0,0,70,70,70,70,70,0,70,0,,,,,,0,,04-02-22,04-02-22,09:00:45,Fri Mar 04 2022 09:00:45 GMT+0100 (közép-európai téli idő),The main experiment item,yes,0,0,C:/Users/rrics/Documents/!!ResearchBMECOGSCI/gnet,0,0,0,prototype1.png,no,mono,no,18,no,black,no,no,768,1175,3.5.6,legacy,xpyriment,osweb,1.3.13,0,space,space,space,,46936,46463,46936,,2,legacy,687,1280,24,720,24,0,0,1280,1646380881520,1024,2,48000,-16,experiment,p1sarrshacol1.png,1,odd,Win32,143,158437,155423,143,143,668408,669925,663411,159957,663411,143,,,,,,visual_patterns,0,0,0,yes,1366
undefined,undefined,undefined,undefined,white,no,Mozilla,Netscape,"5.0 (Windows NT 10.0; Win64; x64) AppleWebKit/537.36 (KHTML, like Gecko) Chrome/99.0.4844.51 Safari/537.36",xpyriment,legacy,legacy,0,uniform,0,0,0,0,24,24,24,0,0,71,71,71,71,71,0,71,0,,,,,,0,,04-02-22,04-02-22,09:00:45,Fri Mar 04 2022 09:00:45 GMT+0100 (közép-európai téli idő),The main experiment item,yes,0,0,C:/Users/rrics/Documents/!!ResearchBMECOGSCI/gnet,0,0,0,prototype1.png,no,mono,no,18,no,black,no,no,768,1175,3.5.6,legacy,xpyriment,osweb,1.3.13,0,space,space,space,,46936,46463,46936,,2,legacy,687,1280,24,720,24,0,0,1280,1646380881520,1024,2,48000,-16,experiment,prototype1.png,1,odd,Win32,143,158437,155423,143,143,674935,676442,669934,159957,669934,143,,,,,,visual_patterns,0,0,0,yes,1366
undefined,undefined,undefined,undefined,white,no,Mozilla,Netscape,"5.0 (Windows NT 10.0; Win64; x64) AppleWebKit/537.36 (KHTML, like Gecko) Chrome/99.0.4844.51 Safari/537.36",xpyriment,legacy,legacy,0,uniform,0,0,0,0,24,24,24,0,0,72,72,72,72,72,0,72,0,,,,,,0,,04-02-22,04-02-22,09:00:45,Fri Mar 04 2022 09:00:45 GMT+0100 (közép-európai téli idő),The main experiment item,yes,0,0,C:/Users/rrics/Documents/!!ResearchBMECOGSCI/gnet,0,0,0,prototype1.png,no,mono,no,18,no,black,no,no,768,1175,3.5.6,legacy,xpyriment,osweb,1.3.13,0,space,space,space,,46936,46463,46936,,2,legacy,687,1280,24,720,24,0,0,1280,1646380881520,1024,2,48000,-16,experiment,prototype5.png,1,odd,Win32,143,158437,155423,143,143,681452,682959,676447,159957,676447,143,,,,,,visual_patterns,0,0,0,yes,1366
undefined,undefined,undefined,undefined,white,no,Mozilla,Netscape,"5.0 (Windows NT 10.0; Win64; x64) AppleWebKit/537.36 (KHTML, like Gecko) Chrome/99.0.4844.51 Safari/537.36",xpyriment,legacy,legacy,0,uniform,0,0,0,0,24,24,24,0,0,73,73,73,73,73,0,73,0,,,,,,0,,04-02-22,04-02-22,09:00:45,Fri Mar 04 2022 09:00:45 GMT+0100 (közép-európai téli idő),The main experiment item,yes,0,0,C:/Users/rrics/Documents/!!ResearchBMECOGSCI/gnet,0,0,0,prototype1.png,no,mono,no,18,no,black,no,no,768,1175,3.5.6,legacy,xpyriment,osweb,1.3.13,0,space,space,space,,46936,46463,46936,,2,legacy,687,1280,24,720,24,0,0,1280,1646380881520,1024,2,48000,-16,experiment,prototype3.png,1,odd,Win32,143,158437,155423,143,143,687969,689476,682967,159957,682967,143,,,,,,visual_patterns,0,0,0,yes,1366
undefined,undefined,undefined,undefined,white,no,Mozilla,Netscape,"5.0 (Windows NT 10.0; Win64; x64) AppleWebKit/537.36 (KHTML, like Gecko) Chrome/99.0.4844.51 Safari/537.36",xpyriment,legacy,legacy,0,uniform,0,0,0,0,24,24,24,0,0,74,74,74,74,74,0,74,0,,,,,,0,,04-02-22,04-02-22,09:00:45,Fri Mar 04 2022 09:00:45 GMT+0100 (közép-európai téli idő),The main experiment item,yes,0,0,C:/Users/rrics/Documents/!!ResearchBMECOGSCI/gnet,0,0,0,prototype1.png,no,mono,no,18,no,black,no,no,768,1175,3.5.6,legacy,xpyriment,osweb,1.3.13,0,space,space,space,,46936,46463,46936,,2,legacy,687,1280,24,720,24,0,0,1280,1646380881520,1024,2,48000,-16,experiment,prototype2.png,1,odd,Win32,143,158437,155423,143,143,694490,695993,689491,159957,689491,143,,,,,,visual_patterns,0,0,0,yes,1366
undefined,undefined,undefined,undefined,white,no,Mozilla,Netscape,"5.0 (Windows NT 10.0; Win64; x64) AppleWebKit/537.36 (KHTML, like Gecko) Chrome/99.0.4844.51 Safari/537.36",xpyriment,legacy,legacy,0,uniform,0,0,0,0,24,24,24,0,0,74,74,74,74,74,0,74,0,0,0,0,0,0,0,0,04-02-22,04-02-22,09:00:45,Fri Mar 04 2022 09:00:45 GMT+0100 (közép-európai téli idő),The main experiment item,yes,0,0,C:/Users/rrics/Documents/!!ResearchBMECOGSCI/gnet,0,0,0,prototype1.png,no,mono,no,18,no,black,no,no,768,1175,3.5.6,legacy,xpyriment,osweb,1.3.13,0,space,space,space,space,66012,46463,46936,66012,2,legacy,687,1280,24,720,24,0,0,1280,1646380881520,1024,2,48000,-16,experiment,p5sarrsha3.png,1,odd,Win32,143,158437,155423,143,143,694490,695993,689491,159957,689491,143,765026,766529,762027,695998,762027,visual_patterns,0,0,0,yes,1366
undefined,undefined,undefined,undefined,white,no,Mozilla,Netscape,"5.0 (Windows NT 10.0; Win64; x64) AppleWebKit/537.36 (KHTML, like Gecko) Chrome/99.0.4844.51 Safari/537.36",xpyriment,legacy,legacy,0,uniform,0,0,0,0,24,24,24,0,0,74,74,74,74,74,0,74,0,1,1,1,1,1,0,1,04-02-22,04-02-22,09:00:45,Fri Mar 04 2022 09:00:45 GMT+0100 (közép-európai téli idő),The main experiment item,yes,0,0,C:/Users/rrics/Documents/!!ResearchBMECOGSCI/gnet,0,0,0,prototype1.png,no,mono,no,18,no,black,no,no,768,1175,3.5.6,legacy,xpyriment,osweb,1.3.13,0,space,space,space,space,66012,46463,46936,66012,2,legacy,687,1280,24,720,24,0,0,1280,1646380881520,1024,2,48000,-16,experiment,p2sarrshacol1.png,1,odd,Win32,143,158437,155423,143,143,694490,695993,689491,159957,689491,143,769537,771046,766536,695998,766536,visual_patterns,0,0,0,yes,1366
undefined,undefined,undefined,undefined,white,no,Mozilla,Netscape,"5.0 (Windows NT 10.0; Win64; x64) AppleWebKit/537.36 (KHTML, like Gecko) Chrome/99.0.4844.51 Safari/537.36",xpyriment,legacy,legacy,0,uniform,0,0,0,0,24,24,24,0,0,74,74,74,74,74,0,74,0,2,2,2,2,2,0,2,04-02-22,04-02-22,09:00:45,Fri Mar 04 2022 09:00:45 GMT+0100 (közép-európai téli idő),The main experiment item,yes,0,0,C:/Users/rrics/Documents/!!ResearchBMECOGSCI/gnet,0,0,0,prototype1.png,no,mono,no,18,no,black,no,no,768,1175,3.5.6,legacy,xpyriment,osweb,1.3.13,0,space,space,space,space,66012,46463,46936,66012,2,legacy,687,1280,24,720,24,0,0,1280,1646380881520,1024,2,48000,-16,experiment,p4sarr4.png,1,odd,Win32,143,158437,155423,143,143,694490,695993,689491,159957,689491,143,774066,775579,771070,695998,771070,visual_patterns,0,0,0,yes,1366
undefined,undefined,undefined,undefined,white,no,Mozilla,Netscape,"5.0 (Windows NT 10.0; Win64; x64) AppleWebKit/537.36 (KHTML, like Gecko) Chrome/99.0.4844.51 Safari/537.36",xpyriment,legacy,legacy,0,uniform,0,0,0,0,24,24,24,0,0,74,74,74,74,74,0,74,0,3,3,3,3,3,0,3,04-02-22,04-02-22,09:00:45,Fri Mar 04 2022 09:00:45 GMT+0100 (közép-európai téli idő),The main experiment item,yes,0,0,C:/Users/rrics/Documents/!!ResearchBMECOGSCI/gnet,0,0,0,prototype1.png,no,mono,no,18,no,black,no,no,768,1175,3.5.6,legacy,xpyriment,osweb,1.3.13,0,space,space,space,space,66012,46463,46936,66012,2,legacy,687,1280,24,720,24,0,0,1280,1646380881520,1024,2,48000,-16,experiment,p5sarrsha2.png,1,odd,Win32,143,158437,155423,143,143,694490,695993,689491,159957,689491,143,778590,780097,775589,695998,775589,visual_patterns,0,0,0,yes,1366
undefined,undefined,undefined,undefined,white,no,Mozilla,Netscape,"5.0 (Windows NT 10.0; Win64; x64) AppleWebKit/537.36 (KHTML, like Gecko) Chrome/99.0.4844.51 Safari/537.36",xpyriment,legacy,legacy,0,uniform,0,0,0,0,24,24,24,0,0,74,74,74,74,74,0,74,0,4,4,4,4,4,0,4,04-02-22,04-02-22,09:00:45,Fri Mar 04 2022 09:00:45 GMT+0100 (közép-európai téli idő),The main experiment item,yes,0,0,C:/Users/rrics/Documents/!!ResearchBMECOGSCI/gnet,0,0,0,prototype1.png,no,mono,no,18,no,black,no,no,768,1175,3.5.6,legacy,xpyriment,osweb,1.3.13,0,space,space,space,space,66012,46463,46936,66012,2,legacy,687,1280,24,720,24,0,0,1280,1646380881520,1024,2,48000,-16,experiment,p7sarr2.png,1,odd,Win32,143,158437,155423,143,143,694490,695993,689491,159957,689491,143,783109,784613,780108,695998,780107,visual_patterns,0,0,0,yes,1366
undefined,undefined,undefined,undefined,white,no,Mozilla,Netscape,"5.0 (Windows NT 10.0; Win64; x64) AppleWebKit/537.36 (KHTML, like Gecko) Chrome/99.0.4844.51 Safari/537.36",xpyriment,legacy,legacy,0,uniform,0,0,0,0,24,24,24,0,0,74,74,74,74,74,0,74,0,5,5,5,5,5,0,5,04-02-22,04-02-22,09:00:45,Fri Mar 04 2022 09:00:45 GMT+0100 (közép-európai téli idő),The main experiment item,yes,0,0,C:/Users/rrics/Documents/!!ResearchBMECOGSCI/gnet,0,0,0,prototype1.png,no,mono,no,18,no,black,no,no,768,1175,3.5.6,legacy,xpyriment,osweb,1.3.13,0,space,space,space,space,66012,46463,46936,66012,2,legacy,687,1280,24,720,24,0,0,1280,1646380881520,1024,2,48000,-16,experiment,p1sarrsha4.png,1,odd,Win32,143,158437,155423,143,143,694490,695993,689491,159957,689491,143,787627,789130,784624,695998,784624,visual_patterns,0,0,0,yes,1366
undefined,undefined,undefined,undefined,white,no,Mozilla,Netscape,"5.0 (Windows NT 10.0; Win64; x64) AppleWebKit/537.36 (KHTML, like Gecko) Chrome/99.0.4844.51 Safari/537.36",xpyriment,legacy,legacy,0,uniform,0,0,0,0,24,24,24,0,0,74,74,74,74,74,0,74,0,6,6,6,6,6,0,6,04-02-22,04-02-22,09:00:45,Fri Mar 04 2022 09:00:45 GMT+0100 (közép-európai téli idő),The main experiment item,yes,0,0,C:/Users/rrics/Documents/!!ResearchBMECOGSCI/gnet,0,0,0,prototype1.png,no,mono,no,18,no,black,no,no,768,1175,3.5.6,legacy,xpyriment,osweb,1.3.13,0,space,space,space,space,66012,46463,46936,66012,2,legacy,687,1280,24,720,24,0,0,1280,1646380881520,1024,2,48000,-16,experiment,p3sarrcol2.png,1,odd,Win32,143,158437,155423,143,143,694490,695993,689491,159957,689491,143,792143,793647,789141,695998,789141,visual_patterns,0,0,0,yes,1366
undefined,undefined,undefined,undefined,white,no,Mozilla,Netscape,"5.0 (Windows NT 10.0; Win64; x64) AppleWebKit/537.36 (KHTML, like Gecko) Chrome/99.0.4844.51 Safari/537.36",xpyriment,legacy,legacy,0,uniform,0,0,0,0,24,24,24,0,0,74,74,74,74,74,0,74,0,7,7,7,7,7,0,7,04-02-22,04-02-22,09:00:45,Fri Mar 04 2022 09:00:45 GMT+0100 (közép-európai téli idő),The main experiment item,yes,0,0,C:/Users/rrics/Documents/!!ResearchBMECOGSCI/gnet,0,0,0,prototype1.png,no,mono,no,18,no,black,no,no,768,1175,3.5.6,legacy,xpyriment,osweb,1.3.13,0,space,space,space,space,66012,46463,46936,66012,2,legacy,687,1280,24,720,24,0,0,1280,1646380881520,1024,2,48000,-16,experiment,p3sarrcol3.png,1,odd,Win32,143,158437,155423,143,143,694490,695993,689491,159957,689491,143,796659,798164,793657,695998,793657,visual_patterns,0,0,0,yes,1366
undefined,undefined,undefined,undefined,white,no,Mozilla,Netscape,"5.0 (Windows NT 10.0; Win64; x64) AppleWebKit/537.36 (KHTML, like Gecko) Chrome/99.0.4844.51 Safari/537.36",xpyriment,legacy,legacy,0,uniform,0,0,0,0,24,24,24,0,0,74,74,74,74,74,0,74,0,8,8,8,8,8,0,8,04-02-22,04-02-22,09:00:45,Fri Mar 04 2022 09:00:45 GMT+0100 (közép-európai téli idő),The main experiment item,yes,0,0,C:/Users/rrics/Documents/!!ResearchBMECOGSCI/gnet,0,0,0,prototype1.png,no,mono,no,18,no,black,no,no,768,1175,3.5.6,legacy,xpyriment,osweb,1.3.13,0,space,space,space,space,66012,46463,46936,66012,2,legacy,687,1280,24,720,24,0,0,1280,1646380881520,1024,2,48000,-16,experiment,p1sarrsha1.png,1,odd,Win32,143,158437,155423,143,143,694490,695993,689491,159957,689491,143,801175,802681,798172,695998,798172,visual_patterns,0,0,0,yes,1366
undefined,undefined,undefined,undefined,white,no,Mozilla,Netscape,"5.0 (Windows NT 10.0; Win64; x64) AppleWebKit/537.36 (KHTML, like Gecko) Chrome/99.0.4844.51 Safari/537.36",xpyriment,legacy,legacy,0,uniform,0,0,0,0,24,24,24,0,0,74,74,74,74,74,0,74,0,9,9,9,9,9,0,9,04-02-22,04-02-22,09:00:45,Fri Mar 04 2022 09:00:45 GMT+0100 (közép-európai téli idő),The main experiment item,yes,0,0,C:/Users/rrics/Documents/!!ResearchBMECOGSCI/gnet,0,0,0,prototype1.png,no,mono,no,18,no,black,no,no,768,1175,3.5.6,legacy,xpyriment,osweb,1.3.13,0,space,space,space,space,66012,46463,46936,66012,2,legacy,687,1280,24,720,24,0,0,1280,1646380881520,1024,2,48000,-16,experiment,p4sarr1.png,1,odd,Win32,143,158437,155423,143,143,694490,695993,689491,159957,689491,143,805689,807197,802689,695998,802689,visual_patterns,0,0,0,yes,1366
undefined,undefined,undefined,undefined,white,no,Mozilla,Netscape,"5.0 (Windows NT 10.0; Win64; x64) AppleWebKit/537.36 (KHTML, like Gecko) Chrome/99.0.4844.51 Safari/537.36",xpyriment,legacy,legacy,0,uniform,0,0,0,0,24,24,24,0,0,74,74,74,74,74,0,74,0,10,10,10,10,10,0,10,04-02-22,04-02-22,09:00:45,Fri Mar 04 2022 09:00:45 GMT+0100 (közép-európai téli idő),The main experiment item,yes,0,0,C:/Users/rrics/Documents/!!ResearchBMECOGSCI/gnet,0,0,0,prototype1.png,no,mono,no,18,no,black,no,no,768,1175,3.5.6,legacy,xpyriment,osweb,1.3.13,0,space,space,space,space,66012,46463,46936,66012,2,legacy,687,1280,24,720,24,0,0,1280,1646380881520,1024,2,48000,-16,experiment,p9sarr2.png,1,odd,Win32,143,158437,155423,143,143,694490,695993,689491,159957,689491,143,810208,811715,807208,695998,807208,visual_patterns,0,0,0,yes,1366
undefined,undefined,undefined,undefined,white,no,Mozilla,Netscape,"5.0 (Windows NT 10.0; Win64; x64) AppleWebKit/537.36 (KHTML, like Gecko) Chrome/99.0.4844.51 Safari/537.36",xpyriment,legacy,legacy,0,uniform,0,0,0,0,24,24,24,0,0,74,74,74,74,74,0,74,0,11,11,11,11,11,0,11,04-02-22,04-02-22,09:00:45,Fri Mar 04 2022 09:00:45 GMT+0100 (közép-európai téli idő),The main experiment item,yes,0,0,C:/Users/rrics/Documents/!!ResearchBMECOGSCI/gnet,0,0,0,prototype1.png,no,mono,no,18,no,black,no,no,768,1175,3.5.6,legacy,xpyriment,osweb,1.3.13,0,space,space,space,space,66012,46463,46936,66012,2,legacy,687,1280,24,720,24,0,0,1280,1646380881520,1024,2,48000,-16,experiment,p1sarr2.png,1,odd,Win32,143,158437,155423,143,143,694490,695993,689491,159957,689491,143,814727,816232,811724,695998,811724,visual_patterns,0,0,0,yes,1366
undefined,undefined,undefined,undefined,white,no,Mozilla,Netscape,"5.0 (Windows NT 10.0; Win64; x64) AppleWebKit/537.36 (KHTML, like Gecko) Chrome/99.0.4844.51 Safari/537.36",xpyriment,legacy,legacy,0,uniform,0,0,0,0,24,24,24,0,0,74,74,74,74,74,0,74,0,12,12,12,12,12,0,12,04-02-22,04-02-22,09:00:45,Fri Mar 04 2022 09:00:45 GMT+0100 (közép-európai téli idő),The main experiment item,yes,0,0,C:/Users/rrics/Documents/!!ResearchBMECOGSCI/gnet,0,0,0,prototype1.png,no,mono,no,18,no,black,no,no,768,1175,3.5.6,legacy,xpyriment,osweb,1.3.13,0,space,space,space,space,66012,46463,46936,66012,2,legacy,687,1280,24,720,24,0,0,1280,1646380881520,1024,2,48000,-16,experiment,p3sarrcol4.png,1,odd,Win32,143,158437,155423,143,143,694490,695993,689491,159957,689491,143,819254,820765,816257,695998,816257,visual_patterns,0,0,0,yes,1366
undefined,undefined,undefined,undefined,white,no,Mozilla,Netscape,"5.0 (Windows NT 10.0; Win64; x64) AppleWebKit/537.36 (KHTML, like Gecko) Chrome/99.0.4844.51 Safari/537.36",xpyriment,legacy,legacy,0,uniform,0,0,0,0,24,24,24,0,0,74,74,74,74,74,0,74,0,13,13,13,13,13,0,13,04-02-22,04-02-22,09:00:45,Fri Mar 04 2022 09:00:45 GMT+0100 (közép-európai téli idő),The main experiment item,yes,0,0,C:/Users/rrics/Documents/!!ResearchBMECOGSCI/gnet,0,0,0,prototype1.png,no,mono,no,18,no,black,no,no,768,1175,3.5.6,legacy,xpyriment,osweb,1.3.13,0,space,space,space,space,66012,46463,46936,66012,2,legacy,687,1280,24,720,24,0,0,1280,1646380881520,1024,2,48000,-16,experiment,p2sarrshacol2.png,1,odd,Win32,143,158437,155423,143,143,694490,695993,689491,159957,689491,143,823776,825282,820776,695998,820776,visual_patterns,0,0,0,yes,1366
undefined,undefined,undefined,undefined,white,no,Mozilla,Netscape,"5.0 (Windows NT 10.0; Win64; x64) AppleWebKit/537.36 (KHTML, like Gecko) Chrome/99.0.4844.51 Safari/537.36",xpyriment,legacy,legacy,0,uniform,0,0,0,0,24,24,24,0,0,74,74,74,74,74,0,74,0,14,14,14,14,14,0,14,04-02-22,04-02-22,09:00:45,Fri Mar 04 2022 09:00:45 GMT+0100 (közép-európai téli idő),The main experiment item,yes,0,0,C:/Users/rrics/Documents/!!ResearchBMECOGSCI/gnet,0,0,0,prototype1.png,no,mono,no,18,no,black,no,no,768,1175,3.5.6,legacy,xpyriment,osweb,1.3.13,0,space,space,space,space,66012,46463,46936,66012,2,legacy,687,1280,24,720,24,0,0,1280,1646380881520,1024,2,48000,-16,experiment,p6sarr1.png,1,odd,Win32,143,158437,155423,143,143,694490,695993,689491,159957,689491,143,828295,829799,825293,695998,825293,visual_patterns,0,0,0,yes,1366
undefined,undefined,undefined,undefined,white,no,Mozilla,Netscape,"5.0 (Windows NT 10.0; Win64; x64) AppleWebKit/537.36 (KHTML, like Gecko) Chrome/99.0.4844.51 Safari/537.36",xpyriment,legacy,legacy,0,uniform,0,0,0,0,24,24,24,0,0,74,74,74,74,74,0,74,0,15,15,15,15,15,0,15,04-02-22,04-02-22,09:00:45,Fri Mar 04 2022 09:00:45 GMT+0100 (közép-európai téli idő),The main experiment item,yes,0,0,C:/Users/rrics/Documents/!!ResearchBMECOGSCI/gnet,0,0,0,prototype1.png,no,mono,no,18,no,black,no,no,768,1175,3.5.6,legacy,xpyriment,osweb,1.3.13,0,space,space,space,space,66012,46463,46936,66012,2,legacy,687,1280,24,720,24,0,0,1280,1646380881520,1024,2,48000,-16,experiment,p4sarrshacol3.png,1,odd,Win32,143,158437,155423,143,143,694490,695993,689491,159957,689491,143,832809,834316,829809,695998,829809,visual_patterns,0,0,0,yes,1366
undefined,undefined,undefined,undefined,white,no,Mozilla,Netscape,"5.0 (Windows NT 10.0; Win64; x64) AppleWebKit/537.36 (KHTML, like Gecko) Chrome/99.0.4844.51 Safari/537.36",xpyriment,legacy,legacy,0,uniform,0,0,0,0,24,24,24,0,0,74,74,74,74,74,0,74,0,16,16,16,16,16,0,16,04-02-22,04-02-22,09:00:45,Fri Mar 04 2022 09:00:45 GMT+0100 (közép-európai téli idő),The main experiment item,yes,0,0,C:/Users/rrics/Documents/!!ResearchBMECOGSCI/gnet,0,0,0,prototype1.png,no,mono,no,18,no,black,no,no,768,1175,3.5.6,legacy,xpyriment,osweb,1.3.13,0,space,space,space,space,66012,46463,46936,66012,2,legacy,687,1280,24,720,24,0,0,1280,1646380881520,1024,2,48000,-16,experiment,p4sarrshacol4.png,1,odd,Win32,143,158437,155423,143,143,694490,695993,689491,159957,689491,143,837331,838832,834328,695998,834328,visual_patterns,0,0,0,yes,1366
undefined,undefined,undefined,undefined,white,no,Mozilla,Netscape,"5.0 (Windows NT 10.0; Win64; x64) AppleWebKit/537.36 (KHTML, like Gecko) Chrome/99.0.4844.51 Safari/537.36",xpyriment,legacy,legacy,0,uniform,0,0,0,0,24,24,24,0,0,74,74,74,74,74,0,74,0,17,17,17,17,17,0,17,04-02-22,04-02-22,09:00:45,Fri Mar 04 2022 09:00:45 GMT+0100 (közép-európai téli idő),The main experiment item,yes,0,0,C:/Users/rrics/Documents/!!ResearchBMECOGSCI/gnet,0,0,0,prototype1.png,no,mono,no,18,no,black,no,no,768,1175,3.5.6,legacy,xpyriment,osweb,1.3.13,0,space,space,space,space,66012,46463,46936,66012,2,legacy,687,1280,24,720,24,0,0,1280,1646380881520,1024,2,48000,-16,experiment,p2sarrcol1.png,1,odd,Win32,143,158437,155423,143,143,694490,695993,689491,159957,689491,143,841854,843366,838852,695998,838852,visual_patterns,0,0,0,yes,1366
undefined,undefined,undefined,undefined,white,no,Mozilla,Netscape,"5.0 (Windows NT 10.0; Win64; x64) AppleWebKit/537.36 (KHTML, like Gecko) Chrome/99.0.4844.51 Safari/537.36",xpyriment,legacy,legacy,0,uniform,0,0,0,0,24,24,24,0,0,74,74,74,74,74,0,74,0,18,18,18,18,18,0,18,04-02-22,04-02-22,09:00:45,Fri Mar 04 2022 09:00:45 GMT+0100 (közép-európai téli idő),The main experiment item,yes,0,0,C:/Users/rrics/Documents/!!ResearchBMECOGSCI/gnet,0,0,0,prototype1.png,no,mono,no,18,no,black,no,no,768,1175,3.5.6,legacy,xpyriment,osweb,1.3.13,0,space,space,space,space,66012,46463,46936,66012,2,legacy,687,1280,24,720,24,0,0,1280,1646380881520,1024,2,48000,-16,experiment,p1sarr4.png,1,odd,Win32,143,158437,155423,143,143,694490,695993,689491,159957,689491,143,846376,847883,843376,695998,843376,visual_patterns,0,0,0,yes,1366
undefined,undefined,undefined,undefined,white,no,Mozilla,Netscape,"5.0 (Windows NT 10.0; Win64; x64) AppleWebKit/537.36 (KHTML, like Gecko) Chrome/99.0.4844.51 Safari/537.36",xpyriment,legacy,legacy,0,uniform,0,0,0,0,24,24,24,0,0,74,74,74,74,74,0,74,0,19,19,19,19,19,0,19,04-02-22,04-02-22,09:00:45,Fri Mar 04 2022 09:00:45 GMT+0100 (közép-európai téli idő),The main experiment item,yes,0,0,C:/Users/rrics/Documents/!!ResearchBMECOGSCI/gnet,0,0,0,prototype1.png,no,mono,no,18,no,black,no,no,768,1175,3.5.6,legacy,xpyriment,osweb,1.3.13,0,space,space,space,space,66012,46463,46936,66012,2,legacy,687,1280,24,720,24,0,0,1280,1646380881520,1024,2,48000,-16,experiment,p10sarr1.png,1,odd,Win32,143,158437,155423,143,143,694490,695993,689491,159957,689491,143,850893,852400,847891,695998,847891,visual_patterns,0,0,0,yes,1366
undefined,undefined,undefined,undefined,white,no,Mozilla,Netscape,"5.0 (Windows NT 10.0; Win64; x64) AppleWebKit/537.36 (KHTML, like Gecko) Chrome/99.0.4844.51 Safari/537.36",xpyriment,legacy,legacy,0,uniform,0,0,0,0,24,24,24,0,0,74,74,74,74,74,0,74,0,20,20,20,20,20,0,20,04-02-22,04-02-22,09:00:45,Fri Mar 04 2022 09:00:45 GMT+0100 (közép-európai téli idő),The main experiment item,yes,0,0,C:/Users/rrics/Documents/!!ResearchBMECOGSCI/gnet,0,0,0,prototype1.png,no,mono,no,18,no,black,no,no,768,1175,3.5.6,legacy,xpyriment,osweb,1.3.13,0,space,space,space,space,66012,46463,46936,66012,2,legacy,687,1280,24,720,24,0,0,1280,1646380881520,1024,2,48000,-16,experiment,p8sarr3.png,1,odd,Win32,143,158437,155423,143,143,694490,695993,689491,159957,689491,143,855410,856916,852410,695998,852410,visual_patterns,0,0,0,yes,1366
undefined,undefined,undefined,undefined,white,no,Mozilla,Netscape,"5.0 (Windows NT 10.0; Win64; x64) AppleWebKit/537.36 (KHTML, like Gecko) Chrome/99.0.4844.51 Safari/537.36",xpyriment,legacy,legacy,0,uniform,0,0,0,0,24,24,24,0,0,74,74,74,74,74,0,74,0,21,21,21,21,21,0,21,04-02-22,04-02-22,09:00:45,Fri Mar 04 2022 09:00:45 GMT+0100 (közép-európai téli idő),The main experiment item,yes,0,0,C:/Users/rrics/Documents/!!ResearchBMECOGSCI/gnet,0,0,0,prototype1.png,no,mono,no,18,no,black,no,no,768,1175,3.5.6,legacy,xpyriment,osweb,1.3.13,0,space,space,space,space,66012,46463,46936,66012,2,legacy,687,1280,24,720,24,0,0,1280,1646380881520,1024,2,48000,-16,experiment,p9sarr4.png,1,odd,Win32,143,158437,155423,143,143,694490,695993,689491,159957,689491,143,859924,861434,856925,695998,856925,visual_patterns,0,0,0,yes,1366
undefined,undefined,undefined,undefined,white,no,Mozilla,Netscape,"5.0 (Windows NT 10.0; Win64; x64) AppleWebKit/537.36 (KHTML, like Gecko) Chrome/99.0.4844.51 Safari/537.36",xpyriment,legacy,legacy,0,uniform,0,0,0,0,24,24,24,0,0,74,74,74,74,74,0,74,0,22,22,22,22,22,0,22,04-02-22,04-02-22,09:00:45,Fri Mar 04 2022 09:00:45 GMT+0100 (közép-európai téli idő),The main experiment item,yes,0,0,C:/Users/rrics/Documents/!!ResearchBMECOGSCI/gnet,0,0,0,prototype1.png,no,mono,no,18,no,black,no,no,768,1175,3.5.6,legacy,xpyriment,osweb,1.3.13,0,space,space,space,space,66012,46463,46936,66012,2,legacy,687,1280,24,720,24,0,0,1280,1646380881520,1024,2,48000,-16,experiment,p5sarrcol2.png,1,odd,Win32,143,158437,155423,143,143,694490,695993,689491,159957,689491,143,864446,865950,861443,695998,861443,visual_patterns,0,0,0,yes,1366
undefined,undefined,undefined,undefined,white,no,Mozilla,Netscape,"5.0 (Windows NT 10.0; Win64; x64) AppleWebKit/537.36 (KHTML, like Gecko) Chrome/99.0.4844.51 Safari/537.36",xpyriment,legacy,legacy,0,uniform,0,0,0,0,24,24,24,0,0,74,74,74,74,74,0,74,0,23,23,23,23,23,0,23,04-02-22,04-02-22,09:00:45,Fri Mar 04 2022 09:00:45 GMT+0100 (közép-európai téli idő),The main experiment item,yes,0,0,C:/Users/rrics/Documents/!!ResearchBMECOGSCI/gnet,0,0,0,prototype1.png,no,mono,no,18,no,black,no,no,768,1175,3.5.6,legacy,xpyriment,osweb,1.3.13,0,space,space,space,space,66012,46463,46936,66012,2,legacy,687,1280,24,720,24,0,0,1280,1646380881520,1024,2,48000,-16,experiment,p7sarr4.png,1,odd,Win32,143,158437,155423,143,143,694490,695993,689491,159957,689491,143,868959,870467,865959,695998,865959,visual_patterns,0,0,0,yes,1366
undefined,undefined,undefined,undefined,white,no,Mozilla,Netscape,"5.0 (Windows NT 10.0; Win64; x64) AppleWebKit/537.36 (KHTML, like Gecko) Chrome/99.0.4844.51 Safari/537.36",xpyriment,legacy,legacy,0,uniform,0,0,0,0,24,24,24,0,0,74,74,74,74,74,0,74,0,24,24,24,24,24,0,24,04-02-22,04-02-22,09:00:45,Fri Mar 04 2022 09:00:45 GMT+0100 (közép-európai téli idő),The main experiment item,yes,0,0,C:/Users/rrics/Documents/!!ResearchBMECOGSCI/gnet,0,0,0,prototype1.png,no,mono,no,18,no,black,no,no,768,1175,3.5.6,legacy,xpyriment,osweb,1.3.13,0,space,space,space,space,66012,46463,46936,66012,2,legacy,687,1280,24,720,24,0,0,1280,1646380881520,1024,2,48000,-16,experiment,p3sarrsha3.png,1,odd,Win32,143,158437,155423,143,143,694490,695993,689491,159957,689491,143,873478,874984,870479,695998,870478,visual_patterns,0,0,0,yes,1366
undefined,undefined,undefined,undefined,white,no,Mozilla,Netscape,"5.0 (Windows NT 10.0; Win64; x64) AppleWebKit/537.36 (KHTML, like Gecko) Chrome/99.0.4844.51 Safari/537.36",xpyriment,legacy,legacy,0,uniform,0,0,0,0,24,24,24,0,0,74,74,74,74,74,0,74,0,25,25,25,25,25,0,25,04-02-22,04-02-22,09:00:45,Fri Mar 04 2022 09:00:45 GMT+0100 (közép-európai téli idő),The main experiment item,yes,0,0,C:/Users/rrics/Documents/!!ResearchBMECOGSCI/gnet,0,0,0,prototype1.png,no,mono,no,18,no,black,no,no,768,1175,3.5.6,legacy,xpyriment,osweb,1.3.13,0,space,space,space,space,66012,46463,46936,66012,2,legacy,687,1280,24,720,24,0,0,1280,1646380881520,1024,2,48000,-16,experiment,p8sarr4.png,1,odd,Win32,143,158437,155423,143,143,694490,695993,689491,159957,689491,143,877992,879500,874992,695998,874992,visual_patterns,0,0,0,yes,1366
undefined,undefined,undefined,undefined,white,no,Mozilla,Netscape,"5.0 (Windows NT 10.0; Win64; x64) AppleWebKit/537.36 (KHTML, like Gecko) Chrome/99.0.4844.51 Safari/537.36",xpyriment,legacy,legacy,0,uniform,0,0,0,0,24,24,24,0,0,74,74,74,74,74,0,74,0,26,26,26,26,26,0,26,04-02-22,04-02-22,09:00:45,Fri Mar 04 2022 09:00:45 GMT+0100 (közép-európai téli idő),The main experiment item,yes,0,0,C:/Users/rrics/Documents/!!ResearchBMECOGSCI/gnet,0,0,0,prototype1.png,no,mono,no,18,no,black,no,no,768,1175,3.5.6,legacy,xpyriment,osweb,1.3.13,0,space,space,space,space,66012,46463,46936,66012,2,legacy,687,1280,24,720,24,0,0,1280,1646380881520,1024,2,48000,-16,experiment,p2sarrshacol4.png,1,odd,Win32,143,158437,155423,143,143,694490,695993,689491,159957,689491,143,882513,884017,879510,695998,879510,visual_patterns,0,0,0,yes,1366
undefined,undefined,undefined,undefined,white,no,Mozilla,Netscape,"5.0 (Windows NT 10.0; Win64; x64) AppleWebKit/537.36 (KHTML, like Gecko) Chrome/99.0.4844.51 Safari/537.36",xpyriment,legacy,legacy,0,uniform,0,0,0,0,24,24,24,0,0,74,74,74,74,74,0,74,0,27,27,27,27,27,0,27,04-02-22,04-02-22,09:00:45,Fri Mar 04 2022 09:00:45 GMT+0100 (közép-európai téli idő),The main experiment item,yes,0,0,C:/Users/rrics/Documents/!!ResearchBMECOGSCI/gnet,0,0,0,prototype1.png,no,mono,no,18,no,black,no,no,768,1175,3.5.6,legacy,xpyriment,osweb,1.3.13,0,space,space,space,space,66012,46463,46936,66012,2,legacy,687,1280,24,720,24,0,0,1280,1646380881520,1024,2,48000,-16,experiment,p4sarrshacol1.png,1,odd,Win32,143,158437,155423,143,143,694490,695993,689491,159957,689491,143,887027,888534,884026,695998,884026,visual_patterns,0,0,0,yes,1366
undefined,undefined,undefined,undefined,white,no,Mozilla,Netscape,"5.0 (Windows NT 10.0; Win64; x64) AppleWebKit/537.36 (KHTML, like Gecko) Chrome/99.0.4844.51 Safari/537.36",xpyriment,legacy,legacy,0,uniform,0,0,0,0,24,24,24,0,0,74,74,74,74,74,0,74,0,28,28,28,28,28,0,28,04-02-22,04-02-22,09:00:45,Fri Mar 04 2022 09:00:45 GMT+0100 (közép-európai téli idő),The main experiment item,yes,0,0,C:/Users/rrics/Documents/!!ResearchBMECOGSCI/gnet,0,0,0,prototype1.png,no,mono,no,18,no,black,no,no,768,1175,3.5.6,legacy,xpyriment,osweb,1.3.13,0,space,space,space,space,66012,46463,46936,66012,2,legacy,687,1280,24,720,24,0,0,1280,1646380881520,1024,2,48000,-16,experiment,p1sarrshacol3.png,1,odd,Win32,143,158437,155423,143,143,694490,695993,689491,159957,689491,143,891544,893051,888545,695998,888545,visual_patterns,0,0,0,yes,1366
undefined,undefined,undefined,undefined,white,no,Mozilla,Netscape,"5.0 (Windows NT 10.0; Win64; x64) AppleWebKit/537.36 (KHTML, like Gecko) Chrome/99.0.4844.51 Safari/537.36",xpyriment,legacy,legacy,0,uniform,0,0,0,0,24,24,24,0,0,74,74,74,74,74,0,74,0,29,29,29,29,29,0,29,04-02-22,04-02-22,09:00:45,Fri Mar 04 2022 09:00:45 GMT+0100 (közép-európai téli idő),The main experiment item,yes,0,0,C:/Users/rrics/Documents/!!ResearchBMECOGSCI/gnet,0,0,0,prototype1.png,no,mono,no,18,no,black,no,no,768,1175,3.5.6,legacy,xpyriment,osweb,1.3.13,0,space,space,space,space,66012,46463,46936,66012,2,legacy,687,1280,24,720,24,0,0,1280,1646380881520,1024,2,48000,-16,experiment,p2sarrsha1.png,1,odd,Win32,143,158437,155423,143,143,694490,695993,689491,159957,689491,143,896071,897585,893072,695998,893072,visual_patterns,0,0,0,yes,1366
undefined,undefined,undefined,undefined,white,no,Mozilla,Netscape,"5.0 (Windows NT 10.0; Win64; x64) AppleWebKit/537.36 (KHTML, like Gecko) Chrome/99.0.4844.51 Safari/537.36",xpyriment,legacy,legacy,0,uniform,0,0,0,0,24,24,24,0,0,74,74,74,74,74,0,74,0,30,30,30,30,30,0,30,04-02-22,04-02-22,09:00:45,Fri Mar 04 2022 09:00:45 GMT+0100 (közép-európai téli idő),The main experiment item,yes,0,0,C:/Users/rrics/Documents/!!ResearchBMECOGSCI/gnet,0,0,0,prototype1.png,no,mono,no,18,no,black,no,no,768,1175,3.5.6,legacy,xpyriment,osweb,1.3.13,0,space,space,space,space,66012,46463,46936,66012,2,legacy,687,1280,24,720,24,0,0,1280,1646380881520,1024,2,48000,-16,experiment,p3sarr2.png,1,odd,Win32,143,158437,155423,143,143,694490,695993,689491,159957,689491,143,900597,902102,897595,695998,897595,visual_patterns,0,0,0,yes,1366
undefined,undefined,undefined,undefined,white,no,Mozilla,Netscape,"5.0 (Windows NT 10.0; Win64; x64) AppleWebKit/537.36 (KHTML, like Gecko) Chrome/99.0.4844.51 Safari/537.36",xpyriment,legacy,legacy,0,uniform,0,0,0,0,24,24,24,0,0,74,74,74,74,74,0,74,0,31,31,31,31,31,0,31,04-02-22,04-02-22,09:00:45,Fri Mar 04 2022 09:00:45 GMT+0100 (közép-európai téli idő),The main experiment item,yes,0,0,C:/Users/rrics/Documents/!!ResearchBMECOGSCI/gnet,0,0,0,prototype1.png,no,mono,no,18,no,black,no,no,768,1175,3.5.6,legacy,xpyriment,osweb,1.3.13,0,space,space,space,space,66012,46463,46936,66012,2,legacy,687,1280,24,720,24,0,0,1280,1646380881520,1024,2,48000,-16,experiment,p3sarrshacol3.png,1,odd,Win32,143,158437,155423,143,143,694490,695993,689491,159957,689491,143,905121,906635,902125,695998,902125,visual_patterns,0,0,0,yes,1366
undefined,undefined,undefined,undefined,white,no,Mozilla,Netscape,"5.0 (Windows NT 10.0; Win64; x64) AppleWebKit/537.36 (KHTML, like Gecko) Chrome/99.0.4844.51 Safari/537.36",xpyriment,legacy,legacy,0,uniform,0,0,0,0,24,24,24,0,0,74,74,74,74,74,0,74,0,32,32,32,32,32,0,32,04-02-22,04-02-22,09:00:45,Fri Mar 04 2022 09:00:45 GMT+0100 (közép-európai téli idő),The main experiment item,yes,0,0,C:/Users/rrics/Documents/!!ResearchBMECOGSCI/gnet,0,0,0,prototype1.png,no,mono,no,18,no,black,no,no,768,1175,3.5.6,legacy,xpyriment,osweb,1.3.13,0,space,space,space,space,66012,46463,46936,66012,2,legacy,687,1280,24,720,24,0,0,1280,1646380881520,1024,2,48000,-16,experiment,p2sarrcol4.png,1,odd,Win32,143,158437,155423,143,143,694490,695993,689491,159957,689491,143,909658,911169,906659,695998,906658,visual_patterns,0,0,0,yes,1366
undefined,undefined,undefined,undefined,white,no,Mozilla,Netscape,"5.0 (Windows NT 10.0; Win64; x64) AppleWebKit/537.36 (KHTML, like Gecko) Chrome/99.0.4844.51 Safari/537.36",xpyriment,legacy,legacy,0,uniform,0,0,0,0,24,24,24,0,0,74,74,74,74,74,0,74,0,33,33,33,33,33,0,33,04-02-22,04-02-22,09:00:45,Fri Mar 04 2022 09:00:45 GMT+0100 (közép-európai téli idő),The main experiment item,yes,0,0,C:/Users/rrics/Documents/!!ResearchBMECOGSCI/gnet,0,0,0,prototype1.png,no,mono,no,18,no,black,no,no,768,1175,3.5.6,legacy,xpyriment,osweb,1.3.13,0,space,space,space,space,66012,46463,46936,66012,2,legacy,687,1280,24,720,24,0,0,1280,1646380881520,1024,2,48000,-16,experiment,p5sarrcol1.png,1,odd,Win32,143,158437,155423,143,143,694490,695993,689491,159957,689491,143,914180,915686,911179,695998,911179,visual_patterns,0,0,0,yes,1366
undefined,undefined,undefined,undefined,white,no,Mozilla,Netscape,"5.0 (Windows NT 10.0; Win64; x64) AppleWebKit/537.36 (KHTML, like Gecko) Chrome/99.0.4844.51 Safari/537.36",xpyriment,legacy,legacy,0,uniform,0,0,0,0,24,24,24,0,0,74,74,74,74,74,0,74,0,34,34,34,34,34,0,34,04-02-22,04-02-22,09:00:45,Fri Mar 04 2022 09:00:45 GMT+0100 (közép-európai téli idő),The main experiment item,yes,0,0,C:/Users/rrics/Documents/!!ResearchBMECOGSCI/gnet,0,0,0,prototype1.png,no,mono,no,18,no,black,no,no,768,1175,3.5.6,legacy,xpyriment,osweb,1.3.13,0,space,space,space,space,66012,46463,46936,66012,2,legacy,687,1280,24,720,24,0,0,1280,1646380881520,1024,2,48000,-16,experiment,p8sarr2.png,1,odd,Win32,143,158437,155423,143,143,694490,695993,689491,159957,689491,143,918707,920219,915715,695998,915715,visual_patterns,0,0,0,yes,1366
undefined,undefined,undefined,undefined,white,no,Mozilla,Netscape,"5.0 (Windows NT 10.0; Win64; x64) AppleWebKit/537.36 (KHTML, like Gecko) Chrome/99.0.4844.51 Safari/537.36",xpyriment,legacy,legacy,0,uniform,0,0,0,0,24,24,24,0,0,74,74,74,74,74,0,74,0,35,35,35,35,35,0,35,04-02-22,04-02-22,09:00:45,Fri Mar 04 2022 09:00:45 GMT+0100 (közép-európai téli idő),The main experiment item,yes,0,0,C:/Users/rrics/Documents/!!ResearchBMECOGSCI/gnet,0,0,0,prototype1.png,no,mono,no,18,no,black,no,no,768,1175,3.5.6,legacy,xpyriment,osweb,1.3.13,0,space,space,space,space,66012,46463,46936,66012,2,legacy,687,1280,24,720,24,0,0,1280,1646380881520,1024,2,48000,-16,experiment,p5sarr3.png,1,odd,Win32,143,158437,155423,143,143,694490,695993,689491,159957,689491,143,923228,924736,920229,695998,920229,visual_patterns,0,0,0,yes,1366
undefined,undefined,undefined,undefined,white,no,Mozilla,Netscape,"5.0 (Windows NT 10.0; Win64; x64) AppleWebKit/537.36 (KHTML, like Gecko) Chrome/99.0.4844.51 Safari/537.36",xpyriment,legacy,legacy,0,uniform,0,0,0,0,24,24,24,0,0,74,74,74,74,74,0,74,0,36,36,36,36,36,0,36,04-02-22,04-02-22,09:00:45,Fri Mar 04 2022 09:00:45 GMT+0100 (közép-európai téli idő),The main experiment item,yes,0,0,C:/Users/rrics/Documents/!!ResearchBMECOGSCI/gnet,0,0,0,prototype1.png,no,mono,no,18,no,black,no,no,768,1175,3.5.6,legacy,xpyriment,osweb,1.3.13,0,space,space,space,space,66012,46463,46936,66012,2,legacy,687,1280,24,720,24,0,0,1280,1646380881520,1024,2,48000,-16,experiment,p7sarr1.png,1,odd,Win32,143,158437,155423,143,143,694490,695993,689491,159957,689491,143,927759,929270,924763,695998,924763,visual_patterns,0,0,0,yes,1366
undefined,undefined,undefined,undefined,white,no,Mozilla,Netscape,"5.0 (Windows NT 10.0; Win64; x64) AppleWebKit/537.36 (KHTML, like Gecko) Chrome/99.0.4844.51 Safari/537.36",xpyriment,legacy,legacy,0,uniform,0,0,0,0,24,24,24,0,0,74,74,74,74,74,0,74,0,37,37,37,37,37,0,37,04-02-22,04-02-22,09:00:45,Fri Mar 04 2022 09:00:45 GMT+0100 (közép-európai téli idő),The main experiment item,yes,0,0,C:/Users/rrics/Documents/!!ResearchBMECOGSCI/gnet,0,0,0,prototype1.png,no,mono,no,18,no,black,no,no,768,1175,3.5.6,legacy,xpyriment,osweb,1.3.13,0,space,space,space,space,66012,46463,46936,66012,2,legacy,687,1280,24,720,24,0,0,1280,1646380881520,1024,2,48000,-16,experiment,p1sarrcol4.png,1,odd,Win32,143,158437,155423,143,143,694490,695993,689491,159957,689491,143,932281,933786,929280,695998,929280,visual_patterns,0,0,0,yes,1366
undefined,undefined,undefined,undefined,white,no,Mozilla,Netscape,"5.0 (Windows NT 10.0; Win64; x64) AppleWebKit/537.36 (KHTML, like Gecko) Chrome/99.0.4844.51 Safari/537.36",xpyriment,legacy,legacy,0,uniform,0,0,0,0,24,24,24,0,0,74,74,74,74,74,0,74,0,38,38,38,38,38,0,38,04-02-22,04-02-22,09:00:45,Fri Mar 04 2022 09:00:45 GMT+0100 (közép-európai téli idő),The main experiment item,yes,0,0,C:/Users/rrics/Documents/!!ResearchBMECOGSCI/gnet,0,0,0,prototype1.png,no,mono,no,18,no,black,no,no,768,1175,3.5.6,legacy,xpyriment,osweb,1.3.13,0,space,space,space,space,66012,46463,46936,66012,2,legacy,687,1280,24,720,24,0,0,1280,1646380881520,1024,2,48000,-16,experiment,p3sarrsha4.png,1,odd,Win32,143,158437,155423,143,143,694490,695993,689491,159957,689491,143,936801,938303,933798,695998,933798,visual_patterns,0,0,0,yes,1366
undefined,undefined,undefined,undefined,white,no,Mozilla,Netscape,"5.0 (Windows NT 10.0; Win64; x64) AppleWebKit/537.36 (KHTML, like Gecko) Chrome/99.0.4844.51 Safari/537.36",xpyriment,legacy,legacy,0,uniform,0,0,0,0,24,24,24,0,0,74,74,74,74,74,0,74,0,39,39,39,39,39,0,39,04-02-22,04-02-22,09:00:45,Fri Mar 04 2022 09:00:45 GMT+0100 (közép-európai téli idő),The main experiment item,yes,0,0,C:/Users/rrics/Documents/!!ResearchBMECOGSCI/gnet,0,0,0,prototype1.png,no,mono,no,18,no,black,no,no,768,1175,3.5.6,legacy,xpyriment,osweb,1.3.13,0,space,space,space,space,66012,46463,46936,66012,2,legacy,687,1280,24,720,24,0,0,1280,1646380881520,1024,2,48000,-16,experiment,p3sarr1.png,1,odd,Win32,143,158437,155423,143,143,694490,695993,689491,159957,689491,143,941313,942820,938314,695998,938314,visual_patterns,0,0,0,yes,1366
undefined,undefined,undefined,undefined,white,no,Mozilla,Netscape,"5.0 (Windows NT 10.0; Win64; x64) AppleWebKit/537.36 (KHTML, like Gecko) Chrome/99.0.4844.51 Safari/537.36",xpyriment,legacy,legacy,0,uniform,0,0,0,0,24,24,24,0,0,74,74,74,74,74,0,74,0,40,40,40,40,40,0,40,04-02-22,04-02-22,09:00:45,Fri Mar 04 2022 09:00:45 GMT+0100 (közép-európai téli idő),The main experiment item,yes,0,0,C:/Users/rrics/Documents/!!ResearchBMECOGSCI/gnet,0,0,0,prototype1.png,no,mono,no,18,no,black,no,no,768,1175,3.5.6,legacy,xpyriment,osweb,1.3.13,0,space,space,space,space,66012,46463,46936,66012,2,legacy,687,1280,24,720,24,0,0,1280,1646380881520,1024,2,48000,-16,experiment,p2sarrsha3.png,1,odd,Win32,143,158437,155423,143,143,694490,695993,689491,159957,689491,143,945840,947354,942846,695998,942846,visual_patterns,0,0,0,yes,1366
undefined,undefined,undefined,undefined,white,no,Mozilla,Netscape,"5.0 (Windows NT 10.0; Win64; x64) AppleWebKit/537.36 (KHTML, like Gecko) Chrome/99.0.4844.51 Safari/537.36",xpyriment,legacy,legacy,0,uniform,0,0,0,0,24,24,24,0,0,74,74,74,74,74,0,74,0,41,41,41,41,41,0,41,04-02-22,04-02-22,09:00:45,Fri Mar 04 2022 09:00:45 GMT+0100 (közép-európai téli idő),The main experiment item,yes,0,0,C:/Users/rrics/Documents/!!ResearchBMECOGSCI/gnet,0,0,0,prototype1.png,no,mono,no,18,no,black,no,no,768,1175,3.5.6,legacy,xpyriment,osweb,1.3.13,0,space,space,space,space,66012,46463,46936,66012,2,legacy,687,1280,24,720,24,0,0,1280,1646380881520,1024,2,48000,-16,experiment,p9sarr3.png,1,odd,Win32,143,158437,155423,143,143,694490,695993,689491,159957,689491,143,950365,951871,947363,695998,947363,visual_patterns,0,0,0,yes,1366
undefined,undefined,undefined,undefined,white,no,Mozilla,Netscape,"5.0 (Windows NT 10.0; Win64; x64) AppleWebKit/537.36 (KHTML, like Gecko) Chrome/99.0.4844.51 Safari/537.36",xpyriment,legacy,legacy,0,uniform,0,0,0,0,24,24,24,0,0,74,74,74,74,74,0,74,0,42,42,42,42,42,0,42,04-02-22,04-02-22,09:00:45,Fri Mar 04 2022 09:00:45 GMT+0100 (közép-európai téli idő),The main experiment item,yes,0,0,C:/Users/rrics/Documents/!!ResearchBMECOGSCI/gnet,0,0,0,prototype1.png,no,mono,no,18,no,black,no,no,768,1175,3.5.6,legacy,xpyriment,osweb,1.3.13,0,space,space,space,space,66012,46463,46936,66012,2,legacy,687,1280,24,720,24,0,0,1280,1646380881520,1024,2,48000,-16,experiment,p10sarr4.png,1,odd,Win32,143,158437,155423,143,143,694490,695993,689491,159957,689491,143,954888,956404,951888,695998,951888,visual_patterns,0,0,0,yes,1366
undefined,undefined,undefined,undefined,white,no,Mozilla,Netscape,"5.0 (Windows NT 10.0; Win64; x64) AppleWebKit/537.36 (KHTML, like Gecko) Chrome/99.0.4844.51 Safari/537.36",xpyriment,legacy,legacy,0,uniform,0,0,0,0,24,24,24,0,0,74,74,74,74,74,0,74,0,43,43,43,43,43,0,43,04-02-22,04-02-22,09:00:45,Fri Mar 04 2022 09:00:45 GMT+0100 (közép-európai téli idő),The main experiment item,yes,0,0,C:/Users/rrics/Documents/!!ResearchBMECOGSCI/gnet,0,0,0,prototype1.png,no,mono,no,18,no,black,no,no,768,1175,3.5.6,legacy,xpyriment,osweb,1.3.13,0,space,space,space,space,66012,46463,46936,66012,2,legacy,687,1280,24,720,24,0,0,1280,1646380881520,1024,2,48000,-16,experiment,p4sarrcol1.png,1,odd,Win32,143,158437,155423,143,143,694490,695993,689491,159957,689491,143,959417,960921,956415,695998,956415,visual_patterns,0,0,0,yes,1366
undefined,undefined,undefined,undefined,white,no,Mozilla,Netscape,"5.0 (Windows NT 10.0; Win64; x64) AppleWebKit/537.36 (KHTML, like Gecko) Chrome/99.0.4844.51 Safari/537.36",xpyriment,legacy,legacy,0,uniform,0,0,0,0,24,24,24,0,0,74,74,74,74,74,0,74,0,44,44,44,44,44,0,44,04-02-22,04-02-22,09:00:45,Fri Mar 04 2022 09:00:45 GMT+0100 (közép-európai téli idő),The main experiment item,yes,0,0,C:/Users/rrics/Documents/!!ResearchBMECOGSCI/gnet,0,0,0,prototype1.png,no,mono,no,18,no,black,no,no,768,1175,3.5.6,legacy,xpyriment,osweb,1.3.13,0,space,space,space,space,66012,46463,46936,66012,2,legacy,687,1280,24,720,24,0,0,1280,1646380881520,1024,2,48000,-16,experiment,p5sarrshacol4.png,1,odd,Win32,143,158437,155423,143,143,694490,695993,689491,159957,689491,143,963934,965438,960932,695998,960932,visual_patterns,0,0,0,yes,1366
undefined,undefined,undefined,undefined,white,no,Mozilla,Netscape,"5.0 (Windows NT 10.0; Win64; x64) AppleWebKit/537.36 (KHTML, like Gecko) Chrome/99.0.4844.51 Safari/537.36",xpyriment,legacy,legacy,0,uniform,0,0,0,0,24,24,24,0,0,74,74,74,74,74,0,74,0,45,45,45,45,45,0,45,04-02-22,04-02-22,09:00:45,Fri Mar 04 2022 09:00:45 GMT+0100 (közép-európai téli idő),The main experiment item,yes,0,0,C:/Users/rrics/Documents/!!ResearchBMECOGSCI/gnet,0,0,0,prototype1.png,no,mono,no,18,no,black,no,no,768,1175,3.5.6,legacy,xpyriment,osweb,1.3.13,0,space,space,space,space,66012,46463,46936,66012,2,legacy,687,1280,24,720,24,0,0,1280,1646380881520,1024,2,48000,-16,experiment,p3sarr3.png,1,odd,Win32,143,158437,155423,143,143,694490,695993,689491,159957,689491,143,968447,969955,965447,695998,965447,visual_patterns,0,0,0,yes,1366
undefined,undefined,undefined,undefined,white,no,Mozilla,Netscape,"5.0 (Windows NT 10.0; Win64; x64) AppleWebKit/537.36 (KHTML, like Gecko) Chrome/99.0.4844.51 Safari/537.36",xpyriment,legacy,legacy,0,uniform,0,0,0,0,24,24,24,0,0,74,74,74,74,74,0,74,0,46,46,46,46,46,0,46,04-02-22,04-02-22,09:00:45,Fri Mar 04 2022 09:00:45 GMT+0100 (közép-európai téli idő),The main experiment item,yes,0,0,C:/Users/rrics/Documents/!!ResearchBMECOGSCI/gnet,0,0,0,prototype1.png,no,mono,no,18,no,black,no,no,768,1175,3.5.6,legacy,xpyriment,osweb,1.3.13,0,space,space,space,space,66012,46463,46936,66012,2,legacy,687,1280,24,720,24,0,0,1280,1646380881520,1024,2,48000,-16,experiment,p2sarr3.png,1,odd,Win32,143,158437,155423,143,143,694490,695993,689491,159957,689491,143,972967,974472,969965,695998,969965,visual_patterns,0,0,0,yes,1366
undefined,undefined,undefined,undefined,white,no,Mozilla,Netscape,"5.0 (Windows NT 10.0; Win64; x64) AppleWebKit/537.36 (KHTML, like Gecko) Chrome/99.0.4844.51 Safari/537.36",xpyriment,legacy,legacy,0,uniform,0,0,0,0,24,24,24,0,0,74,74,74,74,74,0,74,0,47,47,47,47,47,0,47,04-02-22,04-02-22,09:00:45,Fri Mar 04 2022 09:00:45 GMT+0100 (közép-európai téli idő),The main experiment item,yes,0,0,C:/Users/rrics/Documents/!!ResearchBMECOGSCI/gnet,0,0,0,prototype1.png,no,mono,no,18,no,black,no,no,768,1175,3.5.6,legacy,xpyriment,osweb,1.3.13,0,space,space,space,space,66012,46463,46936,66012,2,legacy,687,1280,24,720,24,0,0,1280,1646380881520,1024,2,48000,-16,experiment,p4sarr2.png,1,odd,Win32,143,158437,155423,143,143,694490,695993,689491,159957,689491,143,977483,978989,974481,695998,974481,visual_patterns,0,0,0,yes,1366
undefined,undefined,undefined,undefined,white,no,Mozilla,Netscape,"5.0 (Windows NT 10.0; Win64; x64) AppleWebKit/537.36 (KHTML, like Gecko) Chrome/99.0.4844.51 Safari/537.36",xpyriment,legacy,legacy,0,uniform,0,0,0,0,24,24,24,0,0,74,74,74,74,74,0,74,0,48,48,48,48,48,0,48,04-02-22,04-02-22,09:00:45,Fri Mar 04 2022 09:00:45 GMT+0100 (közép-európai téli idő),The main experiment item,yes,0,0,C:/Users/rrics/Documents/!!ResearchBMECOGSCI/gnet,0,0,0,prototype1.png,no,mono,no,18,no,black,no,no,768,1175,3.5.6,legacy,xpyriment,osweb,1.3.13,0,space,space,space,space,66012,46463,46936,66012,2,legacy,687,1280,24,720,24,0,0,1280,1646380881520,1024,2,48000,-16,experiment,p2sarrshacol3.png,1,odd,Win32,143,158437,155423,143,143,694490,695993,689491,159957,689491,143,982001,983505,978999,695998,978999,visual_patterns,0,0,0,yes,1366
