acc,accuracy,average_response_time,avg_rt,background,bidi,browser_codename,browser_name,browser_version,canvas_backend,clock_backend,color_backend,compensation,coordinates,count_end,count_experiment,count_osweb,count_prestudy,count_prestudy_isi,count_prestudy_sequence,count_prestudy_stimpres,count_start,count_study,count_study_coroutines,count_study_isi,count_study_logger,count_study_response,count_study_sequence,count_study_start,count_study_stimpres,count_test,count_test_coroutines,count_test_isi,count_test_logger,count_test_response,count_test_sequence,count_test_start,count_test_stimpres,date_startdate,date_startdateUTC,date_starttime,datetime,description,disable_garbage_collection,experiment_debug,experiment_parameters,experiment_path,experiment_pilot,experiment_taskname,experiment_taskversion,fampict,font_bold,font_family,font_italic,font_size,font_underline,foreground,form_clicks,fullscreen,height,jatosStudyResultId,jatosVersion,keyboard_backend,mouse_backend,opensesame_codename,opensesame_version,repeat_cycle,response,response_start,response_study_start,response_test_start,response_time,response_time_start,response_time_study_start,response_time_test_start,round_decimals,sampler_backend,screen_availableHeight,screen_availableWidth,screen_colorDepth,screen_height,screen_pixelDepth,screen_screenX,screen_screenY,screen_width,sessionid,sound_buf_size,sound_channels,sound_freq,sound_sample_size,start,stim,subject_nr,subject_parity,system_os,time_prestudy,time_prestudy_isi,time_prestudy_stimpres,time_start,time_study,time_study_isi,time_study_logger,time_study_response,time_study_start,time_study_stimpres,time_test,time_test_isi,time_test_logger,time_test_response,time_test_start,time_test_stimpres,title,total_correct,total_response_time,total_responses,uniform_coordinates,width
undefined,undefined,undefined,undefined,white,no,Mozilla,Netscape,"5.0 (Windows NT 10.0; Win64; x64) AppleWebKit/537.36 (KHTML, like Gecko) Chrome/99.0.4844.51 Safari/537.36",xpyriment,legacy,legacy,0,uniform,0,0,0,0,24,24,24,0,0,0,0,0,0,0,0,0,0,,,,,,0,,04-02-22,04-02-22,11:42:38,Fri Mar 04 2022 11:42:38 GMT+0100 (közép-európai téli idő),The main experiment item,yes,0,0,C:/Users/rrics/Documents/!!ResearchBMECOGSCI/gnet,0,0,0,prototype4.png,no,mono,no,18,no,black,no,no,768,1176,3.5.6,legacy,xpyriment,osweb,1.3.13,0,space,space,space,,23864,25056,23864,,2,legacy,728,1366,24,768,24,0,0,1366,1646390562343,1024,2,48000,-16,experiment,p6sarr1.png,0,even,Win32,222,137106,134093,222,222,167508,169022,162506,138625,162506,222,,,,,,visual_patterns,0,0,0,yes,1366
undefined,undefined,undefined,undefined,white,no,Mozilla,Netscape,"5.0 (Windows NT 10.0; Win64; x64) AppleWebKit/537.36 (KHTML, like Gecko) Chrome/99.0.4844.51 Safari/537.36",xpyriment,legacy,legacy,0,uniform,0,0,0,0,24,24,24,0,0,1,1,1,1,1,0,1,0,,,,,,0,,04-02-22,04-02-22,11:42:38,Fri Mar 04 2022 11:42:38 GMT+0100 (közép-európai téli idő),The main experiment item,yes,0,0,C:/Users/rrics/Documents/!!ResearchBMECOGSCI/gnet,0,0,0,prototype4.png,no,mono,no,18,no,black,no,no,768,1176,3.5.6,legacy,xpyriment,osweb,1.3.13,0,space,space,space,,23864,25056,23864,,2,legacy,728,1366,24,768,24,0,0,1366,1646390562343,1024,2,48000,-16,experiment,prototype3.png,0,even,Win32,222,137106,134093,222,222,174042,175553,169045,138625,169045,222,,,,,,visual_patterns,0,0,0,yes,1366
undefined,undefined,undefined,undefined,white,no,Mozilla,Netscape,"5.0 (Windows NT 10.0; Win64; x64) AppleWebKit/537.36 (KHTML, like Gecko) Chrome/99.0.4844.51 Safari/537.36",xpyriment,legacy,legacy,0,uniform,0,0,0,0,24,24,24,0,0,2,2,2,2,2,0,2,0,,,,,,0,,04-02-22,04-02-22,11:42:38,Fri Mar 04 2022 11:42:38 GMT+0100 (közép-európai téli idő),The main experiment item,yes,0,0,C:/Users/rrics/Documents/!!ResearchBMECOGSCI/gnet,0,0,0,prototype4.png,no,mono,no,18,no,black,no,no,768,1176,3.5.6,legacy,xpyriment,osweb,1.3.13,0,space,space,space,,23864,25056,23864,,2,legacy,728,1366,24,768,24,0,0,1366,1646390562343,1024,2,48000,-16,experiment,p3sarr1.png,0,even,Win32,222,137106,134093,222,222,180571,182086,175578,138625,175577,222,,,,,,visual_patterns,0,0,0,yes,1366
undefined,undefined,undefined,undefined,white,no,Mozilla,Netscape,"5.0 (Windows NT 10.0; Win64; x64) AppleWebKit/537.36 (KHTML, like Gecko) Chrome/99.0.4844.51 Safari/537.36",xpyriment,legacy,legacy,0,uniform,0,0,0,0,24,24,24,0,0,3,3,3,3,3,0,3,0,,,,,,0,,04-02-22,04-02-22,11:42:38,Fri Mar 04 2022 11:42:38 GMT+0100 (közép-európai téli idő),The main experiment item,yes,0,0,C:/Users/rrics/Documents/!!ResearchBMECOGSCI/gnet,0,0,0,prototype4.png,no,mono,no,18,no,black,no,no,768,1176,3.5.6,legacy,xpyriment,osweb,1.3.13,0,space,space,space,,23864,25056,23864,,2,legacy,728,1366,24,768,24,0,0,1366,1646390562343,1024,2,48000,-16,experiment,p9sarr2.png,0,even,Win32,222,137106,134093,222,222,187103,188619,182110,138625,182110,222,,,,,,visual_patterns,0,0,0,yes,1366
undefined,undefined,undefined,undefined,white,no,Mozilla,Netscape,"5.0 (Windows NT 10.0; Win64; x64) AppleWebKit/537.36 (KHTML, like Gecko) Chrome/99.0.4844.51 Safari/537.36",xpyriment,legacy,legacy,0,uniform,0,0,0,0,24,24,24,0,0,4,4,4,4,4,0,4,0,,,,,,0,,04-02-22,04-02-22,11:42:38,Fri Mar 04 2022 11:42:38 GMT+0100 (közép-európai téli idő),The main experiment item,yes,0,0,C:/Users/rrics/Documents/!!ResearchBMECOGSCI/gnet,0,0,0,prototype4.png,no,mono,no,18,no,black,no,no,768,1176,3.5.6,legacy,xpyriment,osweb,1.3.13,0,space,space,space,,23864,25056,23864,,2,legacy,728,1366,24,768,24,0,0,1366,1646390562343,1024,2,48000,-16,experiment,p4sarr2.png,0,even,Win32,222,137106,134093,222,222,193637,195152,188645,138625,188645,222,,,,,,visual_patterns,0,0,0,yes,1366
undefined,undefined,undefined,undefined,white,no,Mozilla,Netscape,"5.0 (Windows NT 10.0; Win64; x64) AppleWebKit/537.36 (KHTML, like Gecko) Chrome/99.0.4844.51 Safari/537.36",xpyriment,legacy,legacy,0,uniform,0,0,0,0,24,24,24,0,0,5,5,5,5,5,0,5,0,,,,,,0,,04-02-22,04-02-22,11:42:38,Fri Mar 04 2022 11:42:38 GMT+0100 (közép-európai téli idő),The main experiment item,yes,0,0,C:/Users/rrics/Documents/!!ResearchBMECOGSCI/gnet,0,0,0,prototype4.png,no,mono,no,18,no,black,no,no,768,1176,3.5.6,legacy,xpyriment,osweb,1.3.13,0,space,space,space,,23864,25056,23864,,2,legacy,728,1366,24,768,24,0,0,1366,1646390562343,1024,2,48000,-16,experiment,p4sarrshacol2.png,0,even,Win32,222,137106,134093,222,222,200172,201685,195177,138625,195177,222,,,,,,visual_patterns,0,0,0,yes,1366
undefined,undefined,undefined,undefined,white,no,Mozilla,Netscape,"5.0 (Windows NT 10.0; Win64; x64) AppleWebKit/537.36 (KHTML, like Gecko) Chrome/99.0.4844.51 Safari/537.36",xpyriment,legacy,legacy,0,uniform,0,0,0,0,24,24,24,0,0,6,6,6,6,6,0,6,0,,,,,,0,,04-02-22,04-02-22,11:42:38,Fri Mar 04 2022 11:42:38 GMT+0100 (közép-európai téli idő),The main experiment item,yes,0,0,C:/Users/rrics/Documents/!!ResearchBMECOGSCI/gnet,0,0,0,prototype4.png,no,mono,no,18,no,black,no,no,768,1176,3.5.6,legacy,xpyriment,osweb,1.3.13,0,space,space,space,,23864,25056,23864,,2,legacy,728,1366,24,768,24,0,0,1366,1646390562343,1024,2,48000,-16,experiment,p5sarrsha2.png,0,even,Win32,222,137106,134093,222,222,206700,208202,201709,138625,201709,222,,,,,,visual_patterns,0,0,0,yes,1366
undefined,undefined,undefined,undefined,white,no,Mozilla,Netscape,"5.0 (Windows NT 10.0; Win64; x64) AppleWebKit/537.36 (KHTML, like Gecko) Chrome/99.0.4844.51 Safari/537.36",xpyriment,legacy,legacy,0,uniform,0,0,0,0,24,24,24,0,0,7,7,7,7,7,0,7,0,,,,,,0,,04-02-22,04-02-22,11:42:38,Fri Mar 04 2022 11:42:38 GMT+0100 (közép-európai téli idő),The main experiment item,yes,0,0,C:/Users/rrics/Documents/!!ResearchBMECOGSCI/gnet,0,0,0,prototype4.png,no,mono,no,18,no,black,no,no,768,1176,3.5.6,legacy,xpyriment,osweb,1.3.13,0,space,space,space,,23864,25056,23864,,2,legacy,728,1366,24,768,24,0,0,1366,1646390562343,1024,2,48000,-16,experiment,p2sarr1.png,0,even,Win32,222,137106,134093,222,222,213221,214735,208224,138625,208223,222,,,,,,visual_patterns,0,0,0,yes,1366
undefined,undefined,undefined,undefined,white,no,Mozilla,Netscape,"5.0 (Windows NT 10.0; Win64; x64) AppleWebKit/537.36 (KHTML, like Gecko) Chrome/99.0.4844.51 Safari/537.36",xpyriment,legacy,legacy,0,uniform,0,0,0,0,24,24,24,0,0,8,8,8,8,8,0,8,0,,,,,,0,,04-02-22,04-02-22,11:42:38,Fri Mar 04 2022 11:42:38 GMT+0100 (közép-európai téli idő),The main experiment item,yes,0,0,C:/Users/rrics/Documents/!!ResearchBMECOGSCI/gnet,0,0,0,prototype4.png,no,mono,no,18,no,black,no,no,768,1176,3.5.6,legacy,xpyriment,osweb,1.3.13,0,space,space,space,,23864,25056,23864,,2,legacy,728,1366,24,768,24,0,0,1366,1646390562343,1024,2,48000,-16,experiment,prototype4.png,0,even,Win32,222,137106,134093,222,222,219754,221269,214753,138625,214753,222,,,,,,visual_patterns,0,0,0,yes,1366
undefined,undefined,undefined,undefined,white,no,Mozilla,Netscape,"5.0 (Windows NT 10.0; Win64; x64) AppleWebKit/537.36 (KHTML, like Gecko) Chrome/99.0.4844.51 Safari/537.36",xpyriment,legacy,legacy,0,uniform,0,0,0,0,24,24,24,0,0,9,9,9,9,9,0,9,0,,,,,,0,,04-02-22,04-02-22,11:42:38,Fri Mar 04 2022 11:42:38 GMT+0100 (közép-európai téli idő),The main experiment item,yes,0,0,C:/Users/rrics/Documents/!!ResearchBMECOGSCI/gnet,0,0,0,prototype4.png,no,mono,no,18,no,black,no,no,768,1176,3.5.6,legacy,xpyriment,osweb,1.3.13,0,space,space,space,,23864,25056,23864,,2,legacy,728,1366,24,768,24,0,0,1366,1646390562343,1024,2,48000,-16,experiment,p5sarrsha1.png,0,even,Win32,222,137106,134093,222,222,226295,227801,221309,138625,221309,222,,,,,,visual_patterns,0,0,0,yes,1366
undefined,undefined,undefined,undefined,white,no,Mozilla,Netscape,"5.0 (Windows NT 10.0; Win64; x64) AppleWebKit/537.36 (KHTML, like Gecko) Chrome/99.0.4844.51 Safari/537.36",xpyriment,legacy,legacy,0,uniform,0,0,0,0,24,24,24,0,0,10,10,10,10,10,0,10,0,,,,,,0,,04-02-22,04-02-22,11:42:38,Fri Mar 04 2022 11:42:38 GMT+0100 (közép-európai téli idő),The main experiment item,yes,0,0,C:/Users/rrics/Documents/!!ResearchBMECOGSCI/gnet,0,0,0,prototype4.png,no,mono,no,18,no,black,no,no,768,1176,3.5.6,legacy,xpyriment,osweb,1.3.13,0,space,space,space,,23864,25056,23864,,2,legacy,728,1366,24,768,24,0,0,1366,1646390562343,1024,2,48000,-16,experiment,p5sarrcol1.png,0,even,Win32,222,137106,134093,222,222,232818,234334,227822,138625,227822,222,,,,,,visual_patterns,0,0,0,yes,1366
undefined,undefined,undefined,undefined,white,no,Mozilla,Netscape,"5.0 (Windows NT 10.0; Win64; x64) AppleWebKit/537.36 (KHTML, like Gecko) Chrome/99.0.4844.51 Safari/537.36",xpyriment,legacy,legacy,0,uniform,0,0,0,0,24,24,24,0,0,11,11,11,11,11,0,11,0,,,,,,0,,04-02-22,04-02-22,11:42:38,Fri Mar 04 2022 11:42:38 GMT+0100 (közép-európai téli idő),The main experiment item,yes,0,0,C:/Users/rrics/Documents/!!ResearchBMECOGSCI/gnet,0,0,0,prototype4.png,no,mono,no,18,no,black,no,no,768,1176,3.5.6,legacy,xpyriment,osweb,1.3.13,0,space,space,space,,23864,25056,23864,,2,legacy,728,1366,24,768,24,0,0,1366,1646390562343,1024,2,48000,-16,experiment,p8sarr2.png,0,even,Win32,222,137106,134093,222,222,239349,240850,234358,138625,234357,222,,,,,,visual_patterns,0,0,0,yes,1366
undefined,undefined,undefined,undefined,white,no,Mozilla,Netscape,"5.0 (Windows NT 10.0; Win64; x64) AppleWebKit/537.36 (KHTML, like Gecko) Chrome/99.0.4844.51 Safari/537.36",xpyriment,legacy,legacy,0,uniform,0,0,0,0,24,24,24,0,0,12,12,12,12,12,0,12,0,,,,,,0,,04-02-22,04-02-22,11:42:38,Fri Mar 04 2022 11:42:38 GMT+0100 (közép-európai téli idő),The main experiment item,yes,0,0,C:/Users/rrics/Documents/!!ResearchBMECOGSCI/gnet,0,0,0,prototype4.png,no,mono,no,18,no,black,no,no,768,1176,3.5.6,legacy,xpyriment,osweb,1.3.13,0,space,space,space,,23864,25056,23864,,2,legacy,728,1366,24,768,24,0,0,1366,1646390562343,1024,2,48000,-16,experiment,p5sarrshacol2.png,0,even,Win32,222,137106,134093,222,222,245867,247383,240872,138625,240871,222,,,,,,visual_patterns,0,0,0,yes,1366
undefined,undefined,undefined,undefined,white,no,Mozilla,Netscape,"5.0 (Windows NT 10.0; Win64; x64) AppleWebKit/537.36 (KHTML, like Gecko) Chrome/99.0.4844.51 Safari/537.36",xpyriment,legacy,legacy,0,uniform,0,0,0,0,24,24,24,0,0,13,13,13,13,13,0,13,0,,,,,,0,,04-02-22,04-02-22,11:42:38,Fri Mar 04 2022 11:42:38 GMT+0100 (közép-európai téli idő),The main experiment item,yes,0,0,C:/Users/rrics/Documents/!!ResearchBMECOGSCI/gnet,0,0,0,prototype4.png,no,mono,no,18,no,black,no,no,768,1176,3.5.6,legacy,xpyriment,osweb,1.3.13,0,space,space,space,,23864,25056,23864,,2,legacy,728,1366,24,768,24,0,0,1366,1646390562343,1024,2,48000,-16,experiment,p8sarr1.png,0,even,Win32,222,137106,134093,222,222,252405,253916,247409,138625,247409,222,,,,,,visual_patterns,0,0,0,yes,1366
undefined,undefined,undefined,undefined,white,no,Mozilla,Netscape,"5.0 (Windows NT 10.0; Win64; x64) AppleWebKit/537.36 (KHTML, like Gecko) Chrome/99.0.4844.51 Safari/537.36",xpyriment,legacy,legacy,0,uniform,0,0,0,0,24,24,24,0,0,14,14,14,14,14,0,14,0,,,,,,0,,04-02-22,04-02-22,11:42:38,Fri Mar 04 2022 11:42:38 GMT+0100 (közép-európai téli idő),The main experiment item,yes,0,0,C:/Users/rrics/Documents/!!ResearchBMECOGSCI/gnet,0,0,0,prototype4.png,no,mono,no,18,no,black,no,no,768,1176,3.5.6,legacy,xpyriment,osweb,1.3.13,0,space,space,space,,23864,25056,23864,,2,legacy,728,1366,24,768,24,0,0,1366,1646390562343,1024,2,48000,-16,experiment,p3sarrcol1.png,0,even,Win32,222,137106,134093,222,222,258930,260432,253940,138625,253940,222,,,,,,visual_patterns,0,0,0,yes,1366
undefined,undefined,undefined,undefined,white,no,Mozilla,Netscape,"5.0 (Windows NT 10.0; Win64; x64) AppleWebKit/537.36 (KHTML, like Gecko) Chrome/99.0.4844.51 Safari/537.36",xpyriment,legacy,legacy,0,uniform,0,0,0,0,24,24,24,0,0,15,15,15,15,15,0,15,0,,,,,,0,,04-02-22,04-02-22,11:42:38,Fri Mar 04 2022 11:42:38 GMT+0100 (közép-európai téli idő),The main experiment item,yes,0,0,C:/Users/rrics/Documents/!!ResearchBMECOGSCI/gnet,0,0,0,prototype4.png,no,mono,no,18,no,black,no,no,768,1176,3.5.6,legacy,xpyriment,osweb,1.3.13,0,space,space,space,,23864,25056,23864,,2,legacy,728,1366,24,768,24,0,0,1366,1646390562343,1024,2,48000,-16,experiment,prototype1.png,0,even,Win32,222,137106,134093,222,222,265453,266965,260455,138625,260455,222,,,,,,visual_patterns,0,0,0,yes,1366
undefined,undefined,undefined,undefined,white,no,Mozilla,Netscape,"5.0 (Windows NT 10.0; Win64; x64) AppleWebKit/537.36 (KHTML, like Gecko) Chrome/99.0.4844.51 Safari/537.36",xpyriment,legacy,legacy,0,uniform,0,0,0,0,24,24,24,0,0,16,16,16,16,16,0,16,0,,,,,,0,,04-02-22,04-02-22,11:42:38,Fri Mar 04 2022 11:42:38 GMT+0100 (közép-európai téli idő),The main experiment item,yes,0,0,C:/Users/rrics/Documents/!!ResearchBMECOGSCI/gnet,0,0,0,prototype4.png,no,mono,no,18,no,black,no,no,768,1176,3.5.6,legacy,xpyriment,osweb,1.3.13,0,space,space,space,,23864,25056,23864,,2,legacy,728,1366,24,768,24,0,0,1366,1646390562343,1024,2,48000,-16,experiment,p2sarr2.png,0,even,Win32,222,137106,134093,222,222,271983,273498,266987,138625,266987,222,,,,,,visual_patterns,0,0,0,yes,1366
undefined,undefined,undefined,undefined,white,no,Mozilla,Netscape,"5.0 (Windows NT 10.0; Win64; x64) AppleWebKit/537.36 (KHTML, like Gecko) Chrome/99.0.4844.51 Safari/537.36",xpyriment,legacy,legacy,0,uniform,0,0,0,0,24,24,24,0,0,17,17,17,17,17,0,17,0,,,,,,0,,04-02-22,04-02-22,11:42:38,Fri Mar 04 2022 11:42:38 GMT+0100 (közép-európai téli idő),The main experiment item,yes,0,0,C:/Users/rrics/Documents/!!ResearchBMECOGSCI/gnet,0,0,0,prototype4.png,no,mono,no,18,no,black,no,no,768,1176,3.5.6,legacy,xpyriment,osweb,1.3.13,0,space,space,space,,23864,25056,23864,,2,legacy,728,1366,24,768,24,0,0,1366,1646390562343,1024,2,48000,-16,experiment,p3sarrsha2.png,0,even,Win32,222,137106,134093,222,222,278515,280031,273523,138625,273523,222,,,,,,visual_patterns,0,0,0,yes,1366
undefined,undefined,undefined,undefined,white,no,Mozilla,Netscape,"5.0 (Windows NT 10.0; Win64; x64) AppleWebKit/537.36 (KHTML, like Gecko) Chrome/99.0.4844.51 Safari/537.36",xpyriment,legacy,legacy,0,uniform,0,0,0,0,24,24,24,0,0,18,18,18,18,18,0,18,0,,,,,,0,,04-02-22,04-02-22,11:42:38,Fri Mar 04 2022 11:42:38 GMT+0100 (közép-európai téli idő),The main experiment item,yes,0,0,C:/Users/rrics/Documents/!!ResearchBMECOGSCI/gnet,0,0,0,prototype4.png,no,mono,no,18,no,black,no,no,768,1176,3.5.6,legacy,xpyriment,osweb,1.3.13,0,space,space,space,,23864,25056,23864,,2,legacy,728,1366,24,768,24,0,0,1366,1646390562343,1024,2,48000,-16,experiment,prototype4.png,0,even,Win32,222,137106,134093,222,222,285048,286565,280050,138625,280050,222,,,,,,visual_patterns,0,0,0,yes,1366
undefined,undefined,undefined,undefined,white,no,Mozilla,Netscape,"5.0 (Windows NT 10.0; Win64; x64) AppleWebKit/537.36 (KHTML, like Gecko) Chrome/99.0.4844.51 Safari/537.36",xpyriment,legacy,legacy,0,uniform,0,0,0,0,24,24,24,0,0,19,19,19,19,19,0,19,0,,,,,,0,,04-02-22,04-02-22,11:42:38,Fri Mar 04 2022 11:42:38 GMT+0100 (közép-európai téli idő),The main experiment item,yes,0,0,C:/Users/rrics/Documents/!!ResearchBMECOGSCI/gnet,0,0,0,prototype4.png,no,mono,no,18,no,black,no,no,768,1176,3.5.6,legacy,xpyriment,osweb,1.3.13,0,space,space,space,,23864,25056,23864,,2,legacy,728,1366,24,768,24,0,0,1366,1646390562343,1024,2,48000,-16,experiment,p3sarrsha1.png,0,even,Win32,222,137106,134093,222,222,291579,293081,286589,138625,286588,222,,,,,,visual_patterns,0,0,0,yes,1366
undefined,undefined,undefined,undefined,white,no,Mozilla,Netscape,"5.0 (Windows NT 10.0; Win64; x64) AppleWebKit/537.36 (KHTML, like Gecko) Chrome/99.0.4844.51 Safari/537.36",xpyriment,legacy,legacy,0,uniform,0,0,0,0,24,24,24,0,0,20,20,20,20,20,0,20,0,,,,,,0,,04-02-22,04-02-22,11:42:38,Fri Mar 04 2022 11:42:38 GMT+0100 (közép-európai téli idő),The main experiment item,yes,0,0,C:/Users/rrics/Documents/!!ResearchBMECOGSCI/gnet,0,0,0,prototype4.png,no,mono,no,18,no,black,no,no,768,1176,3.5.6,legacy,xpyriment,osweb,1.3.13,0,space,space,space,,23864,25056,23864,,2,legacy,728,1366,24,768,24,0,0,1366,1646390562343,1024,2,48000,-16,experiment,prototype2.png,0,even,Win32,222,137106,134093,222,222,298100,299614,293102,138625,293102,222,,,,,,visual_patterns,0,0,0,yes,1366
undefined,undefined,undefined,undefined,white,no,Mozilla,Netscape,"5.0 (Windows NT 10.0; Win64; x64) AppleWebKit/537.36 (KHTML, like Gecko) Chrome/99.0.4844.51 Safari/537.36",xpyriment,legacy,legacy,0,uniform,0,0,0,0,24,24,24,0,0,21,21,21,21,21,0,21,0,,,,,,0,,04-02-22,04-02-22,11:42:38,Fri Mar 04 2022 11:42:38 GMT+0100 (közép-európai téli idő),The main experiment item,yes,0,0,C:/Users/rrics/Documents/!!ResearchBMECOGSCI/gnet,0,0,0,prototype4.png,no,mono,no,18,no,black,no,no,768,1176,3.5.6,legacy,xpyriment,osweb,1.3.13,0,space,space,space,,23864,25056,23864,,2,legacy,728,1366,24,768,24,0,0,1366,1646390562343,1024,2,48000,-16,experiment,p4sarrcol2.png,0,even,Win32,222,137106,134093,222,222,304635,306147,299643,138625,299643,222,,,,,,visual_patterns,0,0,0,yes,1366
undefined,undefined,undefined,undefined,white,no,Mozilla,Netscape,"5.0 (Windows NT 10.0; Win64; x64) AppleWebKit/537.36 (KHTML, like Gecko) Chrome/99.0.4844.51 Safari/537.36",xpyriment,legacy,legacy,0,uniform,0,0,0,0,24,24,24,0,0,22,22,22,22,22,0,22,0,,,,,,0,,04-02-22,04-02-22,11:42:38,Fri Mar 04 2022 11:42:38 GMT+0100 (közép-európai téli idő),The main experiment item,yes,0,0,C:/Users/rrics/Documents/!!ResearchBMECOGSCI/gnet,0,0,0,prototype4.png,no,mono,no,18,no,black,no,no,768,1176,3.5.6,legacy,xpyriment,osweb,1.3.13,0,space,space,space,,23864,25056,23864,,2,legacy,728,1366,24,768,24,0,0,1366,1646390562343,1024,2,48000,-16,experiment,p5sarrshacol1.png,0,even,Win32,222,137106,134093,222,222,311165,312680,306167,138625,306167,222,,,,,,visual_patterns,0,0,0,yes,1366
undefined,undefined,undefined,undefined,white,no,Mozilla,Netscape,"5.0 (Windows NT 10.0; Win64; x64) AppleWebKit/537.36 (KHTML, like Gecko) Chrome/99.0.4844.51 Safari/537.36",xpyriment,legacy,legacy,0,uniform,0,0,0,0,24,24,24,0,0,23,23,23,23,23,0,23,0,,,,,,0,,04-02-22,04-02-22,11:42:38,Fri Mar 04 2022 11:42:38 GMT+0100 (közép-európai téli idő),The main experiment item,yes,0,0,C:/Users/rrics/Documents/!!ResearchBMECOGSCI/gnet,0,0,0,prototype4.png,no,mono,no,18,no,black,no,no,768,1176,3.5.6,legacy,xpyriment,osweb,1.3.13,0,space,space,space,,23864,25056,23864,,2,legacy,728,1366,24,768,24,0,0,1366,1646390562343,1024,2,48000,-16,experiment,prototype2.png,0,even,Win32,222,137106,134093,222,222,317696,319213,312698,138625,312698,222,,,,,,visual_patterns,0,0,0,yes,1366
undefined,undefined,undefined,undefined,white,no,Mozilla,Netscape,"5.0 (Windows NT 10.0; Win64; x64) AppleWebKit/537.36 (KHTML, like Gecko) Chrome/99.0.4844.51 Safari/537.36",xpyriment,legacy,legacy,0,uniform,0,0,0,0,24,24,24,0,0,24,24,24,24,24,0,24,0,,,,,,0,,04-02-22,04-02-22,11:42:38,Fri Mar 04 2022 11:42:38 GMT+0100 (közép-európai téli idő),The main experiment item,yes,0,0,C:/Users/rrics/Documents/!!ResearchBMECOGSCI/gnet,0,0,0,prototype4.png,no,mono,no,18,no,black,no,no,768,1176,3.5.6,legacy,xpyriment,osweb,1.3.13,0,space,space,space,,23864,25056,23864,,2,legacy,728,1366,24,768,24,0,0,1366,1646390562343,1024,2,48000,-16,experiment,p4sarrsha2.png,0,even,Win32,222,137106,134093,222,222,324228,325729,319236,138625,319236,222,,,,,,visual_patterns,0,0,0,yes,1366
undefined,undefined,undefined,undefined,white,no,Mozilla,Netscape,"5.0 (Windows NT 10.0; Win64; x64) AppleWebKit/537.36 (KHTML, like Gecko) Chrome/99.0.4844.51 Safari/537.36",xpyriment,legacy,legacy,0,uniform,0,0,0,0,24,24,24,0,0,25,25,25,25,25,0,25,0,,,,,,0,,04-02-22,04-02-22,11:42:38,Fri Mar 04 2022 11:42:38 GMT+0100 (közép-európai téli idő),The main experiment item,yes,0,0,C:/Users/rrics/Documents/!!ResearchBMECOGSCI/gnet,0,0,0,prototype4.png,no,mono,no,18,no,black,no,no,768,1176,3.5.6,legacy,xpyriment,osweb,1.3.13,0,space,space,space,,23864,25056,23864,,2,legacy,728,1366,24,768,24,0,0,1366,1646390562343,1024,2,48000,-16,experiment,p9sarr1.png,0,even,Win32,222,137106,134093,222,222,330745,332246,325754,138625,325754,222,,,,,,visual_patterns,0,0,0,yes,1366
undefined,undefined,undefined,undefined,white,no,Mozilla,Netscape,"5.0 (Windows NT 10.0; Win64; x64) AppleWebKit/537.36 (KHTML, like Gecko) Chrome/99.0.4844.51 Safari/537.36",xpyriment,legacy,legacy,0,uniform,0,0,0,0,24,24,24,0,0,26,26,26,26,26,0,26,0,,,,,,0,,04-02-22,04-02-22,11:42:38,Fri Mar 04 2022 11:42:38 GMT+0100 (közép-európai téli idő),The main experiment item,yes,0,0,C:/Users/rrics/Documents/!!ResearchBMECOGSCI/gnet,0,0,0,prototype4.png,no,mono,no,18,no,black,no,no,768,1176,3.5.6,legacy,xpyriment,osweb,1.3.13,0,space,space,space,,23864,25056,23864,,2,legacy,728,1366,24,768,24,0,0,1366,1646390562343,1024,2,48000,-16,experiment,prototype1.png,0,even,Win32,222,137106,134093,222,222,337261,338762,332265,138625,332265,222,,,,,,visual_patterns,0,0,0,yes,1366
undefined,undefined,undefined,undefined,white,no,Mozilla,Netscape,"5.0 (Windows NT 10.0; Win64; x64) AppleWebKit/537.36 (KHTML, like Gecko) Chrome/99.0.4844.51 Safari/537.36",xpyriment,legacy,legacy,0,uniform,0,0,0,0,24,24,24,0,0,27,27,27,27,27,0,27,0,,,,,,0,,04-02-22,04-02-22,11:42:38,Fri Mar 04 2022 11:42:38 GMT+0100 (közép-európai téli idő),The main experiment item,yes,0,0,C:/Users/rrics/Documents/!!ResearchBMECOGSCI/gnet,0,0,0,prototype4.png,no,mono,no,18,no,black,no,no,768,1176,3.5.6,legacy,xpyriment,osweb,1.3.13,0,space,space,space,,23864,25056,23864,,2,legacy,728,1366,24,768,24,0,0,1366,1646390562343,1024,2,48000,-16,experiment,p4sarrcol1.png,0,even,Win32,222,137106,134093,222,222,343779,345295,338786,138625,338785,222,,,,,,visual_patterns,0,0,0,yes,1366
undefined,undefined,undefined,undefined,white,no,Mozilla,Netscape,"5.0 (Windows NT 10.0; Win64; x64) AppleWebKit/537.36 (KHTML, like Gecko) Chrome/99.0.4844.51 Safari/537.36",xpyriment,legacy,legacy,0,uniform,0,0,0,0,24,24,24,0,0,28,28,28,28,28,0,28,0,,,,,,0,,04-02-22,04-02-22,11:42:38,Fri Mar 04 2022 11:42:38 GMT+0100 (közép-európai téli idő),The main experiment item,yes,0,0,C:/Users/rrics/Documents/!!ResearchBMECOGSCI/gnet,0,0,0,prototype4.png,no,mono,no,18,no,black,no,no,768,1176,3.5.6,legacy,xpyriment,osweb,1.3.13,0,space,space,space,,23864,25056,23864,,2,legacy,728,1366,24,768,24,0,0,1366,1646390562343,1024,2,48000,-16,experiment,prototype4.png,0,even,Win32,222,137106,134093,222,222,350312,351828,345313,138625,345313,222,,,,,,visual_patterns,0,0,0,yes,1366
undefined,undefined,undefined,undefined,white,no,Mozilla,Netscape,"5.0 (Windows NT 10.0; Win64; x64) AppleWebKit/537.36 (KHTML, like Gecko) Chrome/99.0.4844.51 Safari/537.36",xpyriment,legacy,legacy,0,uniform,0,0,0,0,24,24,24,0,0,29,29,29,29,29,0,29,0,,,,,,0,,04-02-22,04-02-22,11:42:38,Fri Mar 04 2022 11:42:38 GMT+0100 (közép-európai téli idő),The main experiment item,yes,0,0,C:/Users/rrics/Documents/!!ResearchBMECOGSCI/gnet,0,0,0,prototype4.png,no,mono,no,18,no,black,no,no,768,1176,3.5.6,legacy,xpyriment,osweb,1.3.13,0,space,space,space,,23864,25056,23864,,2,legacy,728,1366,24,768,24,0,0,1366,1646390562343,1024,2,48000,-16,experiment,prototype5.png,0,even,Win32,222,137106,134093,222,222,356844,358361,351847,138625,351846,222,,,,,,visual_patterns,0,0,0,yes,1366
undefined,undefined,undefined,undefined,white,no,Mozilla,Netscape,"5.0 (Windows NT 10.0; Win64; x64) AppleWebKit/537.36 (KHTML, like Gecko) Chrome/99.0.4844.51 Safari/537.36",xpyriment,legacy,legacy,0,uniform,0,0,0,0,24,24,24,0,0,30,30,30,30,30,0,30,0,,,,,,0,,04-02-22,04-02-22,11:42:38,Fri Mar 04 2022 11:42:38 GMT+0100 (közép-európai téli idő),The main experiment item,yes,0,0,C:/Users/rrics/Documents/!!ResearchBMECOGSCI/gnet,0,0,0,prototype4.png,no,mono,no,18,no,black,no,no,768,1176,3.5.6,legacy,xpyriment,osweb,1.3.13,0,space,space,space,,23864,25056,23864,,2,legacy,728,1366,24,768,24,0,0,1366,1646390562343,1024,2,48000,-16,experiment,p5sarrcol2.png,0,even,Win32,222,137106,134093,222,222,363379,364894,358386,138625,358386,222,,,,,,visual_patterns,0,0,0,yes,1366
undefined,undefined,undefined,undefined,white,no,Mozilla,Netscape,"5.0 (Windows NT 10.0; Win64; x64) AppleWebKit/537.36 (KHTML, like Gecko) Chrome/99.0.4844.51 Safari/537.36",xpyriment,legacy,legacy,0,uniform,0,0,0,0,24,24,24,0,0,31,31,31,31,31,0,31,0,,,,,,0,,04-02-22,04-02-22,11:42:38,Fri Mar 04 2022 11:42:38 GMT+0100 (közép-európai téli idő),The main experiment item,yes,0,0,C:/Users/rrics/Documents/!!ResearchBMECOGSCI/gnet,0,0,0,prototype4.png,no,mono,no,18,no,black,no,no,768,1176,3.5.6,legacy,xpyriment,osweb,1.3.13,0,space,space,space,,23864,25056,23864,,2,legacy,728,1366,24,768,24,0,0,1366,1646390562343,1024,2,48000,-16,experiment,p2sarrsha2.png,0,even,Win32,222,137106,134093,222,222,369916,371427,364929,138625,364929,222,,,,,,visual_patterns,0,0,0,yes,1366
undefined,undefined,undefined,undefined,white,no,Mozilla,Netscape,"5.0 (Windows NT 10.0; Win64; x64) AppleWebKit/537.36 (KHTML, like Gecko) Chrome/99.0.4844.51 Safari/537.36",xpyriment,legacy,legacy,0,uniform,0,0,0,0,24,24,24,0,0,32,32,32,32,32,0,32,0,,,,,,0,,04-02-22,04-02-22,11:42:38,Fri Mar 04 2022 11:42:38 GMT+0100 (közép-európai téli idő),The main experiment item,yes,0,0,C:/Users/rrics/Documents/!!ResearchBMECOGSCI/gnet,0,0,0,prototype4.png,no,mono,no,18,no,black,no,no,768,1176,3.5.6,legacy,xpyriment,osweb,1.3.13,0,space,space,space,,23864,25056,23864,,2,legacy,728,1366,24,768,24,0,0,1366,1646390562343,1024,2,48000,-16,experiment,p5sarr1.png,0,even,Win32,222,137106,134093,222,222,376434,377943,371439,138625,371439,222,,,,,,visual_patterns,0,0,0,yes,1366
undefined,undefined,undefined,undefined,white,no,Mozilla,Netscape,"5.0 (Windows NT 10.0; Win64; x64) AppleWebKit/537.36 (KHTML, like Gecko) Chrome/99.0.4844.51 Safari/537.36",xpyriment,legacy,legacy,0,uniform,0,0,0,0,24,24,24,0,0,33,33,33,33,33,0,33,0,,,,,,0,,04-02-22,04-02-22,11:42:38,Fri Mar 04 2022 11:42:38 GMT+0100 (közép-európai téli idő),The main experiment item,yes,0,0,C:/Users/rrics/Documents/!!ResearchBMECOGSCI/gnet,0,0,0,prototype4.png,no,mono,no,18,no,black,no,no,768,1176,3.5.6,legacy,xpyriment,osweb,1.3.13,0,space,space,space,,23864,25056,23864,,2,legacy,728,1366,24,768,24,0,0,1366,1646390562343,1024,2,48000,-16,experiment,p3sarrshacol1.png,0,even,Win32,222,137106,134093,222,222,382957,384460,377969,138625,377969,222,,,,,,visual_patterns,0,0,0,yes,1366
undefined,undefined,undefined,undefined,white,no,Mozilla,Netscape,"5.0 (Windows NT 10.0; Win64; x64) AppleWebKit/537.36 (KHTML, like Gecko) Chrome/99.0.4844.51 Safari/537.36",xpyriment,legacy,legacy,0,uniform,0,0,0,0,24,24,24,0,0,34,34,34,34,34,0,34,0,,,,,,0,,04-02-22,04-02-22,11:42:38,Fri Mar 04 2022 11:42:38 GMT+0100 (közép-európai téli idő),The main experiment item,yes,0,0,C:/Users/rrics/Documents/!!ResearchBMECOGSCI/gnet,0,0,0,prototype4.png,no,mono,no,18,no,black,no,no,768,1176,3.5.6,legacy,xpyriment,osweb,1.3.13,0,space,space,space,,23864,25056,23864,,2,legacy,728,1366,24,768,24,0,0,1366,1646390562343,1024,2,48000,-16,experiment,prototype1.png,0,even,Win32,222,137106,134093,222,222,389477,390993,384479,138625,384479,222,,,,,,visual_patterns,0,0,0,yes,1366
undefined,undefined,undefined,undefined,white,no,Mozilla,Netscape,"5.0 (Windows NT 10.0; Win64; x64) AppleWebKit/537.36 (KHTML, like Gecko) Chrome/99.0.4844.51 Safari/537.36",xpyriment,legacy,legacy,0,uniform,0,0,0,0,24,24,24,0,0,35,35,35,35,35,0,35,0,,,,,,0,,04-02-22,04-02-22,11:42:38,Fri Mar 04 2022 11:42:38 GMT+0100 (közép-európai téli idő),The main experiment item,yes,0,0,C:/Users/rrics/Documents/!!ResearchBMECOGSCI/gnet,0,0,0,prototype4.png,no,mono,no,18,no,black,no,no,768,1176,3.5.6,legacy,xpyriment,osweb,1.3.13,0,space,space,space,,23864,25056,23864,,2,legacy,728,1366,24,768,24,0,0,1366,1646390562343,1024,2,48000,-16,experiment,p4sarrshacol1.png,0,even,Win32,222,137106,134093,222,222,396008,397509,391015,138625,391015,222,,,,,,visual_patterns,0,0,0,yes,1366
undefined,undefined,undefined,undefined,white,no,Mozilla,Netscape,"5.0 (Windows NT 10.0; Win64; x64) AppleWebKit/537.36 (KHTML, like Gecko) Chrome/99.0.4844.51 Safari/537.36",xpyriment,legacy,legacy,0,uniform,0,0,0,0,24,24,24,0,0,36,36,36,36,36,0,36,0,,,,,,0,,04-02-22,04-02-22,11:42:38,Fri Mar 04 2022 11:42:38 GMT+0100 (közép-európai téli idő),The main experiment item,yes,0,0,C:/Users/rrics/Documents/!!ResearchBMECOGSCI/gnet,0,0,0,prototype4.png,no,mono,no,18,no,black,no,no,768,1176,3.5.6,legacy,xpyriment,osweb,1.3.13,0,space,space,space,,23864,25056,23864,,2,legacy,728,1366,24,768,24,0,0,1366,1646390562343,1024,2,48000,-16,experiment,prototype3.png,0,even,Win32,222,137106,134093,222,222,402559,404076,397558,138625,397557,222,,,,,,visual_patterns,0,0,0,yes,1366
undefined,undefined,undefined,undefined,white,no,Mozilla,Netscape,"5.0 (Windows NT 10.0; Win64; x64) AppleWebKit/537.36 (KHTML, like Gecko) Chrome/99.0.4844.51 Safari/537.36",xpyriment,legacy,legacy,0,uniform,0,0,0,0,24,24,24,0,0,37,37,37,37,37,0,37,0,,,,,,0,,04-02-22,04-02-22,11:42:38,Fri Mar 04 2022 11:42:38 GMT+0100 (közép-európai téli idő),The main experiment item,yes,0,0,C:/Users/rrics/Documents/!!ResearchBMECOGSCI/gnet,0,0,0,prototype4.png,no,mono,no,18,no,black,no,no,768,1176,3.5.6,legacy,xpyriment,osweb,1.3.13,0,space,space,space,,23864,25056,23864,,2,legacy,728,1366,24,768,24,0,0,1366,1646390562343,1024,2,48000,-16,experiment,prototype3.png,0,even,Win32,222,137106,134093,222,222,409093,410608,404094,138625,404094,222,,,,,,visual_patterns,0,0,0,yes,1366
undefined,undefined,undefined,undefined,white,no,Mozilla,Netscape,"5.0 (Windows NT 10.0; Win64; x64) AppleWebKit/537.36 (KHTML, like Gecko) Chrome/99.0.4844.51 Safari/537.36",xpyriment,legacy,legacy,0,uniform,0,0,0,0,24,24,24,0,0,38,38,38,38,38,0,38,0,,,,,,0,,04-02-22,04-02-22,11:42:38,Fri Mar 04 2022 11:42:38 GMT+0100 (közép-európai téli idő),The main experiment item,yes,0,0,C:/Users/rrics/Documents/!!ResearchBMECOGSCI/gnet,0,0,0,prototype4.png,no,mono,no,18,no,black,no,no,768,1176,3.5.6,legacy,xpyriment,osweb,1.3.13,0,space,space,space,,23864,25056,23864,,2,legacy,728,1366,24,768,24,0,0,1366,1646390562343,1024,2,48000,-16,experiment,p7sarr1.png,0,even,Win32,222,137106,134093,222,222,415618,417125,410620,138625,410620,222,,,,,,visual_patterns,0,0,0,yes,1366
undefined,undefined,undefined,undefined,white,no,Mozilla,Netscape,"5.0 (Windows NT 10.0; Win64; x64) AppleWebKit/537.36 (KHTML, like Gecko) Chrome/99.0.4844.51 Safari/537.36",xpyriment,legacy,legacy,0,uniform,0,0,0,0,24,24,24,0,0,39,39,39,39,39,0,39,0,,,,,,0,,04-02-22,04-02-22,11:42:38,Fri Mar 04 2022 11:42:38 GMT+0100 (közép-európai téli idő),The main experiment item,yes,0,0,C:/Users/rrics/Documents/!!ResearchBMECOGSCI/gnet,0,0,0,prototype4.png,no,mono,no,18,no,black,no,no,768,1176,3.5.6,legacy,xpyriment,osweb,1.3.13,0,space,space,space,,23864,25056,23864,,2,legacy,728,1366,24,768,24,0,0,1366,1646390562343,1024,2,48000,-16,experiment,p1sarrsha1.png,0,even,Win32,222,137106,134093,222,222,422143,423658,417151,138625,417151,222,,,,,,visual_patterns,0,0,0,yes,1366
undefined,undefined,undefined,undefined,white,no,Mozilla,Netscape,"5.0 (Windows NT 10.0; Win64; x64) AppleWebKit/537.36 (KHTML, like Gecko) Chrome/99.0.4844.51 Safari/537.36",xpyriment,legacy,legacy,0,uniform,0,0,0,0,24,24,24,0,0,40,40,40,40,40,0,40,0,,,,,,0,,04-02-22,04-02-22,11:42:38,Fri Mar 04 2022 11:42:38 GMT+0100 (közép-európai téli idő),The main experiment item,yes,0,0,C:/Users/rrics/Documents/!!ResearchBMECOGSCI/gnet,0,0,0,prototype4.png,no,mono,no,18,no,black,no,no,768,1176,3.5.6,legacy,xpyriment,osweb,1.3.13,0,space,space,space,,23864,25056,23864,,2,legacy,728,1366,24,768,24,0,0,1366,1646390562343,1024,2,48000,-16,experiment,prototype5.png,0,even,Win32,222,137106,134093,222,222,428678,430191,423676,138625,423676,222,,,,,,visual_patterns,0,0,0,yes,1366
undefined,undefined,undefined,undefined,white,no,Mozilla,Netscape,"5.0 (Windows NT 10.0; Win64; x64) AppleWebKit/537.36 (KHTML, like Gecko) Chrome/99.0.4844.51 Safari/537.36",xpyriment,legacy,legacy,0,uniform,0,0,0,0,24,24,24,0,0,41,41,41,41,41,0,41,0,,,,,,0,,04-02-22,04-02-22,11:42:38,Fri Mar 04 2022 11:42:38 GMT+0100 (közép-európai téli idő),The main experiment item,yes,0,0,C:/Users/rrics/Documents/!!ResearchBMECOGSCI/gnet,0,0,0,prototype4.png,no,mono,no,18,no,black,no,no,768,1176,3.5.6,legacy,xpyriment,osweb,1.3.13,0,space,space,space,,23864,25056,23864,,2,legacy,728,1366,24,768,24,0,0,1366,1646390562343,1024,2,48000,-16,experiment,p3sarrshacol2.png,0,even,Win32,222,137106,134093,222,222,435209,436724,430216,138625,430216,222,,,,,,visual_patterns,0,0,0,yes,1366
undefined,undefined,undefined,undefined,white,no,Mozilla,Netscape,"5.0 (Windows NT 10.0; Win64; x64) AppleWebKit/537.36 (KHTML, like Gecko) Chrome/99.0.4844.51 Safari/537.36",xpyriment,legacy,legacy,0,uniform,0,0,0,0,24,24,24,0,0,42,42,42,42,42,0,42,0,,,,,,0,,04-02-22,04-02-22,11:42:38,Fri Mar 04 2022 11:42:38 GMT+0100 (közép-európai téli idő),The main experiment item,yes,0,0,C:/Users/rrics/Documents/!!ResearchBMECOGSCI/gnet,0,0,0,prototype4.png,no,mono,no,18,no,black,no,no,768,1176,3.5.6,legacy,xpyriment,osweb,1.3.13,0,space,space,space,,23864,25056,23864,,2,legacy,728,1366,24,768,24,0,0,1366,1646390562343,1024,2,48000,-16,experiment,p3sarrcol2.png,0,even,Win32,222,137106,134093,222,222,441743,443257,436750,138625,436750,222,,,,,,visual_patterns,0,0,0,yes,1366
undefined,undefined,undefined,undefined,white,no,Mozilla,Netscape,"5.0 (Windows NT 10.0; Win64; x64) AppleWebKit/537.36 (KHTML, like Gecko) Chrome/99.0.4844.51 Safari/537.36",xpyriment,legacy,legacy,0,uniform,0,0,0,0,24,24,24,0,0,43,43,43,43,43,0,43,0,,,,,,0,,04-02-22,04-02-22,11:42:38,Fri Mar 04 2022 11:42:38 GMT+0100 (közép-európai téli idő),The main experiment item,yes,0,0,C:/Users/rrics/Documents/!!ResearchBMECOGSCI/gnet,0,0,0,prototype4.png,no,mono,no,18,no,black,no,no,768,1176,3.5.6,legacy,xpyriment,osweb,1.3.13,0,space,space,space,,23864,25056,23864,,2,legacy,728,1366,24,768,24,0,0,1366,1646390562343,1024,2,48000,-16,experiment,p3sarr2.png,0,even,Win32,222,137106,134093,222,222,448276,449790,443280,138625,443280,222,,,,,,visual_patterns,0,0,0,yes,1366
undefined,undefined,undefined,undefined,white,no,Mozilla,Netscape,"5.0 (Windows NT 10.0; Win64; x64) AppleWebKit/537.36 (KHTML, like Gecko) Chrome/99.0.4844.51 Safari/537.36",xpyriment,legacy,legacy,0,uniform,0,0,0,0,24,24,24,0,0,44,44,44,44,44,0,44,0,,,,,,0,,04-02-22,04-02-22,11:42:38,Fri Mar 04 2022 11:42:38 GMT+0100 (közép-európai téli idő),The main experiment item,yes,0,0,C:/Users/rrics/Documents/!!ResearchBMECOGSCI/gnet,0,0,0,prototype4.png,no,mono,no,18,no,black,no,no,768,1176,3.5.6,legacy,xpyriment,osweb,1.3.13,0,space,space,space,,23864,25056,23864,,2,legacy,728,1366,24,768,24,0,0,1366,1646390562343,1024,2,48000,-16,experiment,p2sarrsha1.png,0,even,Win32,222,137106,134093,222,222,454804,456306,449813,138625,449813,222,,,,,,visual_patterns,0,0,0,yes,1366
undefined,undefined,undefined,undefined,white,no,Mozilla,Netscape,"5.0 (Windows NT 10.0; Win64; x64) AppleWebKit/537.36 (KHTML, like Gecko) Chrome/99.0.4844.51 Safari/537.36",xpyriment,legacy,legacy,0,uniform,0,0,0,0,24,24,24,0,0,45,45,45,45,45,0,45,0,,,,,,0,,04-02-22,04-02-22,11:42:38,Fri Mar 04 2022 11:42:38 GMT+0100 (közép-európai téli idő),The main experiment item,yes,0,0,C:/Users/rrics/Documents/!!ResearchBMECOGSCI/gnet,0,0,0,prototype4.png,no,mono,no,18,no,black,no,no,768,1176,3.5.6,legacy,xpyriment,osweb,1.3.13,0,space,space,space,,23864,25056,23864,,2,legacy,728,1366,24,768,24,0,0,1366,1646390562343,1024,2,48000,-16,experiment,p4sarrsha1.png,0,even,Win32,222,137106,134093,222,222,461324,462839,456328,138625,456328,222,,,,,,visual_patterns,0,0,0,yes,1366
undefined,undefined,undefined,undefined,white,no,Mozilla,Netscape,"5.0 (Windows NT 10.0; Win64; x64) AppleWebKit/537.36 (KHTML, like Gecko) Chrome/99.0.4844.51 Safari/537.36",xpyriment,legacy,legacy,0,uniform,0,0,0,0,24,24,24,0,0,46,46,46,46,46,0,46,0,,,,,,0,,04-02-22,04-02-22,11:42:38,Fri Mar 04 2022 11:42:38 GMT+0100 (közép-európai téli idő),The main experiment item,yes,0,0,C:/Users/rrics/Documents/!!ResearchBMECOGSCI/gnet,0,0,0,prototype4.png,no,mono,no,18,no,black,no,no,768,1176,3.5.6,legacy,xpyriment,osweb,1.3.13,0,space,space,space,,23864,25056,23864,,2,legacy,728,1366,24,768,24,0,0,1366,1646390562343,1024,2,48000,-16,experiment,p1sarrcol1.png,0,even,Win32,222,137106,134093,222,222,467857,469372,462863,138625,462862,222,,,,,,visual_patterns,0,0,0,yes,1366
undefined,undefined,undefined,undefined,white,no,Mozilla,Netscape,"5.0 (Windows NT 10.0; Win64; x64) AppleWebKit/537.36 (KHTML, like Gecko) Chrome/99.0.4844.51 Safari/537.36",xpyriment,legacy,legacy,0,uniform,0,0,0,0,24,24,24,0,0,47,47,47,47,47,0,47,0,,,,,,0,,04-02-22,04-02-22,11:42:38,Fri Mar 04 2022 11:42:38 GMT+0100 (közép-európai téli idő),The main experiment item,yes,0,0,C:/Users/rrics/Documents/!!ResearchBMECOGSCI/gnet,0,0,0,prototype4.png,no,mono,no,18,no,black,no,no,768,1176,3.5.6,legacy,xpyriment,osweb,1.3.13,0,space,space,space,,23864,25056,23864,,2,legacy,728,1366,24,768,24,0,0,1366,1646390562343,1024,2,48000,-16,experiment,p1sarrsha2.png,0,even,Win32,222,137106,134093,222,222,474390,475906,469396,138625,469395,222,,,,,,visual_patterns,0,0,0,yes,1366
undefined,undefined,undefined,undefined,white,no,Mozilla,Netscape,"5.0 (Windows NT 10.0; Win64; x64) AppleWebKit/537.36 (KHTML, like Gecko) Chrome/99.0.4844.51 Safari/537.36",xpyriment,legacy,legacy,0,uniform,0,0,0,0,24,24,24,0,0,48,48,48,48,48,0,48,0,,,,,,0,,04-02-22,04-02-22,11:42:38,Fri Mar 04 2022 11:42:38 GMT+0100 (közép-európai téli idő),The main experiment item,yes,0,0,C:/Users/rrics/Documents/!!ResearchBMECOGSCI/gnet,0,0,0,prototype4.png,no,mono,no,18,no,black,no,no,768,1176,3.5.6,legacy,xpyriment,osweb,1.3.13,0,space,space,space,,23864,25056,23864,,2,legacy,728,1366,24,768,24,0,0,1366,1646390562343,1024,2,48000,-16,experiment,p7sarr2.png,0,even,Win32,222,137106,134093,222,222,480920,482422,475926,138625,475926,222,,,,,,visual_patterns,0,0,0,yes,1366
undefined,undefined,undefined,undefined,white,no,Mozilla,Netscape,"5.0 (Windows NT 10.0; Win64; x64) AppleWebKit/537.36 (KHTML, like Gecko) Chrome/99.0.4844.51 Safari/537.36",xpyriment,legacy,legacy,0,uniform,0,0,0,0,24,24,24,0,0,49,49,49,49,49,0,49,0,,,,,,0,,04-02-22,04-02-22,11:42:38,Fri Mar 04 2022 11:42:38 GMT+0100 (közép-európai téli idő),The main experiment item,yes,0,0,C:/Users/rrics/Documents/!!ResearchBMECOGSCI/gnet,0,0,0,prototype4.png,no,mono,no,18,no,black,no,no,768,1176,3.5.6,legacy,xpyriment,osweb,1.3.13,0,space,space,space,,23864,25056,23864,,2,legacy,728,1366,24,768,24,0,0,1366,1646390562343,1024,2,48000,-16,experiment,p4sarr1.png,0,even,Win32,222,137106,134093,222,222,487441,488955,482450,138625,482449,222,,,,,,visual_patterns,0,0,0,yes,1366
undefined,undefined,undefined,undefined,white,no,Mozilla,Netscape,"5.0 (Windows NT 10.0; Win64; x64) AppleWebKit/537.36 (KHTML, like Gecko) Chrome/99.0.4844.51 Safari/537.36",xpyriment,legacy,legacy,0,uniform,0,0,0,0,24,24,24,0,0,50,50,50,50,50,0,50,0,,,,,,0,,04-02-22,04-02-22,11:42:38,Fri Mar 04 2022 11:42:38 GMT+0100 (közép-európai téli idő),The main experiment item,yes,0,0,C:/Users/rrics/Documents/!!ResearchBMECOGSCI/gnet,0,0,0,prototype4.png,no,mono,no,18,no,black,no,no,768,1176,3.5.6,legacy,xpyriment,osweb,1.3.13,0,space,space,space,,23864,25056,23864,,2,legacy,728,1366,24,768,24,0,0,1366,1646390562343,1024,2,48000,-16,experiment,p10sarr1.png,0,even,Win32,222,137106,134093,222,222,493972,495488,488978,138625,488978,222,,,,,,visual_patterns,0,0,0,yes,1366
undefined,undefined,undefined,undefined,white,no,Mozilla,Netscape,"5.0 (Windows NT 10.0; Win64; x64) AppleWebKit/537.36 (KHTML, like Gecko) Chrome/99.0.4844.51 Safari/537.36",xpyriment,legacy,legacy,0,uniform,0,0,0,0,24,24,24,0,0,51,51,51,51,51,0,51,0,,,,,,0,,04-02-22,04-02-22,11:42:38,Fri Mar 04 2022 11:42:38 GMT+0100 (közép-európai téli idő),The main experiment item,yes,0,0,C:/Users/rrics/Documents/!!ResearchBMECOGSCI/gnet,0,0,0,prototype4.png,no,mono,no,18,no,black,no,no,768,1176,3.5.6,legacy,xpyriment,osweb,1.3.13,0,space,space,space,,23864,25056,23864,,2,legacy,728,1366,24,768,24,0,0,1366,1646390562343,1024,2,48000,-16,experiment,prototype3.png,0,even,Win32,222,137106,134093,222,222,500505,502021,495507,138625,495507,222,,,,,,visual_patterns,0,0,0,yes,1366
undefined,undefined,undefined,undefined,white,no,Mozilla,Netscape,"5.0 (Windows NT 10.0; Win64; x64) AppleWebKit/537.36 (KHTML, like Gecko) Chrome/99.0.4844.51 Safari/537.36",xpyriment,legacy,legacy,0,uniform,0,0,0,0,24,24,24,0,0,52,52,52,52,52,0,52,0,,,,,,0,,04-02-22,04-02-22,11:42:38,Fri Mar 04 2022 11:42:38 GMT+0100 (közép-európai téli idő),The main experiment item,yes,0,0,C:/Users/rrics/Documents/!!ResearchBMECOGSCI/gnet,0,0,0,prototype4.png,no,mono,no,18,no,black,no,no,768,1176,3.5.6,legacy,xpyriment,osweb,1.3.13,0,space,space,space,,23864,25056,23864,,2,legacy,728,1366,24,768,24,0,0,1366,1646390562343,1024,2,48000,-16,experiment,p1sarr1.png,0,even,Win32,222,137106,134093,222,222,507036,508537,502045,138625,502045,222,,,,,,visual_patterns,0,0,0,yes,1366
undefined,undefined,undefined,undefined,white,no,Mozilla,Netscape,"5.0 (Windows NT 10.0; Win64; x64) AppleWebKit/537.36 (KHTML, like Gecko) Chrome/99.0.4844.51 Safari/537.36",xpyriment,legacy,legacy,0,uniform,0,0,0,0,24,24,24,0,0,53,53,53,53,53,0,53,0,,,,,,0,,04-02-22,04-02-22,11:42:38,Fri Mar 04 2022 11:42:38 GMT+0100 (közép-európai téli idő),The main experiment item,yes,0,0,C:/Users/rrics/Documents/!!ResearchBMECOGSCI/gnet,0,0,0,prototype4.png,no,mono,no,18,no,black,no,no,768,1176,3.5.6,legacy,xpyriment,osweb,1.3.13,0,space,space,space,,23864,25056,23864,,2,legacy,728,1366,24,768,24,0,0,1366,1646390562343,1024,2,48000,-16,experiment,p1sarrcol2.png,0,even,Win32,222,137106,134093,222,222,513552,515054,508563,138625,508563,222,,,,,,visual_patterns,0,0,0,yes,1366
undefined,undefined,undefined,undefined,white,no,Mozilla,Netscape,"5.0 (Windows NT 10.0; Win64; x64) AppleWebKit/537.36 (KHTML, like Gecko) Chrome/99.0.4844.51 Safari/537.36",xpyriment,legacy,legacy,0,uniform,0,0,0,0,24,24,24,0,0,54,54,54,54,54,0,54,0,,,,,,0,,04-02-22,04-02-22,11:42:38,Fri Mar 04 2022 11:42:38 GMT+0100 (közép-európai téli idő),The main experiment item,yes,0,0,C:/Users/rrics/Documents/!!ResearchBMECOGSCI/gnet,0,0,0,prototype4.png,no,mono,no,18,no,black,no,no,768,1176,3.5.6,legacy,xpyriment,osweb,1.3.13,0,space,space,space,,23864,25056,23864,,2,legacy,728,1366,24,768,24,0,0,1366,1646390562343,1024,2,48000,-16,experiment,p2sarrcol2.png,0,even,Win32,222,137106,134093,222,222,520072,521586,515077,138625,515077,222,,,,,,visual_patterns,0,0,0,yes,1366
undefined,undefined,undefined,undefined,white,no,Mozilla,Netscape,"5.0 (Windows NT 10.0; Win64; x64) AppleWebKit/537.36 (KHTML, like Gecko) Chrome/99.0.4844.51 Safari/537.36",xpyriment,legacy,legacy,0,uniform,0,0,0,0,24,24,24,0,0,55,55,55,55,55,0,55,0,,,,,,0,,04-02-22,04-02-22,11:42:38,Fri Mar 04 2022 11:42:38 GMT+0100 (közép-európai téli idő),The main experiment item,yes,0,0,C:/Users/rrics/Documents/!!ResearchBMECOGSCI/gnet,0,0,0,prototype4.png,no,mono,no,18,no,black,no,no,768,1176,3.5.6,legacy,xpyriment,osweb,1.3.13,0,space,space,space,,23864,25056,23864,,2,legacy,728,1366,24,768,24,0,0,1366,1646390562343,1024,2,48000,-16,experiment,prototype4.png,0,even,Win32,222,137106,134093,222,222,526597,528103,521594,138625,521594,222,,,,,,visual_patterns,0,0,0,yes,1366
undefined,undefined,undefined,undefined,white,no,Mozilla,Netscape,"5.0 (Windows NT 10.0; Win64; x64) AppleWebKit/537.36 (KHTML, like Gecko) Chrome/99.0.4844.51 Safari/537.36",xpyriment,legacy,legacy,0,uniform,0,0,0,0,24,24,24,0,0,56,56,56,56,56,0,56,0,,,,,,0,,04-02-22,04-02-22,11:42:38,Fri Mar 04 2022 11:42:38 GMT+0100 (közép-európai téli idő),The main experiment item,yes,0,0,C:/Users/rrics/Documents/!!ResearchBMECOGSCI/gnet,0,0,0,prototype4.png,no,mono,no,18,no,black,no,no,768,1176,3.5.6,legacy,xpyriment,osweb,1.3.13,0,space,space,space,,23864,25056,23864,,2,legacy,728,1366,24,768,24,0,0,1366,1646390562343,1024,2,48000,-16,experiment,p2sarrshacol1.png,0,even,Win32,222,137106,134093,222,222,533117,534619,528125,138625,528125,222,,,,,,visual_patterns,0,0,0,yes,1366
undefined,undefined,undefined,undefined,white,no,Mozilla,Netscape,"5.0 (Windows NT 10.0; Win64; x64) AppleWebKit/537.36 (KHTML, like Gecko) Chrome/99.0.4844.51 Safari/537.36",xpyriment,legacy,legacy,0,uniform,0,0,0,0,24,24,24,0,0,57,57,57,57,57,0,57,0,,,,,,0,,04-02-22,04-02-22,11:42:38,Fri Mar 04 2022 11:42:38 GMT+0100 (közép-európai téli idő),The main experiment item,yes,0,0,C:/Users/rrics/Documents/!!ResearchBMECOGSCI/gnet,0,0,0,prototype4.png,no,mono,no,18,no,black,no,no,768,1176,3.5.6,legacy,xpyriment,osweb,1.3.13,0,space,space,space,,23864,25056,23864,,2,legacy,728,1366,24,768,24,0,0,1366,1646390562343,1024,2,48000,-16,experiment,prototype5.png,0,even,Win32,222,137106,134093,222,222,539636,541152,534637,138625,534637,222,,,,,,visual_patterns,0,0,0,yes,1366
undefined,undefined,undefined,undefined,white,no,Mozilla,Netscape,"5.0 (Windows NT 10.0; Win64; x64) AppleWebKit/537.36 (KHTML, like Gecko) Chrome/99.0.4844.51 Safari/537.36",xpyriment,legacy,legacy,0,uniform,0,0,0,0,24,24,24,0,0,58,58,58,58,58,0,58,0,,,,,,0,,04-02-22,04-02-22,11:42:38,Fri Mar 04 2022 11:42:38 GMT+0100 (közép-európai téli idő),The main experiment item,yes,0,0,C:/Users/rrics/Documents/!!ResearchBMECOGSCI/gnet,0,0,0,prototype4.png,no,mono,no,18,no,black,no,no,768,1176,3.5.6,legacy,xpyriment,osweb,1.3.13,0,space,space,space,,23864,25056,23864,,2,legacy,728,1366,24,768,24,0,0,1366,1646390562343,1024,2,48000,-16,experiment,prototype2.png,0,even,Win32,222,137106,134093,222,222,546167,547668,541170,138625,541170,222,,,,,,visual_patterns,0,0,0,yes,1366
undefined,undefined,undefined,undefined,white,no,Mozilla,Netscape,"5.0 (Windows NT 10.0; Win64; x64) AppleWebKit/537.36 (KHTML, like Gecko) Chrome/99.0.4844.51 Safari/537.36",xpyriment,legacy,legacy,0,uniform,0,0,0,0,24,24,24,0,0,59,59,59,59,59,0,59,0,,,,,,0,,04-02-22,04-02-22,11:42:38,Fri Mar 04 2022 11:42:38 GMT+0100 (közép-európai téli idő),The main experiment item,yes,0,0,C:/Users/rrics/Documents/!!ResearchBMECOGSCI/gnet,0,0,0,prototype4.png,no,mono,no,18,no,black,no,no,768,1176,3.5.6,legacy,xpyriment,osweb,1.3.13,0,space,space,space,,23864,25056,23864,,2,legacy,728,1366,24,768,24,0,0,1366,1646390562343,1024,2,48000,-16,experiment,prototype5.png,0,even,Win32,222,137106,134093,222,222,552681,554185,547678,138625,547678,222,,,,,,visual_patterns,0,0,0,yes,1366
undefined,undefined,undefined,undefined,white,no,Mozilla,Netscape,"5.0 (Windows NT 10.0; Win64; x64) AppleWebKit/537.36 (KHTML, like Gecko) Chrome/99.0.4844.51 Safari/537.36",xpyriment,legacy,legacy,0,uniform,0,0,0,0,24,24,24,0,0,60,60,60,60,60,0,60,0,,,,,,0,,04-02-22,04-02-22,11:42:38,Fri Mar 04 2022 11:42:38 GMT+0100 (közép-európai téli idő),The main experiment item,yes,0,0,C:/Users/rrics/Documents/!!ResearchBMECOGSCI/gnet,0,0,0,prototype4.png,no,mono,no,18,no,black,no,no,768,1176,3.5.6,legacy,xpyriment,osweb,1.3.13,0,space,space,space,,23864,25056,23864,,2,legacy,728,1366,24,768,24,0,0,1366,1646390562343,1024,2,48000,-16,experiment,p1sarrshacol2.png,0,even,Win32,222,137106,134093,222,222,559201,560718,554210,138625,554210,222,,,,,,visual_patterns,0,0,0,yes,1366
undefined,undefined,undefined,undefined,white,no,Mozilla,Netscape,"5.0 (Windows NT 10.0; Win64; x64) AppleWebKit/537.36 (KHTML, like Gecko) Chrome/99.0.4844.51 Safari/537.36",xpyriment,legacy,legacy,0,uniform,0,0,0,0,24,24,24,0,0,61,61,61,61,61,0,61,0,,,,,,0,,04-02-22,04-02-22,11:42:38,Fri Mar 04 2022 11:42:38 GMT+0100 (közép-európai téli idő),The main experiment item,yes,0,0,C:/Users/rrics/Documents/!!ResearchBMECOGSCI/gnet,0,0,0,prototype4.png,no,mono,no,18,no,black,no,no,768,1176,3.5.6,legacy,xpyriment,osweb,1.3.13,0,space,space,space,,23864,25056,23864,,2,legacy,728,1366,24,768,24,0,0,1366,1646390562343,1024,2,48000,-16,experiment,p2sarrcol1.png,0,even,Win32,222,137106,134093,222,222,565732,567235,560740,138625,560740,222,,,,,,visual_patterns,0,0,0,yes,1366
undefined,undefined,undefined,undefined,white,no,Mozilla,Netscape,"5.0 (Windows NT 10.0; Win64; x64) AppleWebKit/537.36 (KHTML, like Gecko) Chrome/99.0.4844.51 Safari/537.36",xpyriment,legacy,legacy,0,uniform,0,0,0,0,24,24,24,0,0,62,62,62,62,62,0,62,0,,,,,,0,,04-02-22,04-02-22,11:42:38,Fri Mar 04 2022 11:42:38 GMT+0100 (közép-európai téli idő),The main experiment item,yes,0,0,C:/Users/rrics/Documents/!!ResearchBMECOGSCI/gnet,0,0,0,prototype4.png,no,mono,no,18,no,black,no,no,768,1176,3.5.6,legacy,xpyriment,osweb,1.3.13,0,space,space,space,,23864,25056,23864,,2,legacy,728,1366,24,768,24,0,0,1366,1646390562343,1024,2,48000,-16,experiment,p5sarr2.png,0,even,Win32,222,137106,134093,222,222,572253,573768,567259,138625,567259,222,,,,,,visual_patterns,0,0,0,yes,1366
undefined,undefined,undefined,undefined,white,no,Mozilla,Netscape,"5.0 (Windows NT 10.0; Win64; x64) AppleWebKit/537.36 (KHTML, like Gecko) Chrome/99.0.4844.51 Safari/537.36",xpyriment,legacy,legacy,0,uniform,0,0,0,0,24,24,24,0,0,63,63,63,63,63,0,63,0,,,,,,0,,04-02-22,04-02-22,11:42:38,Fri Mar 04 2022 11:42:38 GMT+0100 (közép-európai téli idő),The main experiment item,yes,0,0,C:/Users/rrics/Documents/!!ResearchBMECOGSCI/gnet,0,0,0,prototype4.png,no,mono,no,18,no,black,no,no,768,1176,3.5.6,legacy,xpyriment,osweb,1.3.13,0,space,space,space,,23864,25056,23864,,2,legacy,728,1366,24,768,24,0,0,1366,1646390562343,1024,2,48000,-16,experiment,p10sarr2.png,0,even,Win32,222,137106,134093,222,222,578789,580301,573795,138625,573795,222,,,,,,visual_patterns,0,0,0,yes,1366
undefined,undefined,undefined,undefined,white,no,Mozilla,Netscape,"5.0 (Windows NT 10.0; Win64; x64) AppleWebKit/537.36 (KHTML, like Gecko) Chrome/99.0.4844.51 Safari/537.36",xpyriment,legacy,legacy,0,uniform,0,0,0,0,24,24,24,0,0,64,64,64,64,64,0,64,0,,,,,,0,,04-02-22,04-02-22,11:42:38,Fri Mar 04 2022 11:42:38 GMT+0100 (közép-európai téli idő),The main experiment item,yes,0,0,C:/Users/rrics/Documents/!!ResearchBMECOGSCI/gnet,0,0,0,prototype4.png,no,mono,no,18,no,black,no,no,768,1176,3.5.6,legacy,xpyriment,osweb,1.3.13,0,space,space,space,,23864,25056,23864,,2,legacy,728,1366,24,768,24,0,0,1366,1646390562343,1024,2,48000,-16,experiment,prototype1.png,0,even,Win32,222,137106,134093,222,222,585319,586834,580319,138625,580319,222,,,,,,visual_patterns,0,0,0,yes,1366
undefined,undefined,undefined,undefined,white,no,Mozilla,Netscape,"5.0 (Windows NT 10.0; Win64; x64) AppleWebKit/537.36 (KHTML, like Gecko) Chrome/99.0.4844.51 Safari/537.36",xpyriment,legacy,legacy,0,uniform,0,0,0,0,24,24,24,0,0,65,65,65,65,65,0,65,0,,,,,,0,,04-02-22,04-02-22,11:42:38,Fri Mar 04 2022 11:42:38 GMT+0100 (közép-európai téli idő),The main experiment item,yes,0,0,C:/Users/rrics/Documents/!!ResearchBMECOGSCI/gnet,0,0,0,prototype4.png,no,mono,no,18,no,black,no,no,768,1176,3.5.6,legacy,xpyriment,osweb,1.3.13,0,space,space,space,,23864,25056,23864,,2,legacy,728,1366,24,768,24,0,0,1366,1646390562343,1024,2,48000,-16,experiment,prototype4.png,0,even,Win32,222,137106,134093,222,222,591855,593367,586856,138625,586856,222,,,,,,visual_patterns,0,0,0,yes,1366
undefined,undefined,undefined,undefined,white,no,Mozilla,Netscape,"5.0 (Windows NT 10.0; Win64; x64) AppleWebKit/537.36 (KHTML, like Gecko) Chrome/99.0.4844.51 Safari/537.36",xpyriment,legacy,legacy,0,uniform,0,0,0,0,24,24,24,0,0,66,66,66,66,66,0,66,0,,,,,,0,,04-02-22,04-02-22,11:42:38,Fri Mar 04 2022 11:42:38 GMT+0100 (közép-európai téli idő),The main experiment item,yes,0,0,C:/Users/rrics/Documents/!!ResearchBMECOGSCI/gnet,0,0,0,prototype4.png,no,mono,no,18,no,black,no,no,768,1176,3.5.6,legacy,xpyriment,osweb,1.3.13,0,space,space,space,,23864,25056,23864,,2,legacy,728,1366,24,768,24,0,0,1366,1646390562343,1024,2,48000,-16,experiment,p2sarrshacol2.png,0,even,Win32,222,137106,134093,222,222,598386,599900,593391,138625,593390,222,,,,,,visual_patterns,0,0,0,yes,1366
undefined,undefined,undefined,undefined,white,no,Mozilla,Netscape,"5.0 (Windows NT 10.0; Win64; x64) AppleWebKit/537.36 (KHTML, like Gecko) Chrome/99.0.4844.51 Safari/537.36",xpyriment,legacy,legacy,0,uniform,0,0,0,0,24,24,24,0,0,67,67,67,67,67,0,67,0,,,,,,0,,04-02-22,04-02-22,11:42:38,Fri Mar 04 2022 11:42:38 GMT+0100 (közép-európai téli idő),The main experiment item,yes,0,0,C:/Users/rrics/Documents/!!ResearchBMECOGSCI/gnet,0,0,0,prototype4.png,no,mono,no,18,no,black,no,no,768,1176,3.5.6,legacy,xpyriment,osweb,1.3.13,0,space,space,space,,23864,25056,23864,,2,legacy,728,1366,24,768,24,0,0,1366,1646390562343,1024,2,48000,-16,experiment,p1sarr2.png,0,even,Win32,222,137106,134093,222,222,604918,606433,599924,138625,599924,222,,,,,,visual_patterns,0,0,0,yes,1366
undefined,undefined,undefined,undefined,white,no,Mozilla,Netscape,"5.0 (Windows NT 10.0; Win64; x64) AppleWebKit/537.36 (KHTML, like Gecko) Chrome/99.0.4844.51 Safari/537.36",xpyriment,legacy,legacy,0,uniform,0,0,0,0,24,24,24,0,0,68,68,68,68,68,0,68,0,,,,,,0,,04-02-22,04-02-22,11:42:38,Fri Mar 04 2022 11:42:38 GMT+0100 (közép-európai téli idő),The main experiment item,yes,0,0,C:/Users/rrics/Documents/!!ResearchBMECOGSCI/gnet,0,0,0,prototype4.png,no,mono,no,18,no,black,no,no,768,1176,3.5.6,legacy,xpyriment,osweb,1.3.13,0,space,space,space,,23864,25056,23864,,2,legacy,728,1366,24,768,24,0,0,1366,1646390562343,1024,2,48000,-16,experiment,p6sarr2.png,0,even,Win32,222,137106,134093,222,222,611449,612966,606456,138625,606455,222,,,,,,visual_patterns,0,0,0,yes,1366
undefined,undefined,undefined,undefined,white,no,Mozilla,Netscape,"5.0 (Windows NT 10.0; Win64; x64) AppleWebKit/537.36 (KHTML, like Gecko) Chrome/99.0.4844.51 Safari/537.36",xpyriment,legacy,legacy,0,uniform,0,0,0,0,24,24,24,0,0,69,69,69,69,69,0,69,0,,,,,,0,,04-02-22,04-02-22,11:42:38,Fri Mar 04 2022 11:42:38 GMT+0100 (közép-európai téli idő),The main experiment item,yes,0,0,C:/Users/rrics/Documents/!!ResearchBMECOGSCI/gnet,0,0,0,prototype4.png,no,mono,no,18,no,black,no,no,768,1176,3.5.6,legacy,xpyriment,osweb,1.3.13,0,space,space,space,,23864,25056,23864,,2,legacy,728,1366,24,768,24,0,0,1366,1646390562343,1024,2,48000,-16,experiment,prototype2.png,0,even,Win32,222,137106,134093,222,222,617983,619499,612984,138625,612984,222,,,,,,visual_patterns,0,0,0,yes,1366
undefined,undefined,undefined,undefined,white,no,Mozilla,Netscape,"5.0 (Windows NT 10.0; Win64; x64) AppleWebKit/537.36 (KHTML, like Gecko) Chrome/99.0.4844.51 Safari/537.36",xpyriment,legacy,legacy,0,uniform,0,0,0,0,24,24,24,0,0,70,70,70,70,70,0,70,0,,,,,,0,,04-02-22,04-02-22,11:42:38,Fri Mar 04 2022 11:42:38 GMT+0100 (közép-európai téli idő),The main experiment item,yes,0,0,C:/Users/rrics/Documents/!!ResearchBMECOGSCI/gnet,0,0,0,prototype4.png,no,mono,no,18,no,black,no,no,768,1176,3.5.6,legacy,xpyriment,osweb,1.3.13,0,space,space,space,,23864,25056,23864,,2,legacy,728,1366,24,768,24,0,0,1366,1646390562343,1024,2,48000,-16,experiment,p1sarrshacol1.png,0,even,Win32,222,137106,134093,222,222,624513,626015,619519,138625,619519,222,,,,,,visual_patterns,0,0,0,yes,1366
undefined,undefined,undefined,undefined,white,no,Mozilla,Netscape,"5.0 (Windows NT 10.0; Win64; x64) AppleWebKit/537.36 (KHTML, like Gecko) Chrome/99.0.4844.51 Safari/537.36",xpyriment,legacy,legacy,0,uniform,0,0,0,0,24,24,24,0,0,71,71,71,71,71,0,71,0,,,,,,0,,04-02-22,04-02-22,11:42:38,Fri Mar 04 2022 11:42:38 GMT+0100 (közép-európai téli idő),The main experiment item,yes,0,0,C:/Users/rrics/Documents/!!ResearchBMECOGSCI/gnet,0,0,0,prototype4.png,no,mono,no,18,no,black,no,no,768,1176,3.5.6,legacy,xpyriment,osweb,1.3.13,0,space,space,space,,23864,25056,23864,,2,legacy,728,1366,24,768,24,0,0,1366,1646390562343,1024,2,48000,-16,experiment,prototype1.png,0,even,Win32,222,137106,134093,222,222,631032,632548,626034,138625,626034,222,,,,,,visual_patterns,0,0,0,yes,1366
undefined,undefined,undefined,undefined,white,no,Mozilla,Netscape,"5.0 (Windows NT 10.0; Win64; x64) AppleWebKit/537.36 (KHTML, like Gecko) Chrome/99.0.4844.51 Safari/537.36",xpyriment,legacy,legacy,0,uniform,0,0,0,0,24,24,24,0,0,72,72,72,72,72,0,72,0,,,,,,0,,04-02-22,04-02-22,11:42:38,Fri Mar 04 2022 11:42:38 GMT+0100 (közép-európai téli idő),The main experiment item,yes,0,0,C:/Users/rrics/Documents/!!ResearchBMECOGSCI/gnet,0,0,0,prototype4.png,no,mono,no,18,no,black,no,no,768,1176,3.5.6,legacy,xpyriment,osweb,1.3.13,0,space,space,space,,23864,25056,23864,,2,legacy,728,1366,24,768,24,0,0,1366,1646390562343,1024,2,48000,-16,experiment,prototype5.png,0,even,Win32,222,137106,134093,222,222,637600,639114,632599,138625,632599,222,,,,,,visual_patterns,0,0,0,yes,1366
undefined,undefined,undefined,undefined,white,no,Mozilla,Netscape,"5.0 (Windows NT 10.0; Win64; x64) AppleWebKit/537.36 (KHTML, like Gecko) Chrome/99.0.4844.51 Safari/537.36",xpyriment,legacy,legacy,0,uniform,0,0,0,0,24,24,24,0,0,73,73,73,73,73,0,73,0,,,,,,0,,04-02-22,04-02-22,11:42:38,Fri Mar 04 2022 11:42:38 GMT+0100 (közép-európai téli idő),The main experiment item,yes,0,0,C:/Users/rrics/Documents/!!ResearchBMECOGSCI/gnet,0,0,0,prototype4.png,no,mono,no,18,no,black,no,no,768,1176,3.5.6,legacy,xpyriment,osweb,1.3.13,0,space,space,space,,23864,25056,23864,,2,legacy,728,1366,24,768,24,0,0,1366,1646390562343,1024,2,48000,-16,experiment,prototype3.png,0,even,Win32,222,137106,134093,222,222,644131,645647,639129,138625,639129,222,,,,,,visual_patterns,0,0,0,yes,1366
undefined,undefined,undefined,undefined,white,no,Mozilla,Netscape,"5.0 (Windows NT 10.0; Win64; x64) AppleWebKit/537.36 (KHTML, like Gecko) Chrome/99.0.4844.51 Safari/537.36",xpyriment,legacy,legacy,0,uniform,0,0,0,0,24,24,24,0,0,74,74,74,74,74,0,74,0,,,,,,0,,04-02-22,04-02-22,11:42:38,Fri Mar 04 2022 11:42:38 GMT+0100 (közép-európai téli idő),The main experiment item,yes,0,0,C:/Users/rrics/Documents/!!ResearchBMECOGSCI/gnet,0,0,0,prototype4.png,no,mono,no,18,no,black,no,no,768,1176,3.5.6,legacy,xpyriment,osweb,1.3.13,0,space,space,space,,23864,25056,23864,,2,legacy,728,1366,24,768,24,0,0,1366,1646390562343,1024,2,48000,-16,experiment,prototype2.png,0,even,Win32,222,137106,134093,222,222,650664,652180,645663,138625,645662,222,,,,,,visual_patterns,0,0,0,yes,1366
undefined,undefined,undefined,undefined,white,no,Mozilla,Netscape,"5.0 (Windows NT 10.0; Win64; x64) AppleWebKit/537.36 (KHTML, like Gecko) Chrome/99.0.4844.51 Safari/537.36",xpyriment,legacy,legacy,0,uniform,0,0,0,0,24,24,24,0,0,74,74,74,74,74,0,74,0,0,0,0,0,0,0,0,04-02-22,04-02-22,11:42:38,Fri Mar 04 2022 11:42:38 GMT+0100 (közép-európai téli idő),The main experiment item,yes,0,0,C:/Users/rrics/Documents/!!ResearchBMECOGSCI/gnet,0,0,0,prototype4.png,no,mono,no,18,no,black,no,no,768,1176,3.5.6,legacy,xpyriment,osweb,1.3.13,0,space,space,space,space,31834,25056,23864,31834,2,legacy,728,1366,24,768,24,0,0,1366,1646390562343,1024,2,48000,-16,experiment,p5sarrsha3.png,0,even,Win32,222,137106,134093,222,222,650664,652180,645663,138625,645662,222,687054,688562,684058,652187,684058,visual_patterns,0,0,0,yes,1366
undefined,undefined,undefined,undefined,white,no,Mozilla,Netscape,"5.0 (Windows NT 10.0; Win64; x64) AppleWebKit/537.36 (KHTML, like Gecko) Chrome/99.0.4844.51 Safari/537.36",xpyriment,legacy,legacy,0,uniform,0,0,0,0,24,24,24,0,0,74,74,74,74,74,0,74,0,1,1,1,1,1,0,1,04-02-22,04-02-22,11:42:38,Fri Mar 04 2022 11:42:38 GMT+0100 (közép-európai téli idő),The main experiment item,yes,0,0,C:/Users/rrics/Documents/!!ResearchBMECOGSCI/gnet,0,0,0,prototype4.png,no,mono,no,18,no,black,no,no,768,1176,3.5.6,legacy,xpyriment,osweb,1.3.13,0,space,space,space,space,31834,25056,23864,31834,2,legacy,728,1366,24,768,24,0,0,1366,1646390562343,1024,2,48000,-16,experiment,p2sarrshacol1.png,0,even,Win32,222,137106,134093,222,222,650664,652180,645663,138625,645662,222,691575,693079,688575,652187,688575,visual_patterns,0,0,0,yes,1366
undefined,undefined,undefined,undefined,white,no,Mozilla,Netscape,"5.0 (Windows NT 10.0; Win64; x64) AppleWebKit/537.36 (KHTML, like Gecko) Chrome/99.0.4844.51 Safari/537.36",xpyriment,legacy,legacy,0,uniform,0,0,0,0,24,24,24,0,0,74,74,74,74,74,0,74,0,2,2,2,2,2,0,2,04-02-22,04-02-22,11:42:38,Fri Mar 04 2022 11:42:38 GMT+0100 (közép-európai téli idő),The main experiment item,yes,0,0,C:/Users/rrics/Documents/!!ResearchBMECOGSCI/gnet,0,0,0,prototype4.png,no,mono,no,18,no,black,no,no,768,1176,3.5.6,legacy,xpyriment,osweb,1.3.13,0,space,space,space,space,31834,25056,23864,31834,2,legacy,728,1366,24,768,24,0,0,1366,1646390562343,1024,2,48000,-16,experiment,p4sarr4.png,0,even,Win32,222,137106,134093,222,222,650664,652180,645663,138625,645662,222,696102,697612,693107,652187,693107,visual_patterns,0,0,0,yes,1366
undefined,undefined,undefined,undefined,white,no,Mozilla,Netscape,"5.0 (Windows NT 10.0; Win64; x64) AppleWebKit/537.36 (KHTML, like Gecko) Chrome/99.0.4844.51 Safari/537.36",xpyriment,legacy,legacy,0,uniform,0,0,0,0,24,24,24,0,0,74,74,74,74,74,0,74,0,3,3,3,3,3,0,3,04-02-22,04-02-22,11:42:38,Fri Mar 04 2022 11:42:38 GMT+0100 (közép-európai téli idő),The main experiment item,yes,0,0,C:/Users/rrics/Documents/!!ResearchBMECOGSCI/gnet,0,0,0,prototype4.png,no,mono,no,18,no,black,no,no,768,1176,3.5.6,legacy,xpyriment,osweb,1.3.13,0,space,space,space,space,31834,25056,23864,31834,2,legacy,728,1366,24,768,24,0,0,1366,1646390562343,1024,2,48000,-16,experiment,p5sarrsha2.png,0,even,Win32,222,137106,134093,222,222,650664,652180,645663,138625,645662,222,700664,702178,697662,652187,697662,visual_patterns,0,0,0,yes,1366
undefined,undefined,undefined,undefined,white,no,Mozilla,Netscape,"5.0 (Windows NT 10.0; Win64; x64) AppleWebKit/537.36 (KHTML, like Gecko) Chrome/99.0.4844.51 Safari/537.36",xpyriment,legacy,legacy,0,uniform,0,0,0,0,24,24,24,0,0,74,74,74,74,74,0,74,0,4,4,4,4,4,0,4,04-02-22,04-02-22,11:42:38,Fri Mar 04 2022 11:42:38 GMT+0100 (közép-európai téli idő),The main experiment item,yes,0,0,C:/Users/rrics/Documents/!!ResearchBMECOGSCI/gnet,0,0,0,prototype4.png,no,mono,no,18,no,black,no,no,768,1176,3.5.6,legacy,xpyriment,osweb,1.3.13,0,space,space,space,space,31834,25056,23864,31834,2,legacy,728,1366,24,768,24,0,0,1366,1646390562343,1024,2,48000,-16,experiment,p7sarr2.png,0,even,Win32,222,137106,134093,222,222,650664,652180,645663,138625,645662,222,705193,706695,702193,652187,702193,visual_patterns,0,0,0,yes,1366
undefined,undefined,undefined,undefined,white,no,Mozilla,Netscape,"5.0 (Windows NT 10.0; Win64; x64) AppleWebKit/537.36 (KHTML, like Gecko) Chrome/99.0.4844.51 Safari/537.36",xpyriment,legacy,legacy,0,uniform,0,0,0,0,24,24,24,0,0,74,74,74,74,74,0,74,0,5,5,5,5,5,0,5,04-02-22,04-02-22,11:42:38,Fri Mar 04 2022 11:42:38 GMT+0100 (közép-európai téli idő),The main experiment item,yes,0,0,C:/Users/rrics/Documents/!!ResearchBMECOGSCI/gnet,0,0,0,prototype4.png,no,mono,no,18,no,black,no,no,768,1176,3.5.6,legacy,xpyriment,osweb,1.3.13,0,space,space,space,space,31834,25056,23864,31834,2,legacy,728,1366,24,768,24,0,0,1366,1646390562343,1024,2,48000,-16,experiment,p1sarrsha4.png,0,even,Win32,222,137106,134093,222,222,650664,652180,645663,138625,645662,222,709717,711228,706723,652187,706722,visual_patterns,0,0,0,yes,1366
undefined,undefined,undefined,undefined,white,no,Mozilla,Netscape,"5.0 (Windows NT 10.0; Win64; x64) AppleWebKit/537.36 (KHTML, like Gecko) Chrome/99.0.4844.51 Safari/537.36",xpyriment,legacy,legacy,0,uniform,0,0,0,0,24,24,24,0,0,74,74,74,74,74,0,74,0,6,6,6,6,6,0,6,04-02-22,04-02-22,11:42:38,Fri Mar 04 2022 11:42:38 GMT+0100 (közép-európai téli idő),The main experiment item,yes,0,0,C:/Users/rrics/Documents/!!ResearchBMECOGSCI/gnet,0,0,0,prototype4.png,no,mono,no,18,no,black,no,no,768,1176,3.5.6,legacy,xpyriment,osweb,1.3.13,0,space,space,space,space,31834,25056,23864,31834,2,legacy,728,1366,24,768,24,0,0,1366,1646390562343,1024,2,48000,-16,experiment,p3sarrcol2.png,0,even,Win32,222,137106,134093,222,222,650664,652180,645663,138625,645662,222,714249,715761,711250,652187,711249,visual_patterns,0,0,0,yes,1366
undefined,undefined,undefined,undefined,white,no,Mozilla,Netscape,"5.0 (Windows NT 10.0; Win64; x64) AppleWebKit/537.36 (KHTML, like Gecko) Chrome/99.0.4844.51 Safari/537.36",xpyriment,legacy,legacy,0,uniform,0,0,0,0,24,24,24,0,0,74,74,74,74,74,0,74,0,7,7,7,7,7,0,7,04-02-22,04-02-22,11:42:38,Fri Mar 04 2022 11:42:38 GMT+0100 (közép-európai téli idő),The main experiment item,yes,0,0,C:/Users/rrics/Documents/!!ResearchBMECOGSCI/gnet,0,0,0,prototype4.png,no,mono,no,18,no,black,no,no,768,1176,3.5.6,legacy,xpyriment,osweb,1.3.13,0,space,space,space,space,31834,25056,23864,31834,2,legacy,728,1366,24,768,24,0,0,1366,1646390562343,1024,2,48000,-16,experiment,p3sarrcol3.png,0,even,Win32,222,137106,134093,222,222,650664,652180,645663,138625,645662,222,718783,720294,715787,652187,715787,visual_patterns,0,0,0,yes,1366
undefined,undefined,undefined,undefined,white,no,Mozilla,Netscape,"5.0 (Windows NT 10.0; Win64; x64) AppleWebKit/537.36 (KHTML, like Gecko) Chrome/99.0.4844.51 Safari/537.36",xpyriment,legacy,legacy,0,uniform,0,0,0,0,24,24,24,0,0,74,74,74,74,74,0,74,0,8,8,8,8,8,0,8,04-02-22,04-02-22,11:42:38,Fri Mar 04 2022 11:42:38 GMT+0100 (közép-európai téli idő),The main experiment item,yes,0,0,C:/Users/rrics/Documents/!!ResearchBMECOGSCI/gnet,0,0,0,prototype4.png,no,mono,no,18,no,black,no,no,768,1176,3.5.6,legacy,xpyriment,osweb,1.3.13,0,space,space,space,space,31834,25056,23864,31834,2,legacy,728,1366,24,768,24,0,0,1366,1646390562343,1024,2,48000,-16,experiment,p1sarrsha1.png,0,even,Win32,222,137106,134093,222,222,650664,652180,645663,138625,645662,222,723314,724827,720314,652187,720314,visual_patterns,0,0,0,yes,1366
undefined,undefined,undefined,undefined,white,no,Mozilla,Netscape,"5.0 (Windows NT 10.0; Win64; x64) AppleWebKit/537.36 (KHTML, like Gecko) Chrome/99.0.4844.51 Safari/537.36",xpyriment,legacy,legacy,0,uniform,0,0,0,0,24,24,24,0,0,74,74,74,74,74,0,74,0,9,9,9,9,9,0,9,04-02-22,04-02-22,11:42:38,Fri Mar 04 2022 11:42:38 GMT+0100 (közép-európai téli idő),The main experiment item,yes,0,0,C:/Users/rrics/Documents/!!ResearchBMECOGSCI/gnet,0,0,0,prototype4.png,no,mono,no,18,no,black,no,no,768,1176,3.5.6,legacy,xpyriment,osweb,1.3.13,0,space,space,space,space,31834,25056,23864,31834,2,legacy,728,1366,24,768,24,0,0,1366,1646390562343,1024,2,48000,-16,experiment,p4sarr1.png,0,even,Win32,222,137106,134093,222,222,650664,652180,645663,138625,645662,222,727846,729360,724848,652187,724848,visual_patterns,0,0,0,yes,1366
undefined,undefined,undefined,undefined,white,no,Mozilla,Netscape,"5.0 (Windows NT 10.0; Win64; x64) AppleWebKit/537.36 (KHTML, like Gecko) Chrome/99.0.4844.51 Safari/537.36",xpyriment,legacy,legacy,0,uniform,0,0,0,0,24,24,24,0,0,74,74,74,74,74,0,74,0,10,10,10,10,10,0,10,04-02-22,04-02-22,11:42:38,Fri Mar 04 2022 11:42:38 GMT+0100 (közép-európai téli idő),The main experiment item,yes,0,0,C:/Users/rrics/Documents/!!ResearchBMECOGSCI/gnet,0,0,0,prototype4.png,no,mono,no,18,no,black,no,no,768,1176,3.5.6,legacy,xpyriment,osweb,1.3.13,0,space,space,space,space,31834,25056,23864,31834,2,legacy,728,1366,24,768,24,0,0,1366,1646390562343,1024,2,48000,-16,experiment,p9sarr2.png,0,even,Win32,222,137106,134093,222,222,650664,652180,645663,138625,645662,222,732423,733927,729425,652187,729425,visual_patterns,0,0,0,yes,1366
undefined,undefined,undefined,undefined,white,no,Mozilla,Netscape,"5.0 (Windows NT 10.0; Win64; x64) AppleWebKit/537.36 (KHTML, like Gecko) Chrome/99.0.4844.51 Safari/537.36",xpyriment,legacy,legacy,0,uniform,0,0,0,0,24,24,24,0,0,74,74,74,74,74,0,74,0,11,11,11,11,11,0,11,04-02-22,04-02-22,11:42:38,Fri Mar 04 2022 11:42:38 GMT+0100 (közép-európai téli idő),The main experiment item,yes,0,0,C:/Users/rrics/Documents/!!ResearchBMECOGSCI/gnet,0,0,0,prototype4.png,no,mono,no,18,no,black,no,no,768,1176,3.5.6,legacy,xpyriment,osweb,1.3.13,0,space,space,space,space,31834,25056,23864,31834,2,legacy,728,1366,24,768,24,0,0,1366,1646390562343,1024,2,48000,-16,experiment,p1sarr2.png,0,even,Win32,222,137106,134093,222,222,650664,652180,645663,138625,645662,222,736946,738460,733948,652187,733948,visual_patterns,0,0,0,yes,1366
undefined,undefined,undefined,undefined,white,no,Mozilla,Netscape,"5.0 (Windows NT 10.0; Win64; x64) AppleWebKit/537.36 (KHTML, like Gecko) Chrome/99.0.4844.51 Safari/537.36",xpyriment,legacy,legacy,0,uniform,0,0,0,0,24,24,24,0,0,74,74,74,74,74,0,74,0,12,12,12,12,12,0,12,04-02-22,04-02-22,11:42:38,Fri Mar 04 2022 11:42:38 GMT+0100 (közép-európai téli idő),The main experiment item,yes,0,0,C:/Users/rrics/Documents/!!ResearchBMECOGSCI/gnet,0,0,0,prototype4.png,no,mono,no,18,no,black,no,no,768,1176,3.5.6,legacy,xpyriment,osweb,1.3.13,0,space,space,space,space,31834,25056,23864,31834,2,legacy,728,1366,24,768,24,0,0,1366,1646390562343,1024,2,48000,-16,experiment,p3sarrcol4.png,0,even,Win32,222,137106,134093,222,222,650664,652180,645663,138625,645662,222,741485,742993,738492,652187,738492,visual_patterns,0,0,0,yes,1366
undefined,undefined,undefined,undefined,white,no,Mozilla,Netscape,"5.0 (Windows NT 10.0; Win64; x64) AppleWebKit/537.36 (KHTML, like Gecko) Chrome/99.0.4844.51 Safari/537.36",xpyriment,legacy,legacy,0,uniform,0,0,0,0,24,24,24,0,0,74,74,74,74,74,0,74,0,13,13,13,13,13,0,13,04-02-22,04-02-22,11:42:38,Fri Mar 04 2022 11:42:38 GMT+0100 (közép-európai téli idő),The main experiment item,yes,0,0,C:/Users/rrics/Documents/!!ResearchBMECOGSCI/gnet,0,0,0,prototype4.png,no,mono,no,18,no,black,no,no,768,1176,3.5.6,legacy,xpyriment,osweb,1.3.13,0,space,space,space,space,31834,25056,23864,31834,2,legacy,728,1366,24,768,24,0,0,1366,1646390562343,1024,2,48000,-16,experiment,p2sarrshacol2.png,0,even,Win32,222,137106,134093,222,222,650664,652180,645663,138625,645662,222,746015,747526,743015,652187,743014,visual_patterns,0,0,0,yes,1366
undefined,undefined,undefined,undefined,white,no,Mozilla,Netscape,"5.0 (Windows NT 10.0; Win64; x64) AppleWebKit/537.36 (KHTML, like Gecko) Chrome/99.0.4844.51 Safari/537.36",xpyriment,legacy,legacy,0,uniform,0,0,0,0,24,24,24,0,0,74,74,74,74,74,0,74,0,14,14,14,14,14,0,14,04-02-22,04-02-22,11:42:38,Fri Mar 04 2022 11:42:38 GMT+0100 (közép-európai téli idő),The main experiment item,yes,0,0,C:/Users/rrics/Documents/!!ResearchBMECOGSCI/gnet,0,0,0,prototype4.png,no,mono,no,18,no,black,no,no,768,1176,3.5.6,legacy,xpyriment,osweb,1.3.13,0,space,space,space,space,31834,25056,23864,31834,2,legacy,728,1366,24,768,24,0,0,1366,1646390562343,1024,2,48000,-16,experiment,p6sarr1.png,0,even,Win32,222,137106,134093,222,222,650664,652180,645663,138625,645662,222,750549,752059,747554,652187,747554,visual_patterns,0,0,0,yes,1366
undefined,undefined,undefined,undefined,white,no,Mozilla,Netscape,"5.0 (Windows NT 10.0; Win64; x64) AppleWebKit/537.36 (KHTML, like Gecko) Chrome/99.0.4844.51 Safari/537.36",xpyriment,legacy,legacy,0,uniform,0,0,0,0,24,24,24,0,0,74,74,74,74,74,0,74,0,15,15,15,15,15,0,15,04-02-22,04-02-22,11:42:38,Fri Mar 04 2022 11:42:38 GMT+0100 (közép-európai téli idő),The main experiment item,yes,0,0,C:/Users/rrics/Documents/!!ResearchBMECOGSCI/gnet,0,0,0,prototype4.png,no,mono,no,18,no,black,no,no,768,1176,3.5.6,legacy,xpyriment,osweb,1.3.13,0,space,space,space,space,31834,25056,23864,31834,2,legacy,728,1366,24,768,24,0,0,1366,1646390562343,1024,2,48000,-16,experiment,p4sarrshacol3.png,0,even,Win32,222,137106,134093,222,222,650664,652180,645663,138625,645662,222,755076,756592,752089,652187,752089,visual_patterns,0,0,0,yes,1366
undefined,undefined,undefined,undefined,white,no,Mozilla,Netscape,"5.0 (Windows NT 10.0; Win64; x64) AppleWebKit/537.36 (KHTML, like Gecko) Chrome/99.0.4844.51 Safari/537.36",xpyriment,legacy,legacy,0,uniform,0,0,0,0,24,24,24,0,0,74,74,74,74,74,0,74,0,16,16,16,16,16,0,16,04-02-22,04-02-22,11:42:38,Fri Mar 04 2022 11:42:38 GMT+0100 (közép-európai téli idő),The main experiment item,yes,0,0,C:/Users/rrics/Documents/!!ResearchBMECOGSCI/gnet,0,0,0,prototype4.png,no,mono,no,18,no,black,no,no,768,1176,3.5.6,legacy,xpyriment,osweb,1.3.13,0,space,space,space,space,31834,25056,23864,31834,2,legacy,728,1366,24,768,24,0,0,1366,1646390562343,1024,2,48000,-16,experiment,p4sarrshacol4.png,0,even,Win32,222,137106,134093,222,222,650664,652180,645663,138625,645662,222,759614,761125,756617,652187,756617,visual_patterns,0,0,0,yes,1366
undefined,undefined,undefined,undefined,white,no,Mozilla,Netscape,"5.0 (Windows NT 10.0; Win64; x64) AppleWebKit/537.36 (KHTML, like Gecko) Chrome/99.0.4844.51 Safari/537.36",xpyriment,legacy,legacy,0,uniform,0,0,0,0,24,24,24,0,0,74,74,74,74,74,0,74,0,17,17,17,17,17,0,17,04-02-22,04-02-22,11:42:38,Fri Mar 04 2022 11:42:38 GMT+0100 (közép-európai téli idő),The main experiment item,yes,0,0,C:/Users/rrics/Documents/!!ResearchBMECOGSCI/gnet,0,0,0,prototype4.png,no,mono,no,18,no,black,no,no,768,1176,3.5.6,legacy,xpyriment,osweb,1.3.13,0,space,space,space,space,31834,25056,23864,31834,2,legacy,728,1366,24,768,24,0,0,1366,1646390562343,1024,2,48000,-16,experiment,p2sarrcol1.png,0,even,Win32,222,137106,134093,222,222,650664,652180,645663,138625,645662,222,764137,765642,761137,652187,761137,visual_patterns,0,0,0,yes,1366
undefined,undefined,undefined,undefined,white,no,Mozilla,Netscape,"5.0 (Windows NT 10.0; Win64; x64) AppleWebKit/537.36 (KHTML, like Gecko) Chrome/99.0.4844.51 Safari/537.36",xpyriment,legacy,legacy,0,uniform,0,0,0,0,24,24,24,0,0,74,74,74,74,74,0,74,0,18,18,18,18,18,0,18,04-02-22,04-02-22,11:42:38,Fri Mar 04 2022 11:42:38 GMT+0100 (közép-európai téli idő),The main experiment item,yes,0,0,C:/Users/rrics/Documents/!!ResearchBMECOGSCI/gnet,0,0,0,prototype4.png,no,mono,no,18,no,black,no,no,768,1176,3.5.6,legacy,xpyriment,osweb,1.3.13,0,space,space,space,space,31834,25056,23864,31834,2,legacy,728,1366,24,768,24,0,0,1366,1646390562343,1024,2,48000,-16,experiment,p1sarr4.png,0,even,Win32,222,137106,134093,222,222,650664,652180,645663,138625,645662,222,768658,770175,765663,652187,765663,visual_patterns,0,0,0,yes,1366
undefined,undefined,undefined,undefined,white,no,Mozilla,Netscape,"5.0 (Windows NT 10.0; Win64; x64) AppleWebKit/537.36 (KHTML, like Gecko) Chrome/99.0.4844.51 Safari/537.36",xpyriment,legacy,legacy,0,uniform,0,0,0,0,24,24,24,0,0,74,74,74,74,74,0,74,0,19,19,19,19,19,0,19,04-02-22,04-02-22,11:42:38,Fri Mar 04 2022 11:42:38 GMT+0100 (közép-európai téli idő),The main experiment item,yes,0,0,C:/Users/rrics/Documents/!!ResearchBMECOGSCI/gnet,0,0,0,prototype4.png,no,mono,no,18,no,black,no,no,768,1176,3.5.6,legacy,xpyriment,osweb,1.3.13,0,space,space,space,space,31834,25056,23864,31834,2,legacy,728,1366,24,768,24,0,0,1366,1646390562343,1024,2,48000,-16,experiment,p10sarr1.png,0,even,Win32,222,137106,134093,222,222,650664,652180,645663,138625,645662,222,773199,774708,770199,652187,770198,visual_patterns,0,0,0,yes,1366
undefined,undefined,undefined,undefined,white,no,Mozilla,Netscape,"5.0 (Windows NT 10.0; Win64; x64) AppleWebKit/537.36 (KHTML, like Gecko) Chrome/99.0.4844.51 Safari/537.36",xpyriment,legacy,legacy,0,uniform,0,0,0,0,24,24,24,0,0,74,74,74,74,74,0,74,0,20,20,20,20,20,0,20,04-02-22,04-02-22,11:42:38,Fri Mar 04 2022 11:42:38 GMT+0100 (közép-európai téli idő),The main experiment item,yes,0,0,C:/Users/rrics/Documents/!!ResearchBMECOGSCI/gnet,0,0,0,prototype4.png,no,mono,no,18,no,black,no,no,768,1176,3.5.6,legacy,xpyriment,osweb,1.3.13,0,space,space,space,space,31834,25056,23864,31834,2,legacy,728,1366,24,768,24,0,0,1366,1646390562343,1024,2,48000,-16,experiment,p8sarr3.png,0,even,Win32,222,137106,134093,222,222,650664,652180,645663,138625,645662,222,777730,779241,774736,652187,774736,visual_patterns,0,0,0,yes,1366
undefined,undefined,undefined,undefined,white,no,Mozilla,Netscape,"5.0 (Windows NT 10.0; Win64; x64) AppleWebKit/537.36 (KHTML, like Gecko) Chrome/99.0.4844.51 Safari/537.36",xpyriment,legacy,legacy,0,uniform,0,0,0,0,24,24,24,0,0,74,74,74,74,74,0,74,0,21,21,21,21,21,0,21,04-02-22,04-02-22,11:42:38,Fri Mar 04 2022 11:42:38 GMT+0100 (közép-európai téli idő),The main experiment item,yes,0,0,C:/Users/rrics/Documents/!!ResearchBMECOGSCI/gnet,0,0,0,prototype4.png,no,mono,no,18,no,black,no,no,768,1176,3.5.6,legacy,xpyriment,osweb,1.3.13,0,space,space,space,space,31834,25056,23864,31834,2,legacy,728,1366,24,768,24,0,0,1366,1646390562343,1024,2,48000,-16,experiment,p9sarr4.png,0,even,Win32,222,137106,134093,222,222,650664,652180,645663,138625,645662,222,782266,783774,779270,652187,779270,visual_patterns,0,0,0,yes,1366
undefined,undefined,undefined,undefined,white,no,Mozilla,Netscape,"5.0 (Windows NT 10.0; Win64; x64) AppleWebKit/537.36 (KHTML, like Gecko) Chrome/99.0.4844.51 Safari/537.36",xpyriment,legacy,legacy,0,uniform,0,0,0,0,24,24,24,0,0,74,74,74,74,74,0,74,0,22,22,22,22,22,0,22,04-02-22,04-02-22,11:42:38,Fri Mar 04 2022 11:42:38 GMT+0100 (közép-európai téli idő),The main experiment item,yes,0,0,C:/Users/rrics/Documents/!!ResearchBMECOGSCI/gnet,0,0,0,prototype4.png,no,mono,no,18,no,black,no,no,768,1176,3.5.6,legacy,xpyriment,osweb,1.3.13,0,space,space,space,space,31834,25056,23864,31834,2,legacy,728,1366,24,768,24,0,0,1366,1646390562343,1024,2,48000,-16,experiment,p5sarrcol2.png,0,even,Win32,222,137106,134093,222,222,650664,652180,645663,138625,645662,222,786796,788307,783796,652187,783796,visual_patterns,0,0,0,yes,1366
undefined,undefined,undefined,undefined,white,no,Mozilla,Netscape,"5.0 (Windows NT 10.0; Win64; x64) AppleWebKit/537.36 (KHTML, like Gecko) Chrome/99.0.4844.51 Safari/537.36",xpyriment,legacy,legacy,0,uniform,0,0,0,0,24,24,24,0,0,74,74,74,74,74,0,74,0,23,23,23,23,23,0,23,04-02-22,04-02-22,11:42:38,Fri Mar 04 2022 11:42:38 GMT+0100 (közép-európai téli idő),The main experiment item,yes,0,0,C:/Users/rrics/Documents/!!ResearchBMECOGSCI/gnet,0,0,0,prototype4.png,no,mono,no,18,no,black,no,no,768,1176,3.5.6,legacy,xpyriment,osweb,1.3.13,0,space,space,space,space,31834,25056,23864,31834,2,legacy,728,1366,24,768,24,0,0,1366,1646390562343,1024,2,48000,-16,experiment,p7sarr4.png,0,even,Win32,222,137106,134093,222,222,650664,652180,645663,138625,645662,222,791330,792841,788332,652187,788332,visual_patterns,0,0,0,yes,1366
undefined,undefined,undefined,undefined,white,no,Mozilla,Netscape,"5.0 (Windows NT 10.0; Win64; x64) AppleWebKit/537.36 (KHTML, like Gecko) Chrome/99.0.4844.51 Safari/537.36",xpyriment,legacy,legacy,0,uniform,0,0,0,0,24,24,24,0,0,74,74,74,74,74,0,74,0,24,24,24,24,24,0,24,04-02-22,04-02-22,11:42:38,Fri Mar 04 2022 11:42:38 GMT+0100 (közép-európai téli idő),The main experiment item,yes,0,0,C:/Users/rrics/Documents/!!ResearchBMECOGSCI/gnet,0,0,0,prototype4.png,no,mono,no,18,no,black,no,no,768,1176,3.5.6,legacy,xpyriment,osweb,1.3.13,0,space,space,space,space,31834,25056,23864,31834,2,legacy,728,1366,24,768,24,0,0,1366,1646390562343,1024,2,48000,-16,experiment,p3sarrsha3.png,0,even,Win32,222,137106,134093,222,222,650664,652180,645663,138625,645662,222,795864,797374,792869,652187,792869,visual_patterns,0,0,0,yes,1366
undefined,undefined,undefined,undefined,white,no,Mozilla,Netscape,"5.0 (Windows NT 10.0; Win64; x64) AppleWebKit/537.36 (KHTML, like Gecko) Chrome/99.0.4844.51 Safari/537.36",xpyriment,legacy,legacy,0,uniform,0,0,0,0,24,24,24,0,0,74,74,74,74,74,0,74,0,25,25,25,25,25,0,25,04-02-22,04-02-22,11:42:38,Fri Mar 04 2022 11:42:38 GMT+0100 (közép-európai téli idő),The main experiment item,yes,0,0,C:/Users/rrics/Documents/!!ResearchBMECOGSCI/gnet,0,0,0,prototype4.png,no,mono,no,18,no,black,no,no,768,1176,3.5.6,legacy,xpyriment,osweb,1.3.13,0,space,space,space,space,31834,25056,23864,31834,2,legacy,728,1366,24,768,24,0,0,1366,1646390562343,1024,2,48000,-16,experiment,p8sarr4.png,0,even,Win32,222,137106,134093,222,222,650664,652180,645663,138625,645662,222,800397,801907,797401,652187,797401,visual_patterns,0,0,0,yes,1366
undefined,undefined,undefined,undefined,white,no,Mozilla,Netscape,"5.0 (Windows NT 10.0; Win64; x64) AppleWebKit/537.36 (KHTML, like Gecko) Chrome/99.0.4844.51 Safari/537.36",xpyriment,legacy,legacy,0,uniform,0,0,0,0,24,24,24,0,0,74,74,74,74,74,0,74,0,26,26,26,26,26,0,26,04-02-22,04-02-22,11:42:38,Fri Mar 04 2022 11:42:38 GMT+0100 (közép-európai téli idő),The main experiment item,yes,0,0,C:/Users/rrics/Documents/!!ResearchBMECOGSCI/gnet,0,0,0,prototype4.png,no,mono,no,18,no,black,no,no,768,1176,3.5.6,legacy,xpyriment,osweb,1.3.13,0,space,space,space,space,31834,25056,23864,31834,2,legacy,728,1366,24,768,24,0,0,1366,1646390562343,1024,2,48000,-16,experiment,p2sarrshacol4.png,0,even,Win32,222,137106,134093,222,222,650664,652180,645663,138625,645662,222,804934,806440,801938,652187,801938,visual_patterns,0,0,0,yes,1366
undefined,undefined,undefined,undefined,white,no,Mozilla,Netscape,"5.0 (Windows NT 10.0; Win64; x64) AppleWebKit/537.36 (KHTML, like Gecko) Chrome/99.0.4844.51 Safari/537.36",xpyriment,legacy,legacy,0,uniform,0,0,0,0,24,24,24,0,0,74,74,74,74,74,0,74,0,27,27,27,27,27,0,27,04-02-22,04-02-22,11:42:38,Fri Mar 04 2022 11:42:38 GMT+0100 (közép-európai téli idő),The main experiment item,yes,0,0,C:/Users/rrics/Documents/!!ResearchBMECOGSCI/gnet,0,0,0,prototype4.png,no,mono,no,18,no,black,no,no,768,1176,3.5.6,legacy,xpyriment,osweb,1.3.13,0,space,space,space,space,31834,25056,23864,31834,2,legacy,728,1366,24,768,24,0,0,1366,1646390562343,1024,2,48000,-16,experiment,p4sarrshacol1.png,0,even,Win32,222,137106,134093,222,222,650664,652180,645663,138625,645662,222,809465,810973,806463,652187,806463,visual_patterns,0,0,0,yes,1366
undefined,undefined,undefined,undefined,white,no,Mozilla,Netscape,"5.0 (Windows NT 10.0; Win64; x64) AppleWebKit/537.36 (KHTML, like Gecko) Chrome/99.0.4844.51 Safari/537.36",xpyriment,legacy,legacy,0,uniform,0,0,0,0,24,24,24,0,0,74,74,74,74,74,0,74,0,28,28,28,28,28,0,28,04-02-22,04-02-22,11:42:38,Fri Mar 04 2022 11:42:38 GMT+0100 (közép-európai téli idő),The main experiment item,yes,0,0,C:/Users/rrics/Documents/!!ResearchBMECOGSCI/gnet,0,0,0,prototype4.png,no,mono,no,18,no,black,no,no,768,1176,3.5.6,legacy,xpyriment,osweb,1.3.13,0,space,space,space,space,31834,25056,23864,31834,2,legacy,728,1366,24,768,24,0,0,1366,1646390562343,1024,2,48000,-16,experiment,p1sarrshacol3.png,0,even,Win32,222,137106,134093,222,222,650664,652180,645663,138625,645662,222,813996,815506,810997,652187,810997,visual_patterns,0,0,0,yes,1366
undefined,undefined,undefined,undefined,white,no,Mozilla,Netscape,"5.0 (Windows NT 10.0; Win64; x64) AppleWebKit/537.36 (KHTML, like Gecko) Chrome/99.0.4844.51 Safari/537.36",xpyriment,legacy,legacy,0,uniform,0,0,0,0,24,24,24,0,0,74,74,74,74,74,0,74,0,29,29,29,29,29,0,29,04-02-22,04-02-22,11:42:38,Fri Mar 04 2022 11:42:38 GMT+0100 (közép-európai téli idő),The main experiment item,yes,0,0,C:/Users/rrics/Documents/!!ResearchBMECOGSCI/gnet,0,0,0,prototype4.png,no,mono,no,18,no,black,no,no,768,1176,3.5.6,legacy,xpyriment,osweb,1.3.13,0,space,space,space,space,31834,25056,23864,31834,2,legacy,728,1366,24,768,24,0,0,1366,1646390562343,1024,2,48000,-16,experiment,p2sarrsha1.png,0,even,Win32,222,137106,134093,222,222,650664,652180,645663,138625,645662,222,818530,820039,815530,652187,815530,visual_patterns,0,0,0,yes,1366
undefined,undefined,undefined,undefined,white,no,Mozilla,Netscape,"5.0 (Windows NT 10.0; Win64; x64) AppleWebKit/537.36 (KHTML, like Gecko) Chrome/99.0.4844.51 Safari/537.36",xpyriment,legacy,legacy,0,uniform,0,0,0,0,24,24,24,0,0,74,74,74,74,74,0,74,0,30,30,30,30,30,0,30,04-02-22,04-02-22,11:42:38,Fri Mar 04 2022 11:42:38 GMT+0100 (közép-európai téli idő),The main experiment item,yes,0,0,C:/Users/rrics/Documents/!!ResearchBMECOGSCI/gnet,0,0,0,prototype4.png,no,mono,no,18,no,black,no,no,768,1176,3.5.6,legacy,xpyriment,osweb,1.3.13,0,space,space,space,space,31834,25056,23864,31834,2,legacy,728,1366,24,768,24,0,0,1366,1646390562343,1024,2,48000,-16,experiment,p3sarr2.png,0,even,Win32,222,137106,134093,222,222,650664,652180,645663,138625,645662,222,823064,824572,820062,652187,820062,visual_patterns,0,0,0,yes,1366
undefined,undefined,undefined,undefined,white,no,Mozilla,Netscape,"5.0 (Windows NT 10.0; Win64; x64) AppleWebKit/537.36 (KHTML, like Gecko) Chrome/99.0.4844.51 Safari/537.36",xpyriment,legacy,legacy,0,uniform,0,0,0,0,24,24,24,0,0,74,74,74,74,74,0,74,0,31,31,31,31,31,0,31,04-02-22,04-02-22,11:42:38,Fri Mar 04 2022 11:42:38 GMT+0100 (közép-európai téli idő),The main experiment item,yes,0,0,C:/Users/rrics/Documents/!!ResearchBMECOGSCI/gnet,0,0,0,prototype4.png,no,mono,no,18,no,black,no,no,768,1176,3.5.6,legacy,xpyriment,osweb,1.3.13,0,space,space,space,space,31834,25056,23864,31834,2,legacy,728,1366,24,768,24,0,0,1366,1646390562343,1024,2,48000,-16,experiment,p3sarrshacol3.png,0,even,Win32,222,137106,134093,222,222,650664,652180,645663,138625,645662,222,827594,829105,824600,652187,824600,visual_patterns,0,0,0,yes,1366
undefined,undefined,undefined,undefined,white,no,Mozilla,Netscape,"5.0 (Windows NT 10.0; Win64; x64) AppleWebKit/537.36 (KHTML, like Gecko) Chrome/99.0.4844.51 Safari/537.36",xpyriment,legacy,legacy,0,uniform,0,0,0,0,24,24,24,0,0,74,74,74,74,74,0,74,0,32,32,32,32,32,0,32,04-02-22,04-02-22,11:42:38,Fri Mar 04 2022 11:42:38 GMT+0100 (közép-európai téli idő),The main experiment item,yes,0,0,C:/Users/rrics/Documents/!!ResearchBMECOGSCI/gnet,0,0,0,prototype4.png,no,mono,no,18,no,black,no,no,768,1176,3.5.6,legacy,xpyriment,osweb,1.3.13,0,space,space,space,space,31834,25056,23864,31834,2,legacy,728,1366,24,768,24,0,0,1366,1646390562343,1024,2,48000,-16,experiment,p2sarrcol4.png,0,even,Win32,222,137106,134093,222,222,650664,652180,645663,138625,645662,222,832127,833639,829131,652187,829131,visual_patterns,0,0,0,yes,1366
undefined,undefined,undefined,undefined,white,no,Mozilla,Netscape,"5.0 (Windows NT 10.0; Win64; x64) AppleWebKit/537.36 (KHTML, like Gecko) Chrome/99.0.4844.51 Safari/537.36",xpyriment,legacy,legacy,0,uniform,0,0,0,0,24,24,24,0,0,74,74,74,74,74,0,74,0,33,33,33,33,33,0,33,04-02-22,04-02-22,11:42:38,Fri Mar 04 2022 11:42:38 GMT+0100 (közép-európai téli idő),The main experiment item,yes,0,0,C:/Users/rrics/Documents/!!ResearchBMECOGSCI/gnet,0,0,0,prototype4.png,no,mono,no,18,no,black,no,no,768,1176,3.5.6,legacy,xpyriment,osweb,1.3.13,0,space,space,space,space,31834,25056,23864,31834,2,legacy,728,1366,24,768,24,0,0,1366,1646390562343,1024,2,48000,-16,experiment,p5sarrcol1.png,0,even,Win32,222,137106,134093,222,222,650664,652180,645663,138625,645662,222,836664,838172,833674,652187,833674,visual_patterns,0,0,0,yes,1366
undefined,undefined,undefined,undefined,white,no,Mozilla,Netscape,"5.0 (Windows NT 10.0; Win64; x64) AppleWebKit/537.36 (KHTML, like Gecko) Chrome/99.0.4844.51 Safari/537.36",xpyriment,legacy,legacy,0,uniform,0,0,0,0,24,24,24,0,0,74,74,74,74,74,0,74,0,34,34,34,34,34,0,34,04-02-22,04-02-22,11:42:38,Fri Mar 04 2022 11:42:38 GMT+0100 (közép-európai téli idő),The main experiment item,yes,0,0,C:/Users/rrics/Documents/!!ResearchBMECOGSCI/gnet,0,0,0,prototype4.png,no,mono,no,18,no,black,no,no,768,1176,3.5.6,legacy,xpyriment,osweb,1.3.13,0,space,space,space,space,31834,25056,23864,31834,2,legacy,728,1366,24,768,24,0,0,1366,1646390562343,1024,2,48000,-16,experiment,p8sarr2.png,0,even,Win32,222,137106,134093,222,222,650664,652180,645663,138625,645662,222,841193,842705,838200,652187,838200,visual_patterns,0,0,0,yes,1366
undefined,undefined,undefined,undefined,white,no,Mozilla,Netscape,"5.0 (Windows NT 10.0; Win64; x64) AppleWebKit/537.36 (KHTML, like Gecko) Chrome/99.0.4844.51 Safari/537.36",xpyriment,legacy,legacy,0,uniform,0,0,0,0,24,24,24,0,0,74,74,74,74,74,0,74,0,35,35,35,35,35,0,35,04-02-22,04-02-22,11:42:38,Fri Mar 04 2022 11:42:38 GMT+0100 (közép-európai téli idő),The main experiment item,yes,0,0,C:/Users/rrics/Documents/!!ResearchBMECOGSCI/gnet,0,0,0,prototype4.png,no,mono,no,18,no,black,no,no,768,1176,3.5.6,legacy,xpyriment,osweb,1.3.13,0,space,space,space,space,31834,25056,23864,31834,2,legacy,728,1366,24,768,24,0,0,1366,1646390562343,1024,2,48000,-16,experiment,p5sarr3.png,0,even,Win32,222,137106,134093,222,222,650664,652180,645663,138625,645662,222,845725,847238,842730,652187,842730,visual_patterns,0,0,0,yes,1366
undefined,undefined,undefined,undefined,white,no,Mozilla,Netscape,"5.0 (Windows NT 10.0; Win64; x64) AppleWebKit/537.36 (KHTML, like Gecko) Chrome/99.0.4844.51 Safari/537.36",xpyriment,legacy,legacy,0,uniform,0,0,0,0,24,24,24,0,0,74,74,74,74,74,0,74,0,36,36,36,36,36,0,36,04-02-22,04-02-22,11:42:38,Fri Mar 04 2022 11:42:38 GMT+0100 (közép-európai téli idő),The main experiment item,yes,0,0,C:/Users/rrics/Documents/!!ResearchBMECOGSCI/gnet,0,0,0,prototype4.png,no,mono,no,18,no,black,no,no,768,1176,3.5.6,legacy,xpyriment,osweb,1.3.13,0,space,space,space,space,31834,25056,23864,31834,2,legacy,728,1366,24,768,24,0,0,1366,1646390562343,1024,2,48000,-16,experiment,p7sarr1.png,0,even,Win32,222,137106,134093,222,222,650664,652180,645663,138625,645662,222,850259,851771,847261,652187,847261,visual_patterns,0,0,0,yes,1366
undefined,undefined,undefined,undefined,white,no,Mozilla,Netscape,"5.0 (Windows NT 10.0; Win64; x64) AppleWebKit/537.36 (KHTML, like Gecko) Chrome/99.0.4844.51 Safari/537.36",xpyriment,legacy,legacy,0,uniform,0,0,0,0,24,24,24,0,0,74,74,74,74,74,0,74,0,37,37,37,37,37,0,37,04-02-22,04-02-22,11:42:38,Fri Mar 04 2022 11:42:38 GMT+0100 (közép-európai téli idő),The main experiment item,yes,0,0,C:/Users/rrics/Documents/!!ResearchBMECOGSCI/gnet,0,0,0,prototype4.png,no,mono,no,18,no,black,no,no,768,1176,3.5.6,legacy,xpyriment,osweb,1.3.13,0,space,space,space,space,31834,25056,23864,31834,2,legacy,728,1366,24,768,24,0,0,1366,1646390562343,1024,2,48000,-16,experiment,p1sarrcol4.png,0,even,Win32,222,137106,134093,222,222,650664,652180,645663,138625,645662,222,854787,856304,851787,652187,851787,visual_patterns,0,0,0,yes,1366
undefined,undefined,undefined,undefined,white,no,Mozilla,Netscape,"5.0 (Windows NT 10.0; Win64; x64) AppleWebKit/537.36 (KHTML, like Gecko) Chrome/99.0.4844.51 Safari/537.36",xpyriment,legacy,legacy,0,uniform,0,0,0,0,24,24,24,0,0,74,74,74,74,74,0,74,0,38,38,38,38,38,0,38,04-02-22,04-02-22,11:42:38,Fri Mar 04 2022 11:42:38 GMT+0100 (közép-európai téli idő),The main experiment item,yes,0,0,C:/Users/rrics/Documents/!!ResearchBMECOGSCI/gnet,0,0,0,prototype4.png,no,mono,no,18,no,black,no,no,768,1176,3.5.6,legacy,xpyriment,osweb,1.3.13,0,space,space,space,space,31834,25056,23864,31834,2,legacy,728,1366,24,768,24,0,0,1366,1646390562343,1024,2,48000,-16,experiment,p3sarrsha4.png,0,even,Win32,222,137106,134093,222,222,650664,652180,645663,138625,645662,222,859325,860837,856325,652187,856325,visual_patterns,0,0,0,yes,1366
undefined,undefined,undefined,undefined,white,no,Mozilla,Netscape,"5.0 (Windows NT 10.0; Win64; x64) AppleWebKit/537.36 (KHTML, like Gecko) Chrome/99.0.4844.51 Safari/537.36",xpyriment,legacy,legacy,0,uniform,0,0,0,0,24,24,24,0,0,74,74,74,74,74,0,74,0,39,39,39,39,39,0,39,04-02-22,04-02-22,11:42:38,Fri Mar 04 2022 11:42:38 GMT+0100 (közép-európai téli idő),The main experiment item,yes,0,0,C:/Users/rrics/Documents/!!ResearchBMECOGSCI/gnet,0,0,0,prototype4.png,no,mono,no,18,no,black,no,no,768,1176,3.5.6,legacy,xpyriment,osweb,1.3.13,0,space,space,space,space,31834,25056,23864,31834,2,legacy,728,1366,24,768,24,0,0,1366,1646390562343,1024,2,48000,-16,experiment,p3sarr1.png,0,even,Win32,222,137106,134093,222,222,650664,652180,645663,138625,645662,222,863861,865370,860864,652187,860864,visual_patterns,0,0,0,yes,1366
undefined,undefined,undefined,undefined,white,no,Mozilla,Netscape,"5.0 (Windows NT 10.0; Win64; x64) AppleWebKit/537.36 (KHTML, like Gecko) Chrome/99.0.4844.51 Safari/537.36",xpyriment,legacy,legacy,0,uniform,0,0,0,0,24,24,24,0,0,74,74,74,74,74,0,74,0,40,40,40,40,40,0,40,04-02-22,04-02-22,11:42:38,Fri Mar 04 2022 11:42:38 GMT+0100 (közép-európai téli idő),The main experiment item,yes,0,0,C:/Users/rrics/Documents/!!ResearchBMECOGSCI/gnet,0,0,0,prototype4.png,no,mono,no,18,no,black,no,no,768,1176,3.5.6,legacy,xpyriment,osweb,1.3.13,0,space,space,space,space,31834,25056,23864,31834,2,legacy,728,1366,24,768,24,0,0,1366,1646390562343,1024,2,48000,-16,experiment,p2sarrsha3.png,0,even,Win32,222,137106,134093,222,222,650664,652180,645663,138625,645662,222,868394,869904,865396,652187,865396,visual_patterns,0,0,0,yes,1366
undefined,undefined,undefined,undefined,white,no,Mozilla,Netscape,"5.0 (Windows NT 10.0; Win64; x64) AppleWebKit/537.36 (KHTML, like Gecko) Chrome/99.0.4844.51 Safari/537.36",xpyriment,legacy,legacy,0,uniform,0,0,0,0,24,24,24,0,0,74,74,74,74,74,0,74,0,41,41,41,41,41,0,41,04-02-22,04-02-22,11:42:38,Fri Mar 04 2022 11:42:38 GMT+0100 (közép-európai téli idő),The main experiment item,yes,0,0,C:/Users/rrics/Documents/!!ResearchBMECOGSCI/gnet,0,0,0,prototype4.png,no,mono,no,18,no,black,no,no,768,1176,3.5.6,legacy,xpyriment,osweb,1.3.13,0,space,space,space,space,31834,25056,23864,31834,2,legacy,728,1366,24,768,24,0,0,1366,1646390562343,1024,2,48000,-16,experiment,p9sarr3.png,0,even,Win32,222,137106,134093,222,222,650664,652180,645663,138625,645662,222,872928,874437,869933,652187,869933,visual_patterns,0,0,0,yes,1366
undefined,undefined,undefined,undefined,white,no,Mozilla,Netscape,"5.0 (Windows NT 10.0; Win64; x64) AppleWebKit/537.36 (KHTML, like Gecko) Chrome/99.0.4844.51 Safari/537.36",xpyriment,legacy,legacy,0,uniform,0,0,0,0,24,24,24,0,0,74,74,74,74,74,0,74,0,42,42,42,42,42,0,42,04-02-22,04-02-22,11:42:38,Fri Mar 04 2022 11:42:38 GMT+0100 (közép-európai téli idő),The main experiment item,yes,0,0,C:/Users/rrics/Documents/!!ResearchBMECOGSCI/gnet,0,0,0,prototype4.png,no,mono,no,18,no,black,no,no,768,1176,3.5.6,legacy,xpyriment,osweb,1.3.13,0,space,space,space,space,31834,25056,23864,31834,2,legacy,728,1366,24,768,24,0,0,1366,1646390562343,1024,2,48000,-16,experiment,p10sarr4.png,0,even,Win32,222,137106,134093,222,222,650664,652180,645663,138625,645662,222,877472,878986,874480,652187,874480,visual_patterns,0,0,0,yes,1366
undefined,undefined,undefined,undefined,white,no,Mozilla,Netscape,"5.0 (Windows NT 10.0; Win64; x64) AppleWebKit/537.36 (KHTML, like Gecko) Chrome/99.0.4844.51 Safari/537.36",xpyriment,legacy,legacy,0,uniform,0,0,0,0,24,24,24,0,0,74,74,74,74,74,0,74,0,43,43,43,43,43,0,43,04-02-22,04-02-22,11:42:38,Fri Mar 04 2022 11:42:38 GMT+0100 (közép-európai téli idő),The main experiment item,yes,0,0,C:/Users/rrics/Documents/!!ResearchBMECOGSCI/gnet,0,0,0,prototype4.png,no,mono,no,18,no,black,no,no,768,1176,3.5.6,legacy,xpyriment,osweb,1.3.13,0,space,space,space,space,31834,25056,23864,31834,2,legacy,728,1366,24,768,24,0,0,1366,1646390562343,1024,2,48000,-16,experiment,p4sarrcol1.png,0,even,Win32,222,137106,134093,222,222,650664,652180,645663,138625,645662,222,882008,883520,879015,652187,879015,visual_patterns,0,0,0,yes,1366
undefined,undefined,undefined,undefined,white,no,Mozilla,Netscape,"5.0 (Windows NT 10.0; Win64; x64) AppleWebKit/537.36 (KHTML, like Gecko) Chrome/99.0.4844.51 Safari/537.36",xpyriment,legacy,legacy,0,uniform,0,0,0,0,24,24,24,0,0,74,74,74,74,74,0,74,0,44,44,44,44,44,0,44,04-02-22,04-02-22,11:42:38,Fri Mar 04 2022 11:42:38 GMT+0100 (közép-európai téli idő),The main experiment item,yes,0,0,C:/Users/rrics/Documents/!!ResearchBMECOGSCI/gnet,0,0,0,prototype4.png,no,mono,no,18,no,black,no,no,768,1176,3.5.6,legacy,xpyriment,osweb,1.3.13,0,space,space,space,space,31834,25056,23864,31834,2,legacy,728,1366,24,768,24,0,0,1366,1646390562343,1024,2,48000,-16,experiment,p5sarrshacol4.png,0,even,Win32,222,137106,134093,222,222,650664,652180,645663,138625,645662,222,886544,888053,883546,652187,883546,visual_patterns,0,0,0,yes,1366
undefined,undefined,undefined,undefined,white,no,Mozilla,Netscape,"5.0 (Windows NT 10.0; Win64; x64) AppleWebKit/537.36 (KHTML, like Gecko) Chrome/99.0.4844.51 Safari/537.36",xpyriment,legacy,legacy,0,uniform,0,0,0,0,24,24,24,0,0,74,74,74,74,74,0,74,0,45,45,45,45,45,0,45,04-02-22,04-02-22,11:42:38,Fri Mar 04 2022 11:42:38 GMT+0100 (közép-európai téli idő),The main experiment item,yes,0,0,C:/Users/rrics/Documents/!!ResearchBMECOGSCI/gnet,0,0,0,prototype4.png,no,mono,no,18,no,black,no,no,768,1176,3.5.6,legacy,xpyriment,osweb,1.3.13,0,space,space,space,space,31834,25056,23864,31834,2,legacy,728,1366,24,768,24,0,0,1366,1646390562343,1024,2,48000,-16,experiment,p3sarr3.png,0,even,Win32,222,137106,134093,222,222,650664,652180,645663,138625,645662,222,891077,892586,888081,652187,888081,visual_patterns,0,0,0,yes,1366
undefined,undefined,undefined,undefined,white,no,Mozilla,Netscape,"5.0 (Windows NT 10.0; Win64; x64) AppleWebKit/537.36 (KHTML, like Gecko) Chrome/99.0.4844.51 Safari/537.36",xpyriment,legacy,legacy,0,uniform,0,0,0,0,24,24,24,0,0,74,74,74,74,74,0,74,0,46,46,46,46,46,0,46,04-02-22,04-02-22,11:42:38,Fri Mar 04 2022 11:42:38 GMT+0100 (közép-európai téli idő),The main experiment item,yes,0,0,C:/Users/rrics/Documents/!!ResearchBMECOGSCI/gnet,0,0,0,prototype4.png,no,mono,no,18,no,black,no,no,768,1176,3.5.6,legacy,xpyriment,osweb,1.3.13,0,space,space,space,space,31834,25056,23864,31834,2,legacy,728,1366,24,768,24,0,0,1366,1646390562343,1024,2,48000,-16,experiment,p2sarr3.png,0,even,Win32,222,137106,134093,222,222,650664,652180,645663,138625,645662,222,895607,897119,892611,652187,892611,visual_patterns,0,0,0,yes,1366
undefined,undefined,undefined,undefined,white,no,Mozilla,Netscape,"5.0 (Windows NT 10.0; Win64; x64) AppleWebKit/537.36 (KHTML, like Gecko) Chrome/99.0.4844.51 Safari/537.36",xpyriment,legacy,legacy,0,uniform,0,0,0,0,24,24,24,0,0,74,74,74,74,74,0,74,0,47,47,47,47,47,0,47,04-02-22,04-02-22,11:42:38,Fri Mar 04 2022 11:42:38 GMT+0100 (közép-európai téli idő),The main experiment item,yes,0,0,C:/Users/rrics/Documents/!!ResearchBMECOGSCI/gnet,0,0,0,prototype4.png,no,mono,no,18,no,black,no,no,768,1176,3.5.6,legacy,xpyriment,osweb,1.3.13,0,space,space,space,space,31834,25056,23864,31834,2,legacy,728,1366,24,768,24,0,0,1366,1646390562343,1024,2,48000,-16,experiment,p4sarr2.png,0,even,Win32,222,137106,134093,222,222,650664,652180,645663,138625,645662,222,900143,901652,897148,652187,897148,visual_patterns,0,0,0,yes,1366
undefined,undefined,undefined,undefined,white,no,Mozilla,Netscape,"5.0 (Windows NT 10.0; Win64; x64) AppleWebKit/537.36 (KHTML, like Gecko) Chrome/99.0.4844.51 Safari/537.36",xpyriment,legacy,legacy,0,uniform,0,0,0,0,24,24,24,0,0,74,74,74,74,74,0,74,0,48,48,48,48,48,0,48,04-02-22,04-02-22,11:42:38,Fri Mar 04 2022 11:42:38 GMT+0100 (közép-európai téli idő),The main experiment item,yes,0,0,C:/Users/rrics/Documents/!!ResearchBMECOGSCI/gnet,0,0,0,prototype4.png,no,mono,no,18,no,black,no,no,768,1176,3.5.6,legacy,xpyriment,osweb,1.3.13,0,space,space,space,space,31834,25056,23864,31834,2,legacy,728,1366,24,768,24,0,0,1366,1646390562343,1024,2,48000,-16,experiment,p2sarrshacol3.png,0,even,Win32,222,137106,134093,222,222,650664,652180,645663,138625,645662,222,904679,906185,901681,652187,901681,visual_patterns,0,0,0,yes,1366
