acc,accuracy,average_response_time,avg_rt,background,bidi,browser_codename,browser_name,browser_version,canvas_backend,clock_backend,color_backend,compensation,coordinates,count_end,count_experiment,count_osweb,count_prestudy,count_prestudy_isi,count_prestudy_sequence,count_prestudy_stimpres,count_start,count_study,count_study_coroutines,count_study_isi,count_study_logger,count_study_response,count_study_sequence,count_study_start,count_study_stimpres,count_test,count_test_coroutines,count_test_isi,count_test_logger,count_test_response,count_test_sequence,count_test_start,count_test_stimpres,date_startdate,date_startdateUTC,date_starttime,datetime,description,disable_garbage_collection,experiment_debug,experiment_parameters,experiment_path,experiment_pilot,experiment_taskname,experiment_taskversion,fampict,font_bold,font_family,font_italic,font_size,font_underline,foreground,form_clicks,fullscreen,height,jatosStudyResultId,jatosVersion,keyboard_backend,mouse_backend,opensesame_codename,opensesame_version,repeat_cycle,response,response_start,response_study_start,response_test_start,response_time,response_time_start,response_time_study_start,response_time_test_start,round_decimals,sampler_backend,screen_availableHeight,screen_availableWidth,screen_colorDepth,screen_height,screen_pixelDepth,screen_screenX,screen_screenY,screen_width,sessionid,sound_buf_size,sound_channels,sound_freq,sound_sample_size,start,stim,subject_nr,subject_parity,system_os,time_prestudy,time_prestudy_isi,time_prestudy_stimpres,time_start,time_study,time_study_isi,time_study_logger,time_study_response,time_study_start,time_study_stimpres,time_test,time_test_isi,time_test_logger,time_test_response,time_test_start,time_test_stimpres,title,total_correct,total_response_time,total_responses,uniform_coordinates,width
undefined,undefined,undefined,undefined,white,no,Mozilla,Netscape,"5.0 (Windows NT 10.0; Win64; x64) AppleWebKit/537.36 (KHTML, like Gecko) Chrome/99.0.4844.51 Safari/537.36",xpyriment,legacy,legacy,0,uniform,0,0,0,0,24,24,24,0,0,0,0,0,0,0,0,0,0,,,,,,0,,06-02-22,06-02-22,08:58:37,Sun Mar 06 2022 08:58:37 GMT+0100 (közép-európai téli idő),The main experiment item,yes,0,0,C:/Users/rrics/Documents/!!ResearchBMECOGSCI/gnet,0,0,0,prototype3.png,no,mono,no,18,no,black,no,no,768,1180,3.5.6,legacy,xpyriment,osweb,1.3.13,0,space,space,space,,19848,14181,19848,,2,legacy,680,1280,24,720,24,0,0,1280,1646553516967,1024,2,48000,-16,experiment,p6sarr1.png,0,even,Win32,104,126027,123010,104,104,152417,153926,147413,127530,147412,104,,,,,,visual_patterns,0,0,0,yes,1366
undefined,undefined,undefined,undefined,white,no,Mozilla,Netscape,"5.0 (Windows NT 10.0; Win64; x64) AppleWebKit/537.36 (KHTML, like Gecko) Chrome/99.0.4844.51 Safari/537.36",xpyriment,legacy,legacy,0,uniform,0,0,0,0,24,24,24,0,0,1,1,1,1,1,0,1,0,,,,,,0,,06-02-22,06-02-22,08:58:37,Sun Mar 06 2022 08:58:37 GMT+0100 (közép-európai téli idő),The main experiment item,yes,0,0,C:/Users/rrics/Documents/!!ResearchBMECOGSCI/gnet,0,0,0,prototype3.png,no,mono,no,18,no,black,no,no,768,1180,3.5.6,legacy,xpyriment,osweb,1.3.13,0,space,space,space,,19848,14181,19848,,2,legacy,680,1280,24,720,24,0,0,1280,1646553516967,1024,2,48000,-16,experiment,prototype3.png,0,even,Win32,104,126027,123010,104,104,158941,160448,153941,127530,153941,104,,,,,,visual_patterns,0,0,0,yes,1366
undefined,undefined,undefined,undefined,white,no,Mozilla,Netscape,"5.0 (Windows NT 10.0; Win64; x64) AppleWebKit/537.36 (KHTML, like Gecko) Chrome/99.0.4844.51 Safari/537.36",xpyriment,legacy,legacy,0,uniform,0,0,0,0,24,24,24,0,0,2,2,2,2,2,0,2,0,,,,,,0,,06-02-22,06-02-22,08:58:37,Sun Mar 06 2022 08:58:37 GMT+0100 (közép-európai téli idő),The main experiment item,yes,0,0,C:/Users/rrics/Documents/!!ResearchBMECOGSCI/gnet,0,0,0,prototype3.png,no,mono,no,18,no,black,no,no,768,1180,3.5.6,legacy,xpyriment,osweb,1.3.13,0,space,space,space,,19848,14181,19848,,2,legacy,680,1280,24,720,24,0,0,1280,1646553516967,1024,2,48000,-16,experiment,p3sarr1.png,0,even,Win32,104,126027,123010,104,104,165465,166972,160462,127530,160462,104,,,,,,visual_patterns,0,0,0,yes,1366
undefined,undefined,undefined,undefined,white,no,Mozilla,Netscape,"5.0 (Windows NT 10.0; Win64; x64) AppleWebKit/537.36 (KHTML, like Gecko) Chrome/99.0.4844.51 Safari/537.36",xpyriment,legacy,legacy,0,uniform,0,0,0,0,24,24,24,0,0,3,3,3,3,3,0,3,0,,,,,,0,,06-02-22,06-02-22,08:58:37,Sun Mar 06 2022 08:58:37 GMT+0100 (közép-európai téli idő),The main experiment item,yes,0,0,C:/Users/rrics/Documents/!!ResearchBMECOGSCI/gnet,0,0,0,prototype3.png,no,mono,no,18,no,black,no,no,768,1180,3.5.6,legacy,xpyriment,osweb,1.3.13,0,space,space,space,,19848,14181,19848,,2,legacy,680,1280,24,720,24,0,0,1280,1646553516967,1024,2,48000,-16,experiment,p9sarr2.png,0,even,Win32,104,126027,123010,104,104,171989,173496,166987,127530,166987,104,,,,,,visual_patterns,0,0,0,yes,1366
undefined,undefined,undefined,undefined,white,no,Mozilla,Netscape,"5.0 (Windows NT 10.0; Win64; x64) AppleWebKit/537.36 (KHTML, like Gecko) Chrome/99.0.4844.51 Safari/537.36",xpyriment,legacy,legacy,0,uniform,0,0,0,0,24,24,24,0,0,4,4,4,4,4,0,4,0,,,,,,0,,06-02-22,06-02-22,08:58:37,Sun Mar 06 2022 08:58:37 GMT+0100 (közép-európai téli idő),The main experiment item,yes,0,0,C:/Users/rrics/Documents/!!ResearchBMECOGSCI/gnet,0,0,0,prototype3.png,no,mono,no,18,no,black,no,no,768,1180,3.5.6,legacy,xpyriment,osweb,1.3.13,0,space,space,space,,19848,14181,19848,,2,legacy,680,1280,24,720,24,0,0,1280,1646553516967,1024,2,48000,-16,experiment,p4sarr2.png,0,even,Win32,104,126027,123010,104,104,178513,180020,173510,127530,173510,104,,,,,,visual_patterns,0,0,0,yes,1366
undefined,undefined,undefined,undefined,white,no,Mozilla,Netscape,"5.0 (Windows NT 10.0; Win64; x64) AppleWebKit/537.36 (KHTML, like Gecko) Chrome/99.0.4844.51 Safari/537.36",xpyriment,legacy,legacy,0,uniform,0,0,0,0,24,24,24,0,0,5,5,5,5,5,0,5,0,,,,,,0,,06-02-22,06-02-22,08:58:37,Sun Mar 06 2022 08:58:37 GMT+0100 (közép-európai téli idő),The main experiment item,yes,0,0,C:/Users/rrics/Documents/!!ResearchBMECOGSCI/gnet,0,0,0,prototype3.png,no,mono,no,18,no,black,no,no,768,1180,3.5.6,legacy,xpyriment,osweb,1.3.13,0,space,space,space,,19848,14181,19848,,2,legacy,680,1280,24,720,24,0,0,1280,1646553516967,1024,2,48000,-16,experiment,p4sarrshacol2.png,0,even,Win32,104,126027,123010,104,104,185036,186544,180034,127530,180034,104,,,,,,visual_patterns,0,0,0,yes,1366
undefined,undefined,undefined,undefined,white,no,Mozilla,Netscape,"5.0 (Windows NT 10.0; Win64; x64) AppleWebKit/537.36 (KHTML, like Gecko) Chrome/99.0.4844.51 Safari/537.36",xpyriment,legacy,legacy,0,uniform,0,0,0,0,24,24,24,0,0,6,6,6,6,6,0,6,0,,,,,,0,,06-02-22,06-02-22,08:58:37,Sun Mar 06 2022 08:58:37 GMT+0100 (közép-európai téli idő),The main experiment item,yes,0,0,C:/Users/rrics/Documents/!!ResearchBMECOGSCI/gnet,0,0,0,prototype3.png,no,mono,no,18,no,black,no,no,768,1180,3.5.6,legacy,xpyriment,osweb,1.3.13,0,space,space,space,,19848,14181,19848,,2,legacy,680,1280,24,720,24,0,0,1280,1646553516967,1024,2,48000,-16,experiment,p5sarrsha2.png,0,even,Win32,104,126027,123010,104,104,191560,193067,186558,127530,186558,104,,,,,,visual_patterns,0,0,0,yes,1366
undefined,undefined,undefined,undefined,white,no,Mozilla,Netscape,"5.0 (Windows NT 10.0; Win64; x64) AppleWebKit/537.36 (KHTML, like Gecko) Chrome/99.0.4844.51 Safari/537.36",xpyriment,legacy,legacy,0,uniform,0,0,0,0,24,24,24,0,0,7,7,7,7,7,0,7,0,,,,,,0,,06-02-22,06-02-22,08:58:37,Sun Mar 06 2022 08:58:37 GMT+0100 (közép-európai téli idő),The main experiment item,yes,0,0,C:/Users/rrics/Documents/!!ResearchBMECOGSCI/gnet,0,0,0,prototype3.png,no,mono,no,18,no,black,no,no,768,1180,3.5.6,legacy,xpyriment,osweb,1.3.13,0,space,space,space,,19848,14181,19848,,2,legacy,680,1280,24,720,24,0,0,1280,1646553516967,1024,2,48000,-16,experiment,p2sarr1.png,0,even,Win32,104,126027,123010,104,104,198083,199591,193080,127530,193080,104,,,,,,visual_patterns,0,0,0,yes,1366
undefined,undefined,undefined,undefined,white,no,Mozilla,Netscape,"5.0 (Windows NT 10.0; Win64; x64) AppleWebKit/537.36 (KHTML, like Gecko) Chrome/99.0.4844.51 Safari/537.36",xpyriment,legacy,legacy,0,uniform,0,0,0,0,24,24,24,0,0,8,8,8,8,8,0,8,0,,,,,,0,,06-02-22,06-02-22,08:58:37,Sun Mar 06 2022 08:58:37 GMT+0100 (közép-európai téli idő),The main experiment item,yes,0,0,C:/Users/rrics/Documents/!!ResearchBMECOGSCI/gnet,0,0,0,prototype3.png,no,mono,no,18,no,black,no,no,768,1180,3.5.6,legacy,xpyriment,osweb,1.3.13,0,space,space,space,,19848,14181,19848,,2,legacy,680,1280,24,720,24,0,0,1280,1646553516967,1024,2,48000,-16,experiment,prototype4.png,0,even,Win32,104,126027,123010,104,104,204608,206115,199603,127530,199603,104,,,,,,visual_patterns,0,0,0,yes,1366
undefined,undefined,undefined,undefined,white,no,Mozilla,Netscape,"5.0 (Windows NT 10.0; Win64; x64) AppleWebKit/537.36 (KHTML, like Gecko) Chrome/99.0.4844.51 Safari/537.36",xpyriment,legacy,legacy,0,uniform,0,0,0,0,24,24,24,0,0,9,9,9,9,9,0,9,0,,,,,,0,,06-02-22,06-02-22,08:58:37,Sun Mar 06 2022 08:58:37 GMT+0100 (közép-európai téli idő),The main experiment item,yes,0,0,C:/Users/rrics/Documents/!!ResearchBMECOGSCI/gnet,0,0,0,prototype3.png,no,mono,no,18,no,black,no,no,768,1180,3.5.6,legacy,xpyriment,osweb,1.3.13,0,space,space,space,,19848,14181,19848,,2,legacy,680,1280,24,720,24,0,0,1280,1646553516967,1024,2,48000,-16,experiment,p5sarrsha1.png,0,even,Win32,104,126027,123010,104,104,211132,212639,206129,127530,206129,104,,,,,,visual_patterns,0,0,0,yes,1366
undefined,undefined,undefined,undefined,white,no,Mozilla,Netscape,"5.0 (Windows NT 10.0; Win64; x64) AppleWebKit/537.36 (KHTML, like Gecko) Chrome/99.0.4844.51 Safari/537.36",xpyriment,legacy,legacy,0,uniform,0,0,0,0,24,24,24,0,0,10,10,10,10,10,0,10,0,,,,,,0,,06-02-22,06-02-22,08:58:37,Sun Mar 06 2022 08:58:37 GMT+0100 (közép-európai téli idő),The main experiment item,yes,0,0,C:/Users/rrics/Documents/!!ResearchBMECOGSCI/gnet,0,0,0,prototype3.png,no,mono,no,18,no,black,no,no,768,1180,3.5.6,legacy,xpyriment,osweb,1.3.13,0,space,space,space,,19848,14181,19848,,2,legacy,680,1280,24,720,24,0,0,1280,1646553516967,1024,2,48000,-16,experiment,p5sarrcol1.png,0,even,Win32,104,126027,123010,104,104,217656,219163,212653,127530,212653,104,,,,,,visual_patterns,0,0,0,yes,1366
undefined,undefined,undefined,undefined,white,no,Mozilla,Netscape,"5.0 (Windows NT 10.0; Win64; x64) AppleWebKit/537.36 (KHTML, like Gecko) Chrome/99.0.4844.51 Safari/537.36",xpyriment,legacy,legacy,0,uniform,0,0,0,0,24,24,24,0,0,11,11,11,11,11,0,11,0,,,,,,0,,06-02-22,06-02-22,08:58:37,Sun Mar 06 2022 08:58:37 GMT+0100 (közép-európai téli idő),The main experiment item,yes,0,0,C:/Users/rrics/Documents/!!ResearchBMECOGSCI/gnet,0,0,0,prototype3.png,no,mono,no,18,no,black,no,no,768,1180,3.5.6,legacy,xpyriment,osweb,1.3.13,0,space,space,space,,19848,14181,19848,,2,legacy,680,1280,24,720,24,0,0,1280,1646553516967,1024,2,48000,-16,experiment,p8sarr2.png,0,even,Win32,104,126027,123010,104,104,224180,225686,219176,127530,219176,104,,,,,,visual_patterns,0,0,0,yes,1366
undefined,undefined,undefined,undefined,white,no,Mozilla,Netscape,"5.0 (Windows NT 10.0; Win64; x64) AppleWebKit/537.36 (KHTML, like Gecko) Chrome/99.0.4844.51 Safari/537.36",xpyriment,legacy,legacy,0,uniform,0,0,0,0,24,24,24,0,0,12,12,12,12,12,0,12,0,,,,,,0,,06-02-22,06-02-22,08:58:37,Sun Mar 06 2022 08:58:37 GMT+0100 (közép-európai téli idő),The main experiment item,yes,0,0,C:/Users/rrics/Documents/!!ResearchBMECOGSCI/gnet,0,0,0,prototype3.png,no,mono,no,18,no,black,no,no,768,1180,3.5.6,legacy,xpyriment,osweb,1.3.13,0,space,space,space,,19848,14181,19848,,2,legacy,680,1280,24,720,24,0,0,1280,1646553516967,1024,2,48000,-16,experiment,p5sarrshacol2.png,0,even,Win32,104,126027,123010,104,104,230704,232210,225699,127530,225699,104,,,,,,visual_patterns,0,0,0,yes,1366
undefined,undefined,undefined,undefined,white,no,Mozilla,Netscape,"5.0 (Windows NT 10.0; Win64; x64) AppleWebKit/537.36 (KHTML, like Gecko) Chrome/99.0.4844.51 Safari/537.36",xpyriment,legacy,legacy,0,uniform,0,0,0,0,24,24,24,0,0,13,13,13,13,13,0,13,0,,,,,,0,,06-02-22,06-02-22,08:58:37,Sun Mar 06 2022 08:58:37 GMT+0100 (közép-európai téli idő),The main experiment item,yes,0,0,C:/Users/rrics/Documents/!!ResearchBMECOGSCI/gnet,0,0,0,prototype3.png,no,mono,no,18,no,black,no,no,768,1180,3.5.6,legacy,xpyriment,osweb,1.3.13,0,space,space,space,,19848,14181,19848,,2,legacy,680,1280,24,720,24,0,0,1280,1646553516967,1024,2,48000,-16,experiment,p8sarr1.png,0,even,Win32,104,126027,123010,104,104,237229,238735,232226,127530,232226,104,,,,,,visual_patterns,0,0,0,yes,1366
undefined,undefined,undefined,undefined,white,no,Mozilla,Netscape,"5.0 (Windows NT 10.0; Win64; x64) AppleWebKit/537.36 (KHTML, like Gecko) Chrome/99.0.4844.51 Safari/537.36",xpyriment,legacy,legacy,0,uniform,0,0,0,0,24,24,24,0,0,14,14,14,14,14,0,14,0,,,,,,0,,06-02-22,06-02-22,08:58:37,Sun Mar 06 2022 08:58:37 GMT+0100 (közép-európai téli idő),The main experiment item,yes,0,0,C:/Users/rrics/Documents/!!ResearchBMECOGSCI/gnet,0,0,0,prototype3.png,no,mono,no,18,no,black,no,no,768,1180,3.5.6,legacy,xpyriment,osweb,1.3.13,0,space,space,space,,19848,14181,19848,,2,legacy,680,1280,24,720,24,0,0,1280,1646553516967,1024,2,48000,-16,experiment,p3sarrcol1.png,0,even,Win32,104,126027,123010,104,104,243751,245258,238747,127530,238747,104,,,,,,visual_patterns,0,0,0,yes,1366
undefined,undefined,undefined,undefined,white,no,Mozilla,Netscape,"5.0 (Windows NT 10.0; Win64; x64) AppleWebKit/537.36 (KHTML, like Gecko) Chrome/99.0.4844.51 Safari/537.36",xpyriment,legacy,legacy,0,uniform,0,0,0,0,24,24,24,0,0,15,15,15,15,15,0,15,0,,,,,,0,,06-02-22,06-02-22,08:58:37,Sun Mar 06 2022 08:58:37 GMT+0100 (közép-európai téli idő),The main experiment item,yes,0,0,C:/Users/rrics/Documents/!!ResearchBMECOGSCI/gnet,0,0,0,prototype3.png,no,mono,no,18,no,black,no,no,768,1180,3.5.6,legacy,xpyriment,osweb,1.3.13,0,space,space,space,,19848,14181,19848,,2,legacy,680,1280,24,720,24,0,0,1280,1646553516967,1024,2,48000,-16,experiment,prototype1.png,0,even,Win32,104,126027,123010,104,104,250275,251782,245268,127530,245268,104,,,,,,visual_patterns,0,0,0,yes,1366
undefined,undefined,undefined,undefined,white,no,Mozilla,Netscape,"5.0 (Windows NT 10.0; Win64; x64) AppleWebKit/537.36 (KHTML, like Gecko) Chrome/99.0.4844.51 Safari/537.36",xpyriment,legacy,legacy,0,uniform,0,0,0,0,24,24,24,0,0,16,16,16,16,16,0,16,0,,,,,,0,,06-02-22,06-02-22,08:58:37,Sun Mar 06 2022 08:58:37 GMT+0100 (közép-európai téli idő),The main experiment item,yes,0,0,C:/Users/rrics/Documents/!!ResearchBMECOGSCI/gnet,0,0,0,prototype3.png,no,mono,no,18,no,black,no,no,768,1180,3.5.6,legacy,xpyriment,osweb,1.3.13,0,space,space,space,,19848,14181,19848,,2,legacy,680,1280,24,720,24,0,0,1280,1646553516967,1024,2,48000,-16,experiment,p2sarr2.png,0,even,Win32,104,126027,123010,104,104,256799,258306,251796,127530,251796,104,,,,,,visual_patterns,0,0,0,yes,1366
undefined,undefined,undefined,undefined,white,no,Mozilla,Netscape,"5.0 (Windows NT 10.0; Win64; x64) AppleWebKit/537.36 (KHTML, like Gecko) Chrome/99.0.4844.51 Safari/537.36",xpyriment,legacy,legacy,0,uniform,0,0,0,0,24,24,24,0,0,17,17,17,17,17,0,17,0,,,,,,0,,06-02-22,06-02-22,08:58:37,Sun Mar 06 2022 08:58:37 GMT+0100 (közép-európai téli idő),The main experiment item,yes,0,0,C:/Users/rrics/Documents/!!ResearchBMECOGSCI/gnet,0,0,0,prototype3.png,no,mono,no,18,no,black,no,no,768,1180,3.5.6,legacy,xpyriment,osweb,1.3.13,0,space,space,space,,19848,14181,19848,,2,legacy,680,1280,24,720,24,0,0,1280,1646553516967,1024,2,48000,-16,experiment,p3sarrsha2.png,0,even,Win32,104,126027,123010,104,104,263323,264830,258321,127530,258321,104,,,,,,visual_patterns,0,0,0,yes,1366
undefined,undefined,undefined,undefined,white,no,Mozilla,Netscape,"5.0 (Windows NT 10.0; Win64; x64) AppleWebKit/537.36 (KHTML, like Gecko) Chrome/99.0.4844.51 Safari/537.36",xpyriment,legacy,legacy,0,uniform,0,0,0,0,24,24,24,0,0,18,18,18,18,18,0,18,0,,,,,,0,,06-02-22,06-02-22,08:58:37,Sun Mar 06 2022 08:58:37 GMT+0100 (közép-európai téli idő),The main experiment item,yes,0,0,C:/Users/rrics/Documents/!!ResearchBMECOGSCI/gnet,0,0,0,prototype3.png,no,mono,no,18,no,black,no,no,768,1180,3.5.6,legacy,xpyriment,osweb,1.3.13,0,space,space,space,,19848,14181,19848,,2,legacy,680,1280,24,720,24,0,0,1280,1646553516967,1024,2,48000,-16,experiment,prototype4.png,0,even,Win32,104,126027,123010,104,104,269847,271354,264841,127530,264841,104,,,,,,visual_patterns,0,0,0,yes,1366
undefined,undefined,undefined,undefined,white,no,Mozilla,Netscape,"5.0 (Windows NT 10.0; Win64; x64) AppleWebKit/537.36 (KHTML, like Gecko) Chrome/99.0.4844.51 Safari/537.36",xpyriment,legacy,legacy,0,uniform,0,0,0,0,24,24,24,0,0,19,19,19,19,19,0,19,0,,,,,,0,,06-02-22,06-02-22,08:58:37,Sun Mar 06 2022 08:58:37 GMT+0100 (közép-európai téli idő),The main experiment item,yes,0,0,C:/Users/rrics/Documents/!!ResearchBMECOGSCI/gnet,0,0,0,prototype3.png,no,mono,no,18,no,black,no,no,768,1180,3.5.6,legacy,xpyriment,osweb,1.3.13,0,space,space,space,,19848,14181,19848,,2,legacy,680,1280,24,720,24,0,0,1280,1646553516967,1024,2,48000,-16,experiment,p3sarrsha1.png,0,even,Win32,104,126027,123010,104,104,276369,277879,271366,127530,271366,104,,,,,,visual_patterns,0,0,0,yes,1366
undefined,undefined,undefined,undefined,white,no,Mozilla,Netscape,"5.0 (Windows NT 10.0; Win64; x64) AppleWebKit/537.36 (KHTML, like Gecko) Chrome/99.0.4844.51 Safari/537.36",xpyriment,legacy,legacy,0,uniform,0,0,0,0,24,24,24,0,0,20,20,20,20,20,0,20,0,,,,,,0,,06-02-22,06-02-22,08:58:37,Sun Mar 06 2022 08:58:37 GMT+0100 (közép-európai téli idő),The main experiment item,yes,0,0,C:/Users/rrics/Documents/!!ResearchBMECOGSCI/gnet,0,0,0,prototype3.png,no,mono,no,18,no,black,no,no,768,1180,3.5.6,legacy,xpyriment,osweb,1.3.13,0,space,space,space,,19848,14181,19848,,2,legacy,680,1280,24,720,24,0,0,1280,1646553516967,1024,2,48000,-16,experiment,prototype2.png,0,even,Win32,104,126027,123010,104,104,282893,284401,277889,127530,277889,104,,,,,,visual_patterns,0,0,0,yes,1366
undefined,undefined,undefined,undefined,white,no,Mozilla,Netscape,"5.0 (Windows NT 10.0; Win64; x64) AppleWebKit/537.36 (KHTML, like Gecko) Chrome/99.0.4844.51 Safari/537.36",xpyriment,legacy,legacy,0,uniform,0,0,0,0,24,24,24,0,0,21,21,21,21,21,0,21,0,,,,,,0,,06-02-22,06-02-22,08:58:37,Sun Mar 06 2022 08:58:37 GMT+0100 (közép-európai téli idő),The main experiment item,yes,0,0,C:/Users/rrics/Documents/!!ResearchBMECOGSCI/gnet,0,0,0,prototype3.png,no,mono,no,18,no,black,no,no,768,1180,3.5.6,legacy,xpyriment,osweb,1.3.13,0,space,space,space,,19848,14181,19848,,2,legacy,680,1280,24,720,24,0,0,1280,1646553516967,1024,2,48000,-16,experiment,p4sarrcol2.png,0,even,Win32,104,126027,123010,104,104,289418,290925,284415,127530,284415,104,,,,,,visual_patterns,0,0,0,yes,1366
undefined,undefined,undefined,undefined,white,no,Mozilla,Netscape,"5.0 (Windows NT 10.0; Win64; x64) AppleWebKit/537.36 (KHTML, like Gecko) Chrome/99.0.4844.51 Safari/537.36",xpyriment,legacy,legacy,0,uniform,0,0,0,0,24,24,24,0,0,22,22,22,22,22,0,22,0,,,,,,0,,06-02-22,06-02-22,08:58:37,Sun Mar 06 2022 08:58:37 GMT+0100 (közép-európai téli idő),The main experiment item,yes,0,0,C:/Users/rrics/Documents/!!ResearchBMECOGSCI/gnet,0,0,0,prototype3.png,no,mono,no,18,no,black,no,no,768,1180,3.5.6,legacy,xpyriment,osweb,1.3.13,0,space,space,space,,19848,14181,19848,,2,legacy,680,1280,24,720,24,0,0,1280,1646553516967,1024,2,48000,-16,experiment,p5sarrshacol1.png,0,even,Win32,104,126027,123010,104,104,295959,297466,290959,127530,290959,104,,,,,,visual_patterns,0,0,0,yes,1366
undefined,undefined,undefined,undefined,white,no,Mozilla,Netscape,"5.0 (Windows NT 10.0; Win64; x64) AppleWebKit/537.36 (KHTML, like Gecko) Chrome/99.0.4844.51 Safari/537.36",xpyriment,legacy,legacy,0,uniform,0,0,0,0,24,24,24,0,0,23,23,23,23,23,0,23,0,,,,,,0,,06-02-22,06-02-22,08:58:37,Sun Mar 06 2022 08:58:37 GMT+0100 (közép-európai téli idő),The main experiment item,yes,0,0,C:/Users/rrics/Documents/!!ResearchBMECOGSCI/gnet,0,0,0,prototype3.png,no,mono,no,18,no,black,no,no,768,1180,3.5.6,legacy,xpyriment,osweb,1.3.13,0,space,space,space,,19848,14181,19848,,2,legacy,680,1280,24,720,24,0,0,1280,1646553516967,1024,2,48000,-16,experiment,prototype2.png,0,even,Win32,104,126027,123010,104,104,302483,303990,297477,127530,297477,104,,,,,,visual_patterns,0,0,0,yes,1366
undefined,undefined,undefined,undefined,white,no,Mozilla,Netscape,"5.0 (Windows NT 10.0; Win64; x64) AppleWebKit/537.36 (KHTML, like Gecko) Chrome/99.0.4844.51 Safari/537.36",xpyriment,legacy,legacy,0,uniform,0,0,0,0,24,24,24,0,0,24,24,24,24,24,0,24,0,,,,,,0,,06-02-22,06-02-22,08:58:37,Sun Mar 06 2022 08:58:37 GMT+0100 (közép-európai téli idő),The main experiment item,yes,0,0,C:/Users/rrics/Documents/!!ResearchBMECOGSCI/gnet,0,0,0,prototype3.png,no,mono,no,18,no,black,no,no,768,1180,3.5.6,legacy,xpyriment,osweb,1.3.13,0,space,space,space,,19848,14181,19848,,2,legacy,680,1280,24,720,24,0,0,1280,1646553516967,1024,2,48000,-16,experiment,p4sarrsha2.png,0,even,Win32,104,126027,123010,104,104,309009,310514,304003,127530,304003,104,,,,,,visual_patterns,0,0,0,yes,1366
undefined,undefined,undefined,undefined,white,no,Mozilla,Netscape,"5.0 (Windows NT 10.0; Win64; x64) AppleWebKit/537.36 (KHTML, like Gecko) Chrome/99.0.4844.51 Safari/537.36",xpyriment,legacy,legacy,0,uniform,0,0,0,0,24,24,24,0,0,25,25,25,25,25,0,25,0,,,,,,0,,06-02-22,06-02-22,08:58:37,Sun Mar 06 2022 08:58:37 GMT+0100 (közép-európai téli idő),The main experiment item,yes,0,0,C:/Users/rrics/Documents/!!ResearchBMECOGSCI/gnet,0,0,0,prototype3.png,no,mono,no,18,no,black,no,no,768,1180,3.5.6,legacy,xpyriment,osweb,1.3.13,0,space,space,space,,19848,14181,19848,,2,legacy,680,1280,24,720,24,0,0,1280,1646553516967,1024,2,48000,-16,experiment,p9sarr1.png,0,even,Win32,104,126027,123010,104,104,315532,317037,310527,127530,310527,104,,,,,,visual_patterns,0,0,0,yes,1366
undefined,undefined,undefined,undefined,white,no,Mozilla,Netscape,"5.0 (Windows NT 10.0; Win64; x64) AppleWebKit/537.36 (KHTML, like Gecko) Chrome/99.0.4844.51 Safari/537.36",xpyriment,legacy,legacy,0,uniform,0,0,0,0,24,24,24,0,0,26,26,26,26,26,0,26,0,,,,,,0,,06-02-22,06-02-22,08:58:37,Sun Mar 06 2022 08:58:37 GMT+0100 (közép-európai téli idő),The main experiment item,yes,0,0,C:/Users/rrics/Documents/!!ResearchBMECOGSCI/gnet,0,0,0,prototype3.png,no,mono,no,18,no,black,no,no,768,1180,3.5.6,legacy,xpyriment,osweb,1.3.13,0,space,space,space,,19848,14181,19848,,2,legacy,680,1280,24,720,24,0,0,1280,1646553516967,1024,2,48000,-16,experiment,prototype1.png,0,even,Win32,104,126027,123010,104,104,322054,323561,317047,127530,317047,104,,,,,,visual_patterns,0,0,0,yes,1366
undefined,undefined,undefined,undefined,white,no,Mozilla,Netscape,"5.0 (Windows NT 10.0; Win64; x64) AppleWebKit/537.36 (KHTML, like Gecko) Chrome/99.0.4844.51 Safari/537.36",xpyriment,legacy,legacy,0,uniform,0,0,0,0,24,24,24,0,0,27,27,27,27,27,0,27,0,,,,,,0,,06-02-22,06-02-22,08:58:37,Sun Mar 06 2022 08:58:37 GMT+0100 (közép-európai téli idő),The main experiment item,yes,0,0,C:/Users/rrics/Documents/!!ResearchBMECOGSCI/gnet,0,0,0,prototype3.png,no,mono,no,18,no,black,no,no,768,1180,3.5.6,legacy,xpyriment,osweb,1.3.13,0,space,space,space,,19848,14181,19848,,2,legacy,680,1280,24,720,24,0,0,1280,1646553516967,1024,2,48000,-16,experiment,p4sarrcol1.png,0,even,Win32,104,126027,123010,104,104,328627,330135,323631,127530,323631,104,,,,,,visual_patterns,0,0,0,yes,1366
undefined,undefined,undefined,undefined,white,no,Mozilla,Netscape,"5.0 (Windows NT 10.0; Win64; x64) AppleWebKit/537.36 (KHTML, like Gecko) Chrome/99.0.4844.51 Safari/537.36",xpyriment,legacy,legacy,0,uniform,0,0,0,0,24,24,24,0,0,28,28,28,28,28,0,28,0,,,,,,0,,06-02-22,06-02-22,08:58:37,Sun Mar 06 2022 08:58:37 GMT+0100 (közép-európai téli idő),The main experiment item,yes,0,0,C:/Users/rrics/Documents/!!ResearchBMECOGSCI/gnet,0,0,0,prototype3.png,no,mono,no,18,no,black,no,no,768,1180,3.5.6,legacy,xpyriment,osweb,1.3.13,0,space,space,space,,19848,14181,19848,,2,legacy,680,1280,24,720,24,0,0,1280,1646553516967,1024,2,48000,-16,experiment,prototype4.png,0,even,Win32,104,126027,123010,104,104,335152,336659,330145,127530,330145,104,,,,,,visual_patterns,0,0,0,yes,1366
undefined,undefined,undefined,undefined,white,no,Mozilla,Netscape,"5.0 (Windows NT 10.0; Win64; x64) AppleWebKit/537.36 (KHTML, like Gecko) Chrome/99.0.4844.51 Safari/537.36",xpyriment,legacy,legacy,0,uniform,0,0,0,0,24,24,24,0,0,29,29,29,29,29,0,29,0,,,,,,0,,06-02-22,06-02-22,08:58:37,Sun Mar 06 2022 08:58:37 GMT+0100 (közép-európai téli idő),The main experiment item,yes,0,0,C:/Users/rrics/Documents/!!ResearchBMECOGSCI/gnet,0,0,0,prototype3.png,no,mono,no,18,no,black,no,no,768,1180,3.5.6,legacy,xpyriment,osweb,1.3.13,0,space,space,space,,19848,14181,19848,,2,legacy,680,1280,24,720,24,0,0,1280,1646553516967,1024,2,48000,-16,experiment,prototype5.png,0,even,Win32,104,126027,123010,104,104,341676,343183,336669,127530,336669,104,,,,,,visual_patterns,0,0,0,yes,1366
undefined,undefined,undefined,undefined,white,no,Mozilla,Netscape,"5.0 (Windows NT 10.0; Win64; x64) AppleWebKit/537.36 (KHTML, like Gecko) Chrome/99.0.4844.51 Safari/537.36",xpyriment,legacy,legacy,0,uniform,0,0,0,0,24,24,24,0,0,30,30,30,30,30,0,30,0,,,,,,0,,06-02-22,06-02-22,08:58:37,Sun Mar 06 2022 08:58:37 GMT+0100 (közép-európai téli idő),The main experiment item,yes,0,0,C:/Users/rrics/Documents/!!ResearchBMECOGSCI/gnet,0,0,0,prototype3.png,no,mono,no,18,no,black,no,no,768,1180,3.5.6,legacy,xpyriment,osweb,1.3.13,0,space,space,space,,19848,14181,19848,,2,legacy,680,1280,24,720,24,0,0,1280,1646553516967,1024,2,48000,-16,experiment,p5sarrcol2.png,0,even,Win32,104,126027,123010,104,104,348200,349707,343196,127530,343196,104,,,,,,visual_patterns,0,0,0,yes,1366
undefined,undefined,undefined,undefined,white,no,Mozilla,Netscape,"5.0 (Windows NT 10.0; Win64; x64) AppleWebKit/537.36 (KHTML, like Gecko) Chrome/99.0.4844.51 Safari/537.36",xpyriment,legacy,legacy,0,uniform,0,0,0,0,24,24,24,0,0,31,31,31,31,31,0,31,0,,,,,,0,,06-02-22,06-02-22,08:58:37,Sun Mar 06 2022 08:58:37 GMT+0100 (közép-európai téli idő),The main experiment item,yes,0,0,C:/Users/rrics/Documents/!!ResearchBMECOGSCI/gnet,0,0,0,prototype3.png,no,mono,no,18,no,black,no,no,768,1180,3.5.6,legacy,xpyriment,osweb,1.3.13,0,space,space,space,,19848,14181,19848,,2,legacy,680,1280,24,720,24,0,0,1280,1646553516967,1024,2,48000,-16,experiment,p2sarrsha2.png,0,even,Win32,104,126027,123010,104,104,354724,356231,349721,127530,349720,104,,,,,,visual_patterns,0,0,0,yes,1366
undefined,undefined,undefined,undefined,white,no,Mozilla,Netscape,"5.0 (Windows NT 10.0; Win64; x64) AppleWebKit/537.36 (KHTML, like Gecko) Chrome/99.0.4844.51 Safari/537.36",xpyriment,legacy,legacy,0,uniform,0,0,0,0,24,24,24,0,0,32,32,32,32,32,0,32,0,,,,,,0,,06-02-22,06-02-22,08:58:37,Sun Mar 06 2022 08:58:37 GMT+0100 (közép-európai téli idő),The main experiment item,yes,0,0,C:/Users/rrics/Documents/!!ResearchBMECOGSCI/gnet,0,0,0,prototype3.png,no,mono,no,18,no,black,no,no,768,1180,3.5.6,legacy,xpyriment,osweb,1.3.13,0,space,space,space,,19848,14181,19848,,2,legacy,680,1280,24,720,24,0,0,1280,1646553516967,1024,2,48000,-16,experiment,p5sarr1.png,0,even,Win32,104,126027,123010,104,104,361264,362771,356264,127530,356264,104,,,,,,visual_patterns,0,0,0,yes,1366
undefined,undefined,undefined,undefined,white,no,Mozilla,Netscape,"5.0 (Windows NT 10.0; Win64; x64) AppleWebKit/537.36 (KHTML, like Gecko) Chrome/99.0.4844.51 Safari/537.36",xpyriment,legacy,legacy,0,uniform,0,0,0,0,24,24,24,0,0,33,33,33,33,33,0,33,0,,,,,,0,,06-02-22,06-02-22,08:58:37,Sun Mar 06 2022 08:58:37 GMT+0100 (közép-európai téli idő),The main experiment item,yes,0,0,C:/Users/rrics/Documents/!!ResearchBMECOGSCI/gnet,0,0,0,prototype3.png,no,mono,no,18,no,black,no,no,768,1180,3.5.6,legacy,xpyriment,osweb,1.3.13,0,space,space,space,,19848,14181,19848,,2,legacy,680,1280,24,720,24,0,0,1280,1646553516967,1024,2,48000,-16,experiment,p3sarrshacol1.png,0,even,Win32,104,126027,123010,104,104,367784,369295,362786,127530,362786,104,,,,,,visual_patterns,0,0,0,yes,1366
undefined,undefined,undefined,undefined,white,no,Mozilla,Netscape,"5.0 (Windows NT 10.0; Win64; x64) AppleWebKit/537.36 (KHTML, like Gecko) Chrome/99.0.4844.51 Safari/537.36",xpyriment,legacy,legacy,0,uniform,0,0,0,0,24,24,24,0,0,34,34,34,34,34,0,34,0,,,,,,0,,06-02-22,06-02-22,08:58:37,Sun Mar 06 2022 08:58:37 GMT+0100 (közép-európai téli idő),The main experiment item,yes,0,0,C:/Users/rrics/Documents/!!ResearchBMECOGSCI/gnet,0,0,0,prototype3.png,no,mono,no,18,no,black,no,no,768,1180,3.5.6,legacy,xpyriment,osweb,1.3.13,0,space,space,space,,19848,14181,19848,,2,legacy,680,1280,24,720,24,0,0,1280,1646553516967,1024,2,48000,-16,experiment,prototype1.png,0,even,Win32,104,126027,123010,104,104,374312,375819,369305,127530,369305,104,,,,,,visual_patterns,0,0,0,yes,1366
undefined,undefined,undefined,undefined,white,no,Mozilla,Netscape,"5.0 (Windows NT 10.0; Win64; x64) AppleWebKit/537.36 (KHTML, like Gecko) Chrome/99.0.4844.51 Safari/537.36",xpyriment,legacy,legacy,0,uniform,0,0,0,0,24,24,24,0,0,35,35,35,35,35,0,35,0,,,,,,0,,06-02-22,06-02-22,08:58:37,Sun Mar 06 2022 08:58:37 GMT+0100 (közép-európai téli idő),The main experiment item,yes,0,0,C:/Users/rrics/Documents/!!ResearchBMECOGSCI/gnet,0,0,0,prototype3.png,no,mono,no,18,no,black,no,no,768,1180,3.5.6,legacy,xpyriment,osweb,1.3.13,0,space,space,space,,19848,14181,19848,,2,legacy,680,1280,24,720,24,0,0,1280,1646553516967,1024,2,48000,-16,experiment,p4sarrshacol1.png,0,even,Win32,104,126027,123010,104,104,380836,382343,375832,127530,375832,104,,,,,,visual_patterns,0,0,0,yes,1366
undefined,undefined,undefined,undefined,white,no,Mozilla,Netscape,"5.0 (Windows NT 10.0; Win64; x64) AppleWebKit/537.36 (KHTML, like Gecko) Chrome/99.0.4844.51 Safari/537.36",xpyriment,legacy,legacy,0,uniform,0,0,0,0,24,24,24,0,0,36,36,36,36,36,0,36,0,,,,,,0,,06-02-22,06-02-22,08:58:37,Sun Mar 06 2022 08:58:37 GMT+0100 (közép-európai téli idő),The main experiment item,yes,0,0,C:/Users/rrics/Documents/!!ResearchBMECOGSCI/gnet,0,0,0,prototype3.png,no,mono,no,18,no,black,no,no,768,1180,3.5.6,legacy,xpyriment,osweb,1.3.13,0,space,space,space,,19848,14181,19848,,2,legacy,680,1280,24,720,24,0,0,1280,1646553516967,1024,2,48000,-16,experiment,prototype3.png,0,even,Win32,104,126027,123010,104,104,387358,388867,382353,127530,382353,104,,,,,,visual_patterns,0,0,0,yes,1366
undefined,undefined,undefined,undefined,white,no,Mozilla,Netscape,"5.0 (Windows NT 10.0; Win64; x64) AppleWebKit/537.36 (KHTML, like Gecko) Chrome/99.0.4844.51 Safari/537.36",xpyriment,legacy,legacy,0,uniform,0,0,0,0,24,24,24,0,0,37,37,37,37,37,0,37,0,,,,,,0,,06-02-22,06-02-22,08:58:37,Sun Mar 06 2022 08:58:37 GMT+0100 (közép-európai téli idő),The main experiment item,yes,0,0,C:/Users/rrics/Documents/!!ResearchBMECOGSCI/gnet,0,0,0,prototype3.png,no,mono,no,18,no,black,no,no,768,1180,3.5.6,legacy,xpyriment,osweb,1.3.13,0,space,space,space,,19848,14181,19848,,2,legacy,680,1280,24,720,24,0,0,1280,1646553516967,1024,2,48000,-16,experiment,prototype3.png,0,even,Win32,104,126027,123010,104,104,393881,395391,388877,127530,388877,104,,,,,,visual_patterns,0,0,0,yes,1366
undefined,undefined,undefined,undefined,white,no,Mozilla,Netscape,"5.0 (Windows NT 10.0; Win64; x64) AppleWebKit/537.36 (KHTML, like Gecko) Chrome/99.0.4844.51 Safari/537.36",xpyriment,legacy,legacy,0,uniform,0,0,0,0,24,24,24,0,0,38,38,38,38,38,0,38,0,,,,,,0,,06-02-22,06-02-22,08:58:37,Sun Mar 06 2022 08:58:37 GMT+0100 (közép-európai téli idő),The main experiment item,yes,0,0,C:/Users/rrics/Documents/!!ResearchBMECOGSCI/gnet,0,0,0,prototype3.png,no,mono,no,18,no,black,no,no,768,1180,3.5.6,legacy,xpyriment,osweb,1.3.13,0,space,space,space,,19848,14181,19848,,2,legacy,680,1280,24,720,24,0,0,1280,1646553516967,1024,2,48000,-16,experiment,p7sarr1.png,0,even,Win32,104,126027,123010,104,104,400407,401914,395405,127530,395405,104,,,,,,visual_patterns,0,0,0,yes,1366
undefined,undefined,undefined,undefined,white,no,Mozilla,Netscape,"5.0 (Windows NT 10.0; Win64; x64) AppleWebKit/537.36 (KHTML, like Gecko) Chrome/99.0.4844.51 Safari/537.36",xpyriment,legacy,legacy,0,uniform,0,0,0,0,24,24,24,0,0,39,39,39,39,39,0,39,0,,,,,,0,,06-02-22,06-02-22,08:58:37,Sun Mar 06 2022 08:58:37 GMT+0100 (közép-európai téli idő),The main experiment item,yes,0,0,C:/Users/rrics/Documents/!!ResearchBMECOGSCI/gnet,0,0,0,prototype3.png,no,mono,no,18,no,black,no,no,768,1180,3.5.6,legacy,xpyriment,osweb,1.3.13,0,space,space,space,,19848,14181,19848,,2,legacy,680,1280,24,720,24,0,0,1280,1646553516967,1024,2,48000,-16,experiment,p1sarrsha1.png,0,even,Win32,104,126027,123010,104,104,406931,408438,401927,127530,401927,104,,,,,,visual_patterns,0,0,0,yes,1366
undefined,undefined,undefined,undefined,white,no,Mozilla,Netscape,"5.0 (Windows NT 10.0; Win64; x64) AppleWebKit/537.36 (KHTML, like Gecko) Chrome/99.0.4844.51 Safari/537.36",xpyriment,legacy,legacy,0,uniform,0,0,0,0,24,24,24,0,0,40,40,40,40,40,0,40,0,,,,,,0,,06-02-22,06-02-22,08:58:37,Sun Mar 06 2022 08:58:37 GMT+0100 (közép-európai téli idő),The main experiment item,yes,0,0,C:/Users/rrics/Documents/!!ResearchBMECOGSCI/gnet,0,0,0,prototype3.png,no,mono,no,18,no,black,no,no,768,1180,3.5.6,legacy,xpyriment,osweb,1.3.13,0,space,space,space,,19848,14181,19848,,2,legacy,680,1280,24,720,24,0,0,1280,1646553516967,1024,2,48000,-16,experiment,prototype5.png,0,even,Win32,104,126027,123010,104,104,413455,414962,408449,127530,408449,104,,,,,,visual_patterns,0,0,0,yes,1366
undefined,undefined,undefined,undefined,white,no,Mozilla,Netscape,"5.0 (Windows NT 10.0; Win64; x64) AppleWebKit/537.36 (KHTML, like Gecko) Chrome/99.0.4844.51 Safari/537.36",xpyriment,legacy,legacy,0,uniform,0,0,0,0,24,24,24,0,0,41,41,41,41,41,0,41,0,,,,,,0,,06-02-22,06-02-22,08:58:37,Sun Mar 06 2022 08:58:37 GMT+0100 (közép-európai téli idő),The main experiment item,yes,0,0,C:/Users/rrics/Documents/!!ResearchBMECOGSCI/gnet,0,0,0,prototype3.png,no,mono,no,18,no,black,no,no,768,1180,3.5.6,legacy,xpyriment,osweb,1.3.13,0,space,space,space,,19848,14181,19848,,2,legacy,680,1280,24,720,24,0,0,1280,1646553516967,1024,2,48000,-16,experiment,p3sarrshacol2.png,0,even,Win32,104,126027,123010,104,104,419979,421486,414975,127530,414975,104,,,,,,visual_patterns,0,0,0,yes,1366
undefined,undefined,undefined,undefined,white,no,Mozilla,Netscape,"5.0 (Windows NT 10.0; Win64; x64) AppleWebKit/537.36 (KHTML, like Gecko) Chrome/99.0.4844.51 Safari/537.36",xpyriment,legacy,legacy,0,uniform,0,0,0,0,24,24,24,0,0,42,42,42,42,42,0,42,0,,,,,,0,,06-02-22,06-02-22,08:58:37,Sun Mar 06 2022 08:58:37 GMT+0100 (közép-európai téli idő),The main experiment item,yes,0,0,C:/Users/rrics/Documents/!!ResearchBMECOGSCI/gnet,0,0,0,prototype3.png,no,mono,no,18,no,black,no,no,768,1180,3.5.6,legacy,xpyriment,osweb,1.3.13,0,space,space,space,,19848,14181,19848,,2,legacy,680,1280,24,720,24,0,0,1280,1646553516967,1024,2,48000,-16,experiment,p3sarrcol2.png,0,even,Win32,104,126027,123010,104,104,426502,428009,421499,127530,421499,104,,,,,,visual_patterns,0,0,0,yes,1366
undefined,undefined,undefined,undefined,white,no,Mozilla,Netscape,"5.0 (Windows NT 10.0; Win64; x64) AppleWebKit/537.36 (KHTML, like Gecko) Chrome/99.0.4844.51 Safari/537.36",xpyriment,legacy,legacy,0,uniform,0,0,0,0,24,24,24,0,0,43,43,43,43,43,0,43,0,,,,,,0,,06-02-22,06-02-22,08:58:37,Sun Mar 06 2022 08:58:37 GMT+0100 (közép-európai téli idő),The main experiment item,yes,0,0,C:/Users/rrics/Documents/!!ResearchBMECOGSCI/gnet,0,0,0,prototype3.png,no,mono,no,18,no,black,no,no,768,1180,3.5.6,legacy,xpyriment,osweb,1.3.13,0,space,space,space,,19848,14181,19848,,2,legacy,680,1280,24,720,24,0,0,1280,1646553516967,1024,2,48000,-16,experiment,p3sarr2.png,0,even,Win32,104,126027,123010,104,104,433016,434517,428019,127530,428019,104,,,,,,visual_patterns,0,0,0,yes,1366
undefined,undefined,undefined,undefined,white,no,Mozilla,Netscape,"5.0 (Windows NT 10.0; Win64; x64) AppleWebKit/537.36 (KHTML, like Gecko) Chrome/99.0.4844.51 Safari/537.36",xpyriment,legacy,legacy,0,uniform,0,0,0,0,24,24,24,0,0,44,44,44,44,44,0,44,0,,,,,,0,,06-02-22,06-02-22,08:58:37,Sun Mar 06 2022 08:58:37 GMT+0100 (közép-európai téli idő),The main experiment item,yes,0,0,C:/Users/rrics/Documents/!!ResearchBMECOGSCI/gnet,0,0,0,prototype3.png,no,mono,no,18,no,black,no,no,768,1180,3.5.6,legacy,xpyriment,osweb,1.3.13,0,space,space,space,,19848,14181,19848,,2,legacy,680,1280,24,720,24,0,0,1280,1646553516967,1024,2,48000,-16,experiment,p2sarrsha1.png,0,even,Win32,104,126027,123010,104,104,439534,441041,434531,127530,434531,104,,,,,,visual_patterns,0,0,0,yes,1366
undefined,undefined,undefined,undefined,white,no,Mozilla,Netscape,"5.0 (Windows NT 10.0; Win64; x64) AppleWebKit/537.36 (KHTML, like Gecko) Chrome/99.0.4844.51 Safari/537.36",xpyriment,legacy,legacy,0,uniform,0,0,0,0,24,24,24,0,0,45,45,45,45,45,0,45,0,,,,,,0,,06-02-22,06-02-22,08:58:37,Sun Mar 06 2022 08:58:37 GMT+0100 (közép-európai téli idő),The main experiment item,yes,0,0,C:/Users/rrics/Documents/!!ResearchBMECOGSCI/gnet,0,0,0,prototype3.png,no,mono,no,18,no,black,no,no,768,1180,3.5.6,legacy,xpyriment,osweb,1.3.13,0,space,space,space,,19848,14181,19848,,2,legacy,680,1280,24,720,24,0,0,1280,1646553516967,1024,2,48000,-16,experiment,p4sarrsha1.png,0,even,Win32,104,126027,123010,104,104,446058,447564,441052,127530,441052,104,,,,,,visual_patterns,0,0,0,yes,1366
undefined,undefined,undefined,undefined,white,no,Mozilla,Netscape,"5.0 (Windows NT 10.0; Win64; x64) AppleWebKit/537.36 (KHTML, like Gecko) Chrome/99.0.4844.51 Safari/537.36",xpyriment,legacy,legacy,0,uniform,0,0,0,0,24,24,24,0,0,46,46,46,46,46,0,46,0,,,,,,0,,06-02-22,06-02-22,08:58:37,Sun Mar 06 2022 08:58:37 GMT+0100 (közép-európai téli idő),The main experiment item,yes,0,0,C:/Users/rrics/Documents/!!ResearchBMECOGSCI/gnet,0,0,0,prototype3.png,no,mono,no,18,no,black,no,no,768,1180,3.5.6,legacy,xpyriment,osweb,1.3.13,0,space,space,space,,19848,14181,19848,,2,legacy,680,1280,24,720,24,0,0,1280,1646553516967,1024,2,48000,-16,experiment,p1sarrcol1.png,0,even,Win32,104,126027,123010,104,104,452582,454089,447576,127530,447576,104,,,,,,visual_patterns,0,0,0,yes,1366
undefined,undefined,undefined,undefined,white,no,Mozilla,Netscape,"5.0 (Windows NT 10.0; Win64; x64) AppleWebKit/537.36 (KHTML, like Gecko) Chrome/99.0.4844.51 Safari/537.36",xpyriment,legacy,legacy,0,uniform,0,0,0,0,24,24,24,0,0,47,47,47,47,47,0,47,0,,,,,,0,,06-02-22,06-02-22,08:58:37,Sun Mar 06 2022 08:58:37 GMT+0100 (közép-európai téli idő),The main experiment item,yes,0,0,C:/Users/rrics/Documents/!!ResearchBMECOGSCI/gnet,0,0,0,prototype3.png,no,mono,no,18,no,black,no,no,768,1180,3.5.6,legacy,xpyriment,osweb,1.3.13,0,space,space,space,,19848,14181,19848,,2,legacy,680,1280,24,720,24,0,0,1280,1646553516967,1024,2,48000,-16,experiment,p1sarrsha2.png,0,even,Win32,104,126027,123010,104,104,459105,460613,454101,127530,454101,104,,,,,,visual_patterns,0,0,0,yes,1366
undefined,undefined,undefined,undefined,white,no,Mozilla,Netscape,"5.0 (Windows NT 10.0; Win64; x64) AppleWebKit/537.36 (KHTML, like Gecko) Chrome/99.0.4844.51 Safari/537.36",xpyriment,legacy,legacy,0,uniform,0,0,0,0,24,24,24,0,0,48,48,48,48,48,0,48,0,,,,,,0,,06-02-22,06-02-22,08:58:37,Sun Mar 06 2022 08:58:37 GMT+0100 (közép-európai téli idő),The main experiment item,yes,0,0,C:/Users/rrics/Documents/!!ResearchBMECOGSCI/gnet,0,0,0,prototype3.png,no,mono,no,18,no,black,no,no,768,1180,3.5.6,legacy,xpyriment,osweb,1.3.13,0,space,space,space,,19848,14181,19848,,2,legacy,680,1280,24,720,24,0,0,1280,1646553516967,1024,2,48000,-16,experiment,p7sarr2.png,0,even,Win32,104,126027,123010,104,104,465630,467136,460626,127530,460626,104,,,,,,visual_patterns,0,0,0,yes,1366
undefined,undefined,undefined,undefined,white,no,Mozilla,Netscape,"5.0 (Windows NT 10.0; Win64; x64) AppleWebKit/537.36 (KHTML, like Gecko) Chrome/99.0.4844.51 Safari/537.36",xpyriment,legacy,legacy,0,uniform,0,0,0,0,24,24,24,0,0,49,49,49,49,49,0,49,0,,,,,,0,,06-02-22,06-02-22,08:58:37,Sun Mar 06 2022 08:58:37 GMT+0100 (közép-európai téli idő),The main experiment item,yes,0,0,C:/Users/rrics/Documents/!!ResearchBMECOGSCI/gnet,0,0,0,prototype3.png,no,mono,no,18,no,black,no,no,768,1180,3.5.6,legacy,xpyriment,osweb,1.3.13,0,space,space,space,,19848,14181,19848,,2,legacy,680,1280,24,720,24,0,0,1280,1646553516967,1024,2,48000,-16,experiment,p4sarr1.png,0,even,Win32,104,126027,123010,104,104,472153,473660,467152,127530,467152,104,,,,,,visual_patterns,0,0,0,yes,1366
undefined,undefined,undefined,undefined,white,no,Mozilla,Netscape,"5.0 (Windows NT 10.0; Win64; x64) AppleWebKit/537.36 (KHTML, like Gecko) Chrome/99.0.4844.51 Safari/537.36",xpyriment,legacy,legacy,0,uniform,0,0,0,0,24,24,24,0,0,50,50,50,50,50,0,50,0,,,,,,0,,06-02-22,06-02-22,08:58:37,Sun Mar 06 2022 08:58:37 GMT+0100 (közép-európai téli idő),The main experiment item,yes,0,0,C:/Users/rrics/Documents/!!ResearchBMECOGSCI/gnet,0,0,0,prototype3.png,no,mono,no,18,no,black,no,no,768,1180,3.5.6,legacy,xpyriment,osweb,1.3.13,0,space,space,space,,19848,14181,19848,,2,legacy,680,1280,24,720,24,0,0,1280,1646553516967,1024,2,48000,-16,experiment,p10sarr1.png,0,even,Win32,104,126027,123010,104,104,478677,480184,473673,127530,473673,104,,,,,,visual_patterns,0,0,0,yes,1366
undefined,undefined,undefined,undefined,white,no,Mozilla,Netscape,"5.0 (Windows NT 10.0; Win64; x64) AppleWebKit/537.36 (KHTML, like Gecko) Chrome/99.0.4844.51 Safari/537.36",xpyriment,legacy,legacy,0,uniform,0,0,0,0,24,24,24,0,0,51,51,51,51,51,0,51,0,,,,,,0,,06-02-22,06-02-22,08:58:37,Sun Mar 06 2022 08:58:37 GMT+0100 (közép-európai téli idő),The main experiment item,yes,0,0,C:/Users/rrics/Documents/!!ResearchBMECOGSCI/gnet,0,0,0,prototype3.png,no,mono,no,18,no,black,no,no,768,1180,3.5.6,legacy,xpyriment,osweb,1.3.13,0,space,space,space,,19848,14181,19848,,2,legacy,680,1280,24,720,24,0,0,1280,1646553516967,1024,2,48000,-16,experiment,prototype3.png,0,even,Win32,104,126027,123010,104,104,485200,486708,480194,127530,480194,104,,,,,,visual_patterns,0,0,0,yes,1366
undefined,undefined,undefined,undefined,white,no,Mozilla,Netscape,"5.0 (Windows NT 10.0; Win64; x64) AppleWebKit/537.36 (KHTML, like Gecko) Chrome/99.0.4844.51 Safari/537.36",xpyriment,legacy,legacy,0,uniform,0,0,0,0,24,24,24,0,0,52,52,52,52,52,0,52,0,,,,,,0,,06-02-22,06-02-22,08:58:37,Sun Mar 06 2022 08:58:37 GMT+0100 (közép-európai téli idő),The main experiment item,yes,0,0,C:/Users/rrics/Documents/!!ResearchBMECOGSCI/gnet,0,0,0,prototype3.png,no,mono,no,18,no,black,no,no,768,1180,3.5.6,legacy,xpyriment,osweb,1.3.13,0,space,space,space,,19848,14181,19848,,2,legacy,680,1280,24,720,24,0,0,1280,1646553516967,1024,2,48000,-16,experiment,p1sarr1.png,0,even,Win32,104,126027,123010,104,104,491725,493232,486721,127530,486721,104,,,,,,visual_patterns,0,0,0,yes,1366
undefined,undefined,undefined,undefined,white,no,Mozilla,Netscape,"5.0 (Windows NT 10.0; Win64; x64) AppleWebKit/537.36 (KHTML, like Gecko) Chrome/99.0.4844.51 Safari/537.36",xpyriment,legacy,legacy,0,uniform,0,0,0,0,24,24,24,0,0,53,53,53,53,53,0,53,0,,,,,,0,,06-02-22,06-02-22,08:58:37,Sun Mar 06 2022 08:58:37 GMT+0100 (közép-európai téli idő),The main experiment item,yes,0,0,C:/Users/rrics/Documents/!!ResearchBMECOGSCI/gnet,0,0,0,prototype3.png,no,mono,no,18,no,black,no,no,768,1180,3.5.6,legacy,xpyriment,osweb,1.3.13,0,space,space,space,,19848,14181,19848,,2,legacy,680,1280,24,720,24,0,0,1280,1646553516967,1024,2,48000,-16,experiment,p1sarrcol2.png,0,even,Win32,104,126027,123010,104,104,498243,499756,493248,127530,493248,104,,,,,,visual_patterns,0,0,0,yes,1366
undefined,undefined,undefined,undefined,white,no,Mozilla,Netscape,"5.0 (Windows NT 10.0; Win64; x64) AppleWebKit/537.36 (KHTML, like Gecko) Chrome/99.0.4844.51 Safari/537.36",xpyriment,legacy,legacy,0,uniform,0,0,0,0,24,24,24,0,0,54,54,54,54,54,0,54,0,,,,,,0,,06-02-22,06-02-22,08:58:37,Sun Mar 06 2022 08:58:37 GMT+0100 (közép-európai téli idő),The main experiment item,yes,0,0,C:/Users/rrics/Documents/!!ResearchBMECOGSCI/gnet,0,0,0,prototype3.png,no,mono,no,18,no,black,no,no,768,1180,3.5.6,legacy,xpyriment,osweb,1.3.13,0,space,space,space,,19848,14181,19848,,2,legacy,680,1280,24,720,24,0,0,1280,1646553516967,1024,2,48000,-16,experiment,p2sarrcol2.png,0,even,Win32,104,126027,123010,104,104,504772,506280,499769,127530,499769,104,,,,,,visual_patterns,0,0,0,yes,1366
undefined,undefined,undefined,undefined,white,no,Mozilla,Netscape,"5.0 (Windows NT 10.0; Win64; x64) AppleWebKit/537.36 (KHTML, like Gecko) Chrome/99.0.4844.51 Safari/537.36",xpyriment,legacy,legacy,0,uniform,0,0,0,0,24,24,24,0,0,55,55,55,55,55,0,55,0,,,,,,0,,06-02-22,06-02-22,08:58:37,Sun Mar 06 2022 08:58:37 GMT+0100 (közép-európai téli idő),The main experiment item,yes,0,0,C:/Users/rrics/Documents/!!ResearchBMECOGSCI/gnet,0,0,0,prototype3.png,no,mono,no,18,no,black,no,no,768,1180,3.5.6,legacy,xpyriment,osweb,1.3.13,0,space,space,space,,19848,14181,19848,,2,legacy,680,1280,24,720,24,0,0,1280,1646553516967,1024,2,48000,-16,experiment,prototype4.png,0,even,Win32,104,126027,123010,104,104,511294,512804,506289,127530,506289,104,,,,,,visual_patterns,0,0,0,yes,1366
undefined,undefined,undefined,undefined,white,no,Mozilla,Netscape,"5.0 (Windows NT 10.0; Win64; x64) AppleWebKit/537.36 (KHTML, like Gecko) Chrome/99.0.4844.51 Safari/537.36",xpyriment,legacy,legacy,0,uniform,0,0,0,0,24,24,24,0,0,56,56,56,56,56,0,56,0,,,,,,0,,06-02-22,06-02-22,08:58:37,Sun Mar 06 2022 08:58:37 GMT+0100 (közép-európai téli idő),The main experiment item,yes,0,0,C:/Users/rrics/Documents/!!ResearchBMECOGSCI/gnet,0,0,0,prototype3.png,no,mono,no,18,no,black,no,no,768,1180,3.5.6,legacy,xpyriment,osweb,1.3.13,0,space,space,space,,19848,14181,19848,,2,legacy,680,1280,24,720,24,0,0,1280,1646553516967,1024,2,48000,-16,experiment,p2sarrshacol1.png,0,even,Win32,104,126027,123010,104,104,517820,519327,512816,127530,512816,104,,,,,,visual_patterns,0,0,0,yes,1366
undefined,undefined,undefined,undefined,white,no,Mozilla,Netscape,"5.0 (Windows NT 10.0; Win64; x64) AppleWebKit/537.36 (KHTML, like Gecko) Chrome/99.0.4844.51 Safari/537.36",xpyriment,legacy,legacy,0,uniform,0,0,0,0,24,24,24,0,0,57,57,57,57,57,0,57,0,,,,,,0,,06-02-22,06-02-22,08:58:37,Sun Mar 06 2022 08:58:37 GMT+0100 (közép-európai téli idő),The main experiment item,yes,0,0,C:/Users/rrics/Documents/!!ResearchBMECOGSCI/gnet,0,0,0,prototype3.png,no,mono,no,18,no,black,no,no,768,1180,3.5.6,legacy,xpyriment,osweb,1.3.13,0,space,space,space,,19848,14181,19848,,2,legacy,680,1280,24,720,24,0,0,1280,1646553516967,1024,2,48000,-16,experiment,prototype5.png,0,even,Win32,104,126027,123010,104,104,524361,525868,519356,127530,519356,104,,,,,,visual_patterns,0,0,0,yes,1366
undefined,undefined,undefined,undefined,white,no,Mozilla,Netscape,"5.0 (Windows NT 10.0; Win64; x64) AppleWebKit/537.36 (KHTML, like Gecko) Chrome/99.0.4844.51 Safari/537.36",xpyriment,legacy,legacy,0,uniform,0,0,0,0,24,24,24,0,0,58,58,58,58,58,0,58,0,,,,,,0,,06-02-22,06-02-22,08:58:37,Sun Mar 06 2022 08:58:37 GMT+0100 (közép-európai téli idő),The main experiment item,yes,0,0,C:/Users/rrics/Documents/!!ResearchBMECOGSCI/gnet,0,0,0,prototype3.png,no,mono,no,18,no,black,no,no,768,1180,3.5.6,legacy,xpyriment,osweb,1.3.13,0,space,space,space,,19848,14181,19848,,2,legacy,680,1280,24,720,24,0,0,1280,1646553516967,1024,2,48000,-16,experiment,prototype2.png,0,even,Win32,104,126027,123010,104,104,530885,532392,525879,127530,525879,104,,,,,,visual_patterns,0,0,0,yes,1366
undefined,undefined,undefined,undefined,white,no,Mozilla,Netscape,"5.0 (Windows NT 10.0; Win64; x64) AppleWebKit/537.36 (KHTML, like Gecko) Chrome/99.0.4844.51 Safari/537.36",xpyriment,legacy,legacy,0,uniform,0,0,0,0,24,24,24,0,0,59,59,59,59,59,0,59,0,,,,,,0,,06-02-22,06-02-22,08:58:37,Sun Mar 06 2022 08:58:37 GMT+0100 (közép-európai téli idő),The main experiment item,yes,0,0,C:/Users/rrics/Documents/!!ResearchBMECOGSCI/gnet,0,0,0,prototype3.png,no,mono,no,18,no,black,no,no,768,1180,3.5.6,legacy,xpyriment,osweb,1.3.13,0,space,space,space,,19848,14181,19848,,2,legacy,680,1280,24,720,24,0,0,1280,1646553516967,1024,2,48000,-16,experiment,prototype5.png,0,even,Win32,104,126027,123010,104,104,537409,538916,532402,127530,532402,104,,,,,,visual_patterns,0,0,0,yes,1366
undefined,undefined,undefined,undefined,white,no,Mozilla,Netscape,"5.0 (Windows NT 10.0; Win64; x64) AppleWebKit/537.36 (KHTML, like Gecko) Chrome/99.0.4844.51 Safari/537.36",xpyriment,legacy,legacy,0,uniform,0,0,0,0,24,24,24,0,0,60,60,60,60,60,0,60,0,,,,,,0,,06-02-22,06-02-22,08:58:37,Sun Mar 06 2022 08:58:37 GMT+0100 (közép-európai téli idő),The main experiment item,yes,0,0,C:/Users/rrics/Documents/!!ResearchBMECOGSCI/gnet,0,0,0,prototype3.png,no,mono,no,18,no,black,no,no,768,1180,3.5.6,legacy,xpyriment,osweb,1.3.13,0,space,space,space,,19848,14181,19848,,2,legacy,680,1280,24,720,24,0,0,1280,1646553516967,1024,2,48000,-16,experiment,p1sarrshacol2.png,0,even,Win32,104,126027,123010,104,104,543932,545439,538929,127530,538929,104,,,,,,visual_patterns,0,0,0,yes,1366
undefined,undefined,undefined,undefined,white,no,Mozilla,Netscape,"5.0 (Windows NT 10.0; Win64; x64) AppleWebKit/537.36 (KHTML, like Gecko) Chrome/99.0.4844.51 Safari/537.36",xpyriment,legacy,legacy,0,uniform,0,0,0,0,24,24,24,0,0,61,61,61,61,61,0,61,0,,,,,,0,,06-02-22,06-02-22,08:58:37,Sun Mar 06 2022 08:58:37 GMT+0100 (közép-európai téli idő),The main experiment item,yes,0,0,C:/Users/rrics/Documents/!!ResearchBMECOGSCI/gnet,0,0,0,prototype3.png,no,mono,no,18,no,black,no,no,768,1180,3.5.6,legacy,xpyriment,osweb,1.3.13,0,space,space,space,,19848,14181,19848,,2,legacy,680,1280,24,720,24,0,0,1280,1646553516967,1024,2,48000,-16,experiment,p2sarrcol1.png,0,even,Win32,104,126027,123010,104,104,550456,551963,545452,127530,545452,104,,,,,,visual_patterns,0,0,0,yes,1366
undefined,undefined,undefined,undefined,white,no,Mozilla,Netscape,"5.0 (Windows NT 10.0; Win64; x64) AppleWebKit/537.36 (KHTML, like Gecko) Chrome/99.0.4844.51 Safari/537.36",xpyriment,legacy,legacy,0,uniform,0,0,0,0,24,24,24,0,0,62,62,62,62,62,0,62,0,,,,,,0,,06-02-22,06-02-22,08:58:37,Sun Mar 06 2022 08:58:37 GMT+0100 (közép-európai téli idő),The main experiment item,yes,0,0,C:/Users/rrics/Documents/!!ResearchBMECOGSCI/gnet,0,0,0,prototype3.png,no,mono,no,18,no,black,no,no,768,1180,3.5.6,legacy,xpyriment,osweb,1.3.13,0,space,space,space,,19848,14181,19848,,2,legacy,680,1280,24,720,24,0,0,1280,1646553516967,1024,2,48000,-16,experiment,p5sarr2.png,0,even,Win32,104,126027,123010,104,104,556997,558504,551995,127530,551995,104,,,,,,visual_patterns,0,0,0,yes,1366
undefined,undefined,undefined,undefined,white,no,Mozilla,Netscape,"5.0 (Windows NT 10.0; Win64; x64) AppleWebKit/537.36 (KHTML, like Gecko) Chrome/99.0.4844.51 Safari/537.36",xpyriment,legacy,legacy,0,uniform,0,0,0,0,24,24,24,0,0,63,63,63,63,63,0,63,0,,,,,,0,,06-02-22,06-02-22,08:58:37,Sun Mar 06 2022 08:58:37 GMT+0100 (közép-európai téli idő),The main experiment item,yes,0,0,C:/Users/rrics/Documents/!!ResearchBMECOGSCI/gnet,0,0,0,prototype3.png,no,mono,no,18,no,black,no,no,768,1180,3.5.6,legacy,xpyriment,osweb,1.3.13,0,space,space,space,,19848,14181,19848,,2,legacy,680,1280,24,720,24,0,0,1280,1646553516967,1024,2,48000,-16,experiment,p10sarr2.png,0,even,Win32,104,126027,123010,104,104,563521,565027,558517,127530,558517,104,,,,,,visual_patterns,0,0,0,yes,1366
undefined,undefined,undefined,undefined,white,no,Mozilla,Netscape,"5.0 (Windows NT 10.0; Win64; x64) AppleWebKit/537.36 (KHTML, like Gecko) Chrome/99.0.4844.51 Safari/537.36",xpyriment,legacy,legacy,0,uniform,0,0,0,0,24,24,24,0,0,64,64,64,64,64,0,64,0,,,,,,0,,06-02-22,06-02-22,08:58:37,Sun Mar 06 2022 08:58:37 GMT+0100 (közép-európai téli idő),The main experiment item,yes,0,0,C:/Users/rrics/Documents/!!ResearchBMECOGSCI/gnet,0,0,0,prototype3.png,no,mono,no,18,no,black,no,no,768,1180,3.5.6,legacy,xpyriment,osweb,1.3.13,0,space,space,space,,19848,14181,19848,,2,legacy,680,1280,24,720,24,0,0,1280,1646553516967,1024,2,48000,-16,experiment,prototype1.png,0,even,Win32,104,126027,123010,104,104,570044,571551,565039,127530,565039,104,,,,,,visual_patterns,0,0,0,yes,1366
undefined,undefined,undefined,undefined,white,no,Mozilla,Netscape,"5.0 (Windows NT 10.0; Win64; x64) AppleWebKit/537.36 (KHTML, like Gecko) Chrome/99.0.4844.51 Safari/537.36",xpyriment,legacy,legacy,0,uniform,0,0,0,0,24,24,24,0,0,65,65,65,65,65,0,65,0,,,,,,0,,06-02-22,06-02-22,08:58:37,Sun Mar 06 2022 08:58:37 GMT+0100 (közép-európai téli idő),The main experiment item,yes,0,0,C:/Users/rrics/Documents/!!ResearchBMECOGSCI/gnet,0,0,0,prototype3.png,no,mono,no,18,no,black,no,no,768,1180,3.5.6,legacy,xpyriment,osweb,1.3.13,0,space,space,space,,19848,14181,19848,,2,legacy,680,1280,24,720,24,0,0,1280,1646553516967,1024,2,48000,-16,experiment,prototype4.png,0,even,Win32,104,126027,123010,104,104,576569,578076,571561,127530,571561,104,,,,,,visual_patterns,0,0,0,yes,1366
undefined,undefined,undefined,undefined,white,no,Mozilla,Netscape,"5.0 (Windows NT 10.0; Win64; x64) AppleWebKit/537.36 (KHTML, like Gecko) Chrome/99.0.4844.51 Safari/537.36",xpyriment,legacy,legacy,0,uniform,0,0,0,0,24,24,24,0,0,66,66,66,66,66,0,66,0,,,,,,0,,06-02-22,06-02-22,08:58:37,Sun Mar 06 2022 08:58:37 GMT+0100 (közép-európai téli idő),The main experiment item,yes,0,0,C:/Users/rrics/Documents/!!ResearchBMECOGSCI/gnet,0,0,0,prototype3.png,no,mono,no,18,no,black,no,no,768,1180,3.5.6,legacy,xpyriment,osweb,1.3.13,0,space,space,space,,19848,14181,19848,,2,legacy,680,1280,24,720,24,0,0,1280,1646553516967,1024,2,48000,-16,experiment,p2sarrshacol2.png,0,even,Win32,104,126027,123010,104,104,583092,584599,578088,127530,578088,104,,,,,,visual_patterns,0,0,0,yes,1366
undefined,undefined,undefined,undefined,white,no,Mozilla,Netscape,"5.0 (Windows NT 10.0; Win64; x64) AppleWebKit/537.36 (KHTML, like Gecko) Chrome/99.0.4844.51 Safari/537.36",xpyriment,legacy,legacy,0,uniform,0,0,0,0,24,24,24,0,0,67,67,67,67,67,0,67,0,,,,,,0,,06-02-22,06-02-22,08:58:37,Sun Mar 06 2022 08:58:37 GMT+0100 (közép-európai téli idő),The main experiment item,yes,0,0,C:/Users/rrics/Documents/!!ResearchBMECOGSCI/gnet,0,0,0,prototype3.png,no,mono,no,18,no,black,no,no,768,1180,3.5.6,legacy,xpyriment,osweb,1.3.13,0,space,space,space,,19848,14181,19848,,2,legacy,680,1280,24,720,24,0,0,1280,1646553516967,1024,2,48000,-16,experiment,p1sarr2.png,0,even,Win32,104,126027,123010,104,104,589616,591123,584613,127530,584613,104,,,,,,visual_patterns,0,0,0,yes,1366
undefined,undefined,undefined,undefined,white,no,Mozilla,Netscape,"5.0 (Windows NT 10.0; Win64; x64) AppleWebKit/537.36 (KHTML, like Gecko) Chrome/99.0.4844.51 Safari/537.36",xpyriment,legacy,legacy,0,uniform,0,0,0,0,24,24,24,0,0,68,68,68,68,68,0,68,0,,,,,,0,,06-02-22,06-02-22,08:58:37,Sun Mar 06 2022 08:58:37 GMT+0100 (közép-európai téli idő),The main experiment item,yes,0,0,C:/Users/rrics/Documents/!!ResearchBMECOGSCI/gnet,0,0,0,prototype3.png,no,mono,no,18,no,black,no,no,768,1180,3.5.6,legacy,xpyriment,osweb,1.3.13,0,space,space,space,,19848,14181,19848,,2,legacy,680,1280,24,720,24,0,0,1280,1646553516967,1024,2,48000,-16,experiment,p6sarr2.png,0,even,Win32,104,126027,123010,104,104,596140,597647,591137,127530,591137,104,,,,,,visual_patterns,0,0,0,yes,1366
undefined,undefined,undefined,undefined,white,no,Mozilla,Netscape,"5.0 (Windows NT 10.0; Win64; x64) AppleWebKit/537.36 (KHTML, like Gecko) Chrome/99.0.4844.51 Safari/537.36",xpyriment,legacy,legacy,0,uniform,0,0,0,0,24,24,24,0,0,69,69,69,69,69,0,69,0,,,,,,0,,06-02-22,06-02-22,08:58:37,Sun Mar 06 2022 08:58:37 GMT+0100 (közép-európai téli idő),The main experiment item,yes,0,0,C:/Users/rrics/Documents/!!ResearchBMECOGSCI/gnet,0,0,0,prototype3.png,no,mono,no,18,no,black,no,no,768,1180,3.5.6,legacy,xpyriment,osweb,1.3.13,0,space,space,space,,19848,14181,19848,,2,legacy,680,1280,24,720,24,0,0,1280,1646553516967,1024,2,48000,-16,experiment,prototype2.png,0,even,Win32,104,126027,123010,104,104,602664,604171,597658,127530,597658,104,,,,,,visual_patterns,0,0,0,yes,1366
undefined,undefined,undefined,undefined,white,no,Mozilla,Netscape,"5.0 (Windows NT 10.0; Win64; x64) AppleWebKit/537.36 (KHTML, like Gecko) Chrome/99.0.4844.51 Safari/537.36",xpyriment,legacy,legacy,0,uniform,0,0,0,0,24,24,24,0,0,70,70,70,70,70,0,70,0,,,,,,0,,06-02-22,06-02-22,08:58:37,Sun Mar 06 2022 08:58:37 GMT+0100 (közép-európai téli idő),The main experiment item,yes,0,0,C:/Users/rrics/Documents/!!ResearchBMECOGSCI/gnet,0,0,0,prototype3.png,no,mono,no,18,no,black,no,no,768,1180,3.5.6,legacy,xpyriment,osweb,1.3.13,0,space,space,space,,19848,14181,19848,,2,legacy,680,1280,24,720,24,0,0,1280,1646553516967,1024,2,48000,-16,experiment,p1sarrshacol1.png,0,even,Win32,104,126027,123010,104,104,609189,610695,604184,127530,604184,104,,,,,,visual_patterns,0,0,0,yes,1366
undefined,undefined,undefined,undefined,white,no,Mozilla,Netscape,"5.0 (Windows NT 10.0; Win64; x64) AppleWebKit/537.36 (KHTML, like Gecko) Chrome/99.0.4844.51 Safari/537.36",xpyriment,legacy,legacy,0,uniform,0,0,0,0,24,24,24,0,0,71,71,71,71,71,0,71,0,,,,,,0,,06-02-22,06-02-22,08:58:37,Sun Mar 06 2022 08:58:37 GMT+0100 (közép-európai téli idő),The main experiment item,yes,0,0,C:/Users/rrics/Documents/!!ResearchBMECOGSCI/gnet,0,0,0,prototype3.png,no,mono,no,18,no,black,no,no,768,1180,3.5.6,legacy,xpyriment,osweb,1.3.13,0,space,space,space,,19848,14181,19848,,2,legacy,680,1280,24,720,24,0,0,1280,1646553516967,1024,2,48000,-16,experiment,prototype1.png,0,even,Win32,104,126027,123010,104,104,615711,617219,610705,127530,610705,104,,,,,,visual_patterns,0,0,0,yes,1366
undefined,undefined,undefined,undefined,white,no,Mozilla,Netscape,"5.0 (Windows NT 10.0; Win64; x64) AppleWebKit/537.36 (KHTML, like Gecko) Chrome/99.0.4844.51 Safari/537.36",xpyriment,legacy,legacy,0,uniform,0,0,0,0,24,24,24,0,0,72,72,72,72,72,0,72,0,,,,,,0,,06-02-22,06-02-22,08:58:37,Sun Mar 06 2022 08:58:37 GMT+0100 (közép-európai téli idő),The main experiment item,yes,0,0,C:/Users/rrics/Documents/!!ResearchBMECOGSCI/gnet,0,0,0,prototype3.png,no,mono,no,18,no,black,no,no,768,1180,3.5.6,legacy,xpyriment,osweb,1.3.13,0,space,space,space,,19848,14181,19848,,2,legacy,680,1280,24,720,24,0,0,1280,1646553516967,1024,2,48000,-16,experiment,prototype5.png,0,even,Win32,104,126027,123010,104,104,622234,623743,617229,127530,617229,104,,,,,,visual_patterns,0,0,0,yes,1366
undefined,undefined,undefined,undefined,white,no,Mozilla,Netscape,"5.0 (Windows NT 10.0; Win64; x64) AppleWebKit/537.36 (KHTML, like Gecko) Chrome/99.0.4844.51 Safari/537.36",xpyriment,legacy,legacy,0,uniform,0,0,0,0,24,24,24,0,0,73,73,73,73,73,0,73,0,,,,,,0,,06-02-22,06-02-22,08:58:37,Sun Mar 06 2022 08:58:37 GMT+0100 (közép-európai téli idő),The main experiment item,yes,0,0,C:/Users/rrics/Documents/!!ResearchBMECOGSCI/gnet,0,0,0,prototype3.png,no,mono,no,18,no,black,no,no,768,1180,3.5.6,legacy,xpyriment,osweb,1.3.13,0,space,space,space,,19848,14181,19848,,2,legacy,680,1280,24,720,24,0,0,1280,1646553516967,1024,2,48000,-16,experiment,prototype3.png,0,even,Win32,104,126027,123010,104,104,628758,630267,623753,127530,623753,104,,,,,,visual_patterns,0,0,0,yes,1366
undefined,undefined,undefined,undefined,white,no,Mozilla,Netscape,"5.0 (Windows NT 10.0; Win64; x64) AppleWebKit/537.36 (KHTML, like Gecko) Chrome/99.0.4844.51 Safari/537.36",xpyriment,legacy,legacy,0,uniform,0,0,0,0,24,24,24,0,0,74,74,74,74,74,0,74,0,,,,,,0,,06-02-22,06-02-22,08:58:37,Sun Mar 06 2022 08:58:37 GMT+0100 (közép-európai téli idő),The main experiment item,yes,0,0,C:/Users/rrics/Documents/!!ResearchBMECOGSCI/gnet,0,0,0,prototype3.png,no,mono,no,18,no,black,no,no,768,1180,3.5.6,legacy,xpyriment,osweb,1.3.13,0,space,space,space,,19848,14181,19848,,2,legacy,680,1280,24,720,24,0,0,1280,1646553516967,1024,2,48000,-16,experiment,prototype2.png,0,even,Win32,104,126027,123010,104,104,635282,636790,630277,127530,630277,104,,,,,,visual_patterns,0,0,0,yes,1366
undefined,undefined,undefined,undefined,white,no,Mozilla,Netscape,"5.0 (Windows NT 10.0; Win64; x64) AppleWebKit/537.36 (KHTML, like Gecko) Chrome/99.0.4844.51 Safari/537.36",xpyriment,legacy,legacy,0,uniform,0,0,0,0,24,24,24,0,0,74,74,74,74,74,0,74,0,0,0,0,0,0,0,0,06-02-22,06-02-22,08:58:37,Sun Mar 06 2022 08:58:37 GMT+0100 (közép-európai téli idő),The main experiment item,yes,0,0,C:/Users/rrics/Documents/!!ResearchBMECOGSCI/gnet,0,0,0,prototype3.png,no,mono,no,18,no,black,no,no,768,1180,3.5.6,legacy,xpyriment,osweb,1.3.13,0,space,space,space,space,21491,14181,19848,21491,2,legacy,680,1280,24,720,24,0,0,1280,1646553516967,1024,2,48000,-16,experiment,p5sarrsha3.png,0,even,Win32,104,126027,123010,104,104,635282,636790,630277,127530,630277,104,661335,662852,658342,636795,658342,visual_patterns,0,0,0,yes,1366
undefined,undefined,undefined,undefined,white,no,Mozilla,Netscape,"5.0 (Windows NT 10.0; Win64; x64) AppleWebKit/537.36 (KHTML, like Gecko) Chrome/99.0.4844.51 Safari/537.36",xpyriment,legacy,legacy,0,uniform,0,0,0,0,24,24,24,0,0,74,74,74,74,74,0,74,0,1,1,1,1,1,0,1,06-02-22,06-02-22,08:58:37,Sun Mar 06 2022 08:58:37 GMT+0100 (közép-európai téli idő),The main experiment item,yes,0,0,C:/Users/rrics/Documents/!!ResearchBMECOGSCI/gnet,0,0,0,prototype3.png,no,mono,no,18,no,black,no,no,768,1180,3.5.6,legacy,xpyriment,osweb,1.3.13,0,space,space,space,space,21491,14181,19848,21491,2,legacy,680,1280,24,720,24,0,0,1280,1646553516967,1024,2,48000,-16,experiment,p2sarrshacol1.png,0,even,Win32,104,126027,123010,104,104,635282,636790,630277,127530,630277,104,665867,667383,662864,636795,662864,visual_patterns,0,0,0,yes,1366
undefined,undefined,undefined,undefined,white,no,Mozilla,Netscape,"5.0 (Windows NT 10.0; Win64; x64) AppleWebKit/537.36 (KHTML, like Gecko) Chrome/99.0.4844.51 Safari/537.36",xpyriment,legacy,legacy,0,uniform,0,0,0,0,24,24,24,0,0,74,74,74,74,74,0,74,0,2,2,2,2,2,0,2,06-02-22,06-02-22,08:58:37,Sun Mar 06 2022 08:58:37 GMT+0100 (közép-európai téli idő),The main experiment item,yes,0,0,C:/Users/rrics/Documents/!!ResearchBMECOGSCI/gnet,0,0,0,prototype3.png,no,mono,no,18,no,black,no,no,768,1180,3.5.6,legacy,xpyriment,osweb,1.3.13,0,space,space,space,space,21491,14181,19848,21491,2,legacy,680,1280,24,720,24,0,0,1280,1646553516967,1024,2,48000,-16,experiment,p4sarr4.png,0,even,Win32,104,126027,123010,104,104,635282,636790,630277,127530,630277,104,670405,671912,667402,636795,667402,visual_patterns,0,0,0,yes,1366
undefined,undefined,undefined,undefined,white,no,Mozilla,Netscape,"5.0 (Windows NT 10.0; Win64; x64) AppleWebKit/537.36 (KHTML, like Gecko) Chrome/99.0.4844.51 Safari/537.36",xpyriment,legacy,legacy,0,uniform,0,0,0,0,24,24,24,0,0,74,74,74,74,74,0,74,0,3,3,3,3,3,0,3,06-02-22,06-02-22,08:58:37,Sun Mar 06 2022 08:58:37 GMT+0100 (közép-európai téli idő),The main experiment item,yes,0,0,C:/Users/rrics/Documents/!!ResearchBMECOGSCI/gnet,0,0,0,prototype3.png,no,mono,no,18,no,black,no,no,768,1180,3.5.6,legacy,xpyriment,osweb,1.3.13,0,space,space,space,space,21491,14181,19848,21491,2,legacy,680,1280,24,720,24,0,0,1280,1646553516967,1024,2,48000,-16,experiment,p5sarrsha2.png,0,even,Win32,104,126027,123010,104,104,635282,636790,630277,127530,630277,104,674925,676434,671926,636795,671926,visual_patterns,0,0,0,yes,1366
undefined,undefined,undefined,undefined,white,no,Mozilla,Netscape,"5.0 (Windows NT 10.0; Win64; x64) AppleWebKit/537.36 (KHTML, like Gecko) Chrome/99.0.4844.51 Safari/537.36",xpyriment,legacy,legacy,0,uniform,0,0,0,0,24,24,24,0,0,74,74,74,74,74,0,74,0,4,4,4,4,4,0,4,06-02-22,06-02-22,08:58:37,Sun Mar 06 2022 08:58:37 GMT+0100 (közép-európai téli idő),The main experiment item,yes,0,0,C:/Users/rrics/Documents/!!ResearchBMECOGSCI/gnet,0,0,0,prototype3.png,no,mono,no,18,no,black,no,no,768,1180,3.5.6,legacy,xpyriment,osweb,1.3.13,0,space,space,space,space,21491,14181,19848,21491,2,legacy,680,1280,24,720,24,0,0,1280,1646553516967,1024,2,48000,-16,experiment,p7sarr2.png,0,even,Win32,104,126027,123010,104,104,635282,636790,630277,127530,630277,104,679448,680956,676447,636795,676447,visual_patterns,0,0,0,yes,1366
undefined,undefined,undefined,undefined,white,no,Mozilla,Netscape,"5.0 (Windows NT 10.0; Win64; x64) AppleWebKit/537.36 (KHTML, like Gecko) Chrome/99.0.4844.51 Safari/537.36",xpyriment,legacy,legacy,0,uniform,0,0,0,0,24,24,24,0,0,74,74,74,74,74,0,74,0,5,5,5,5,5,0,5,06-02-22,06-02-22,08:58:37,Sun Mar 06 2022 08:58:37 GMT+0100 (közép-európai téli idő),The main experiment item,yes,0,0,C:/Users/rrics/Documents/!!ResearchBMECOGSCI/gnet,0,0,0,prototype3.png,no,mono,no,18,no,black,no,no,768,1180,3.5.6,legacy,xpyriment,osweb,1.3.13,0,space,space,space,space,21491,14181,19848,21491,2,legacy,680,1280,24,720,24,0,0,1280,1646553516967,1024,2,48000,-16,experiment,p1sarrsha4.png,0,even,Win32,104,126027,123010,104,104,635282,636790,630277,127530,630277,104,683969,685477,680972,636795,680972,visual_patterns,0,0,0,yes,1366
undefined,undefined,undefined,undefined,white,no,Mozilla,Netscape,"5.0 (Windows NT 10.0; Win64; x64) AppleWebKit/537.36 (KHTML, like Gecko) Chrome/99.0.4844.51 Safari/537.36",xpyriment,legacy,legacy,0,uniform,0,0,0,0,24,24,24,0,0,74,74,74,74,74,0,74,0,6,6,6,6,6,0,6,06-02-22,06-02-22,08:58:37,Sun Mar 06 2022 08:58:37 GMT+0100 (közép-európai téli idő),The main experiment item,yes,0,0,C:/Users/rrics/Documents/!!ResearchBMECOGSCI/gnet,0,0,0,prototype3.png,no,mono,no,18,no,black,no,no,768,1180,3.5.6,legacy,xpyriment,osweb,1.3.13,0,space,space,space,space,21491,14181,19848,21491,2,legacy,680,1280,24,720,24,0,0,1280,1646553516967,1024,2,48000,-16,experiment,p3sarrcol2.png,0,even,Win32,104,126027,123010,104,104,635282,636790,630277,127530,630277,104,688491,689999,685492,636795,685492,visual_patterns,0,0,0,yes,1366
undefined,undefined,undefined,undefined,white,no,Mozilla,Netscape,"5.0 (Windows NT 10.0; Win64; x64) AppleWebKit/537.36 (KHTML, like Gecko) Chrome/99.0.4844.51 Safari/537.36",xpyriment,legacy,legacy,0,uniform,0,0,0,0,24,24,24,0,0,74,74,74,74,74,0,74,0,7,7,7,7,7,0,7,06-02-22,06-02-22,08:58:37,Sun Mar 06 2022 08:58:37 GMT+0100 (közép-európai téli idő),The main experiment item,yes,0,0,C:/Users/rrics/Documents/!!ResearchBMECOGSCI/gnet,0,0,0,prototype3.png,no,mono,no,18,no,black,no,no,768,1180,3.5.6,legacy,xpyriment,osweb,1.3.13,0,space,space,space,space,21491,14181,19848,21491,2,legacy,680,1280,24,720,24,0,0,1280,1646553516967,1024,2,48000,-16,experiment,p3sarrcol3.png,0,even,Win32,104,126027,123010,104,104,635282,636790,630277,127530,630277,104,693036,694537,690036,636795,690036,visual_patterns,0,0,0,yes,1366
undefined,undefined,undefined,undefined,white,no,Mozilla,Netscape,"5.0 (Windows NT 10.0; Win64; x64) AppleWebKit/537.36 (KHTML, like Gecko) Chrome/99.0.4844.51 Safari/537.36",xpyriment,legacy,legacy,0,uniform,0,0,0,0,24,24,24,0,0,74,74,74,74,74,0,74,0,8,8,8,8,8,0,8,06-02-22,06-02-22,08:58:37,Sun Mar 06 2022 08:58:37 GMT+0100 (közép-európai téli idő),The main experiment item,yes,0,0,C:/Users/rrics/Documents/!!ResearchBMECOGSCI/gnet,0,0,0,prototype3.png,no,mono,no,18,no,black,no,no,768,1180,3.5.6,legacy,xpyriment,osweb,1.3.13,0,space,space,space,space,21491,14181,19848,21491,2,legacy,680,1280,24,720,24,0,0,1280,1646553516967,1024,2,48000,-16,experiment,p1sarrsha1.png,0,even,Win32,104,126027,123010,104,104,635282,636790,630277,127530,630277,104,697551,699058,694550,636795,694550,visual_patterns,0,0,0,yes,1366
undefined,undefined,undefined,undefined,white,no,Mozilla,Netscape,"5.0 (Windows NT 10.0; Win64; x64) AppleWebKit/537.36 (KHTML, like Gecko) Chrome/99.0.4844.51 Safari/537.36",xpyriment,legacy,legacy,0,uniform,0,0,0,0,24,24,24,0,0,74,74,74,74,74,0,74,0,9,9,9,9,9,0,9,06-02-22,06-02-22,08:58:37,Sun Mar 06 2022 08:58:37 GMT+0100 (közép-európai téli idő),The main experiment item,yes,0,0,C:/Users/rrics/Documents/!!ResearchBMECOGSCI/gnet,0,0,0,prototype3.png,no,mono,no,18,no,black,no,no,768,1180,3.5.6,legacy,xpyriment,osweb,1.3.13,0,space,space,space,space,21491,14181,19848,21491,2,legacy,680,1280,24,720,24,0,0,1280,1646553516967,1024,2,48000,-16,experiment,p4sarr1.png,0,even,Win32,104,126027,123010,104,104,635282,636790,630277,127530,630277,104,702073,703581,699069,636795,699069,visual_patterns,0,0,0,yes,1366
undefined,undefined,undefined,undefined,white,no,Mozilla,Netscape,"5.0 (Windows NT 10.0; Win64; x64) AppleWebKit/537.36 (KHTML, like Gecko) Chrome/99.0.4844.51 Safari/537.36",xpyriment,legacy,legacy,0,uniform,0,0,0,0,24,24,24,0,0,74,74,74,74,74,0,74,0,10,10,10,10,10,0,10,06-02-22,06-02-22,08:58:37,Sun Mar 06 2022 08:58:37 GMT+0100 (közép-európai téli idő),The main experiment item,yes,0,0,C:/Users/rrics/Documents/!!ResearchBMECOGSCI/gnet,0,0,0,prototype3.png,no,mono,no,18,no,black,no,no,768,1180,3.5.6,legacy,xpyriment,osweb,1.3.13,0,space,space,space,space,21491,14181,19848,21491,2,legacy,680,1280,24,720,24,0,0,1280,1646553516967,1024,2,48000,-16,experiment,p9sarr2.png,0,even,Win32,104,126027,123010,104,104,635282,636790,630277,127530,630277,104,706596,708102,703594,636795,703594,visual_patterns,0,0,0,yes,1366
undefined,undefined,undefined,undefined,white,no,Mozilla,Netscape,"5.0 (Windows NT 10.0; Win64; x64) AppleWebKit/537.36 (KHTML, like Gecko) Chrome/99.0.4844.51 Safari/537.36",xpyriment,legacy,legacy,0,uniform,0,0,0,0,24,24,24,0,0,74,74,74,74,74,0,74,0,11,11,11,11,11,0,11,06-02-22,06-02-22,08:58:37,Sun Mar 06 2022 08:58:37 GMT+0100 (közép-európai téli idő),The main experiment item,yes,0,0,C:/Users/rrics/Documents/!!ResearchBMECOGSCI/gnet,0,0,0,prototype3.png,no,mono,no,18,no,black,no,no,768,1180,3.5.6,legacy,xpyriment,osweb,1.3.13,0,space,space,space,space,21491,14181,19848,21491,2,legacy,680,1280,24,720,24,0,0,1280,1646553516967,1024,2,48000,-16,experiment,p1sarr2.png,0,even,Win32,104,126027,123010,104,104,635282,636790,630277,127530,630277,104,711115,712624,708115,636795,708115,visual_patterns,0,0,0,yes,1366
undefined,undefined,undefined,undefined,white,no,Mozilla,Netscape,"5.0 (Windows NT 10.0; Win64; x64) AppleWebKit/537.36 (KHTML, like Gecko) Chrome/99.0.4844.51 Safari/537.36",xpyriment,legacy,legacy,0,uniform,0,0,0,0,24,24,24,0,0,74,74,74,74,74,0,74,0,12,12,12,12,12,0,12,06-02-22,06-02-22,08:58:37,Sun Mar 06 2022 08:58:37 GMT+0100 (közép-európai téli idő),The main experiment item,yes,0,0,C:/Users/rrics/Documents/!!ResearchBMECOGSCI/gnet,0,0,0,prototype3.png,no,mono,no,18,no,black,no,no,768,1180,3.5.6,legacy,xpyriment,osweb,1.3.13,0,space,space,space,space,21491,14181,19848,21491,2,legacy,680,1280,24,720,24,0,0,1280,1646553516967,1024,2,48000,-16,experiment,p3sarrcol4.png,0,even,Win32,104,126027,123010,104,104,635282,636790,630277,127530,630277,104,715661,717162,712661,636795,712661,visual_patterns,0,0,0,yes,1366
undefined,undefined,undefined,undefined,white,no,Mozilla,Netscape,"5.0 (Windows NT 10.0; Win64; x64) AppleWebKit/537.36 (KHTML, like Gecko) Chrome/99.0.4844.51 Safari/537.36",xpyriment,legacy,legacy,0,uniform,0,0,0,0,24,24,24,0,0,74,74,74,74,74,0,74,0,13,13,13,13,13,0,13,06-02-22,06-02-22,08:58:37,Sun Mar 06 2022 08:58:37 GMT+0100 (közép-európai téli idő),The main experiment item,yes,0,0,C:/Users/rrics/Documents/!!ResearchBMECOGSCI/gnet,0,0,0,prototype3.png,no,mono,no,18,no,black,no,no,768,1180,3.5.6,legacy,xpyriment,osweb,1.3.13,0,space,space,space,space,21491,14181,19848,21491,2,legacy,680,1280,24,720,24,0,0,1280,1646553516967,1024,2,48000,-16,experiment,p2sarrshacol2.png,0,even,Win32,104,126027,123010,104,104,635282,636790,630277,127530,630277,104,720177,721684,717176,636795,717176,visual_patterns,0,0,0,yes,1366
undefined,undefined,undefined,undefined,white,no,Mozilla,Netscape,"5.0 (Windows NT 10.0; Win64; x64) AppleWebKit/537.36 (KHTML, like Gecko) Chrome/99.0.4844.51 Safari/537.36",xpyriment,legacy,legacy,0,uniform,0,0,0,0,24,24,24,0,0,74,74,74,74,74,0,74,0,14,14,14,14,14,0,14,06-02-22,06-02-22,08:58:37,Sun Mar 06 2022 08:58:37 GMT+0100 (közép-európai téli idő),The main experiment item,yes,0,0,C:/Users/rrics/Documents/!!ResearchBMECOGSCI/gnet,0,0,0,prototype3.png,no,mono,no,18,no,black,no,no,768,1180,3.5.6,legacy,xpyriment,osweb,1.3.13,0,space,space,space,space,21491,14181,19848,21491,2,legacy,680,1280,24,720,24,0,0,1280,1646553516967,1024,2,48000,-16,experiment,p6sarr1.png,0,even,Win32,104,126027,123010,104,104,635282,636790,630277,127530,630277,104,724698,726206,721697,636795,721697,visual_patterns,0,0,0,yes,1366
undefined,undefined,undefined,undefined,white,no,Mozilla,Netscape,"5.0 (Windows NT 10.0; Win64; x64) AppleWebKit/537.36 (KHTML, like Gecko) Chrome/99.0.4844.51 Safari/537.36",xpyriment,legacy,legacy,0,uniform,0,0,0,0,24,24,24,0,0,74,74,74,74,74,0,74,0,15,15,15,15,15,0,15,06-02-22,06-02-22,08:58:37,Sun Mar 06 2022 08:58:37 GMT+0100 (közép-európai téli idő),The main experiment item,yes,0,0,C:/Users/rrics/Documents/!!ResearchBMECOGSCI/gnet,0,0,0,prototype3.png,no,mono,no,18,no,black,no,no,768,1180,3.5.6,legacy,xpyriment,osweb,1.3.13,0,space,space,space,space,21491,14181,19848,21491,2,legacy,680,1280,24,720,24,0,0,1280,1646553516967,1024,2,48000,-16,experiment,p4sarrshacol3.png,0,even,Win32,104,126027,123010,104,104,635282,636790,630277,127530,630277,104,729217,730728,726223,636795,726223,visual_patterns,0,0,0,yes,1366
undefined,undefined,undefined,undefined,white,no,Mozilla,Netscape,"5.0 (Windows NT 10.0; Win64; x64) AppleWebKit/537.36 (KHTML, like Gecko) Chrome/99.0.4844.51 Safari/537.36",xpyriment,legacy,legacy,0,uniform,0,0,0,0,24,24,24,0,0,74,74,74,74,74,0,74,0,16,16,16,16,16,0,16,06-02-22,06-02-22,08:58:37,Sun Mar 06 2022 08:58:37 GMT+0100 (közép-európai téli idő),The main experiment item,yes,0,0,C:/Users/rrics/Documents/!!ResearchBMECOGSCI/gnet,0,0,0,prototype3.png,no,mono,no,18,no,black,no,no,768,1180,3.5.6,legacy,xpyriment,osweb,1.3.13,0,space,space,space,space,21491,14181,19848,21491,2,legacy,680,1280,24,720,24,0,0,1280,1646553516967,1024,2,48000,-16,experiment,p4sarrshacol4.png,0,even,Win32,104,126027,123010,104,104,635282,636790,630277,127530,630277,104,733742,735258,730745,636795,730745,visual_patterns,0,0,0,yes,1366
undefined,undefined,undefined,undefined,white,no,Mozilla,Netscape,"5.0 (Windows NT 10.0; Win64; x64) AppleWebKit/537.36 (KHTML, like Gecko) Chrome/99.0.4844.51 Safari/537.36",xpyriment,legacy,legacy,0,uniform,0,0,0,0,24,24,24,0,0,74,74,74,74,74,0,74,0,17,17,17,17,17,0,17,06-02-22,06-02-22,08:58:37,Sun Mar 06 2022 08:58:37 GMT+0100 (közép-európai téli idő),The main experiment item,yes,0,0,C:/Users/rrics/Documents/!!ResearchBMECOGSCI/gnet,0,0,0,prototype3.png,no,mono,no,18,no,black,no,no,768,1180,3.5.6,legacy,xpyriment,osweb,1.3.13,0,space,space,space,space,21491,14181,19848,21491,2,legacy,680,1280,24,720,24,0,0,1280,1646553516967,1024,2,48000,-16,experiment,p2sarrcol1.png,0,even,Win32,104,126027,123010,104,104,635282,636790,630277,127530,630277,104,738297,739804,735297,636795,735297,visual_patterns,0,0,0,yes,1366
undefined,undefined,undefined,undefined,white,no,Mozilla,Netscape,"5.0 (Windows NT 10.0; Win64; x64) AppleWebKit/537.36 (KHTML, like Gecko) Chrome/99.0.4844.51 Safari/537.36",xpyriment,legacy,legacy,0,uniform,0,0,0,0,24,24,24,0,0,74,74,74,74,74,0,74,0,18,18,18,18,18,0,18,06-02-22,06-02-22,08:58:37,Sun Mar 06 2022 08:58:37 GMT+0100 (közép-európai téli idő),The main experiment item,yes,0,0,C:/Users/rrics/Documents/!!ResearchBMECOGSCI/gnet,0,0,0,prototype3.png,no,mono,no,18,no,black,no,no,768,1180,3.5.6,legacy,xpyriment,osweb,1.3.13,0,space,space,space,space,21491,14181,19848,21491,2,legacy,680,1280,24,720,24,0,0,1280,1646553516967,1024,2,48000,-16,experiment,p1sarr4.png,0,even,Win32,104,126027,123010,104,104,635282,636790,630277,127530,630277,104,742819,744326,739820,636795,739820,visual_patterns,0,0,0,yes,1366
undefined,undefined,undefined,undefined,white,no,Mozilla,Netscape,"5.0 (Windows NT 10.0; Win64; x64) AppleWebKit/537.36 (KHTML, like Gecko) Chrome/99.0.4844.51 Safari/537.36",xpyriment,legacy,legacy,0,uniform,0,0,0,0,24,24,24,0,0,74,74,74,74,74,0,74,0,19,19,19,19,19,0,19,06-02-22,06-02-22,08:58:37,Sun Mar 06 2022 08:58:37 GMT+0100 (közép-európai téli idő),The main experiment item,yes,0,0,C:/Users/rrics/Documents/!!ResearchBMECOGSCI/gnet,0,0,0,prototype3.png,no,mono,no,18,no,black,no,no,768,1180,3.5.6,legacy,xpyriment,osweb,1.3.13,0,space,space,space,space,21491,14181,19848,21491,2,legacy,680,1280,24,720,24,0,0,1280,1646553516967,1024,2,48000,-16,experiment,p10sarr1.png,0,even,Win32,104,126027,123010,104,104,635282,636790,630277,127530,630277,104,747339,748847,744339,636795,744339,visual_patterns,0,0,0,yes,1366
undefined,undefined,undefined,undefined,white,no,Mozilla,Netscape,"5.0 (Windows NT 10.0; Win64; x64) AppleWebKit/537.36 (KHTML, like Gecko) Chrome/99.0.4844.51 Safari/537.36",xpyriment,legacy,legacy,0,uniform,0,0,0,0,24,24,24,0,0,74,74,74,74,74,0,74,0,20,20,20,20,20,0,20,06-02-22,06-02-22,08:58:37,Sun Mar 06 2022 08:58:37 GMT+0100 (közép-európai téli idő),The main experiment item,yes,0,0,C:/Users/rrics/Documents/!!ResearchBMECOGSCI/gnet,0,0,0,prototype3.png,no,mono,no,18,no,black,no,no,768,1180,3.5.6,legacy,xpyriment,osweb,1.3.13,0,space,space,space,space,21491,14181,19848,21491,2,legacy,680,1280,24,720,24,0,0,1280,1646553516967,1024,2,48000,-16,experiment,p8sarr3.png,0,even,Win32,104,126027,123010,104,104,635282,636790,630277,127530,630277,104,751861,753369,748863,636795,748863,visual_patterns,0,0,0,yes,1366
undefined,undefined,undefined,undefined,white,no,Mozilla,Netscape,"5.0 (Windows NT 10.0; Win64; x64) AppleWebKit/537.36 (KHTML, like Gecko) Chrome/99.0.4844.51 Safari/537.36",xpyriment,legacy,legacy,0,uniform,0,0,0,0,24,24,24,0,0,74,74,74,74,74,0,74,0,21,21,21,21,21,0,21,06-02-22,06-02-22,08:58:37,Sun Mar 06 2022 08:58:37 GMT+0100 (közép-európai téli idő),The main experiment item,yes,0,0,C:/Users/rrics/Documents/!!ResearchBMECOGSCI/gnet,0,0,0,prototype3.png,no,mono,no,18,no,black,no,no,768,1180,3.5.6,legacy,xpyriment,osweb,1.3.13,0,space,space,space,space,21491,14181,19848,21491,2,legacy,680,1280,24,720,24,0,0,1280,1646553516967,1024,2,48000,-16,experiment,p9sarr4.png,0,even,Win32,104,126027,123010,104,104,635282,636790,630277,127530,630277,104,756383,757891,753385,636795,753385,visual_patterns,0,0,0,yes,1366
undefined,undefined,undefined,undefined,white,no,Mozilla,Netscape,"5.0 (Windows NT 10.0; Win64; x64) AppleWebKit/537.36 (KHTML, like Gecko) Chrome/99.0.4844.51 Safari/537.36",xpyriment,legacy,legacy,0,uniform,0,0,0,0,24,24,24,0,0,74,74,74,74,74,0,74,0,22,22,22,22,22,0,22,06-02-22,06-02-22,08:58:37,Sun Mar 06 2022 08:58:37 GMT+0100 (közép-európai téli idő),The main experiment item,yes,0,0,C:/Users/rrics/Documents/!!ResearchBMECOGSCI/gnet,0,0,0,prototype3.png,no,mono,no,18,no,black,no,no,768,1180,3.5.6,legacy,xpyriment,osweb,1.3.13,0,space,space,space,space,21491,14181,19848,21491,2,legacy,680,1280,24,720,24,0,0,1280,1646553516967,1024,2,48000,-16,experiment,p5sarrcol2.png,0,even,Win32,104,126027,123010,104,104,635282,636790,630277,127530,630277,104,760905,762412,757905,636795,757905,visual_patterns,0,0,0,yes,1366
undefined,undefined,undefined,undefined,white,no,Mozilla,Netscape,"5.0 (Windows NT 10.0; Win64; x64) AppleWebKit/537.36 (KHTML, like Gecko) Chrome/99.0.4844.51 Safari/537.36",xpyriment,legacy,legacy,0,uniform,0,0,0,0,24,24,24,0,0,74,74,74,74,74,0,74,0,23,23,23,23,23,0,23,06-02-22,06-02-22,08:58:37,Sun Mar 06 2022 08:58:37 GMT+0100 (közép-európai téli idő),The main experiment item,yes,0,0,C:/Users/rrics/Documents/!!ResearchBMECOGSCI/gnet,0,0,0,prototype3.png,no,mono,no,18,no,black,no,no,768,1180,3.5.6,legacy,xpyriment,osweb,1.3.13,0,space,space,space,space,21491,14181,19848,21491,2,legacy,680,1280,24,720,24,0,0,1280,1646553516967,1024,2,48000,-16,experiment,p7sarr4.png,0,even,Win32,104,126027,123010,104,104,635282,636790,630277,127530,630277,104,765427,766934,762429,636795,762428,visual_patterns,0,0,0,yes,1366
undefined,undefined,undefined,undefined,white,no,Mozilla,Netscape,"5.0 (Windows NT 10.0; Win64; x64) AppleWebKit/537.36 (KHTML, like Gecko) Chrome/99.0.4844.51 Safari/537.36",xpyriment,legacy,legacy,0,uniform,0,0,0,0,24,24,24,0,0,74,74,74,74,74,0,74,0,24,24,24,24,24,0,24,06-02-22,06-02-22,08:58:37,Sun Mar 06 2022 08:58:37 GMT+0100 (közép-európai téli idő),The main experiment item,yes,0,0,C:/Users/rrics/Documents/!!ResearchBMECOGSCI/gnet,0,0,0,prototype3.png,no,mono,no,18,no,black,no,no,768,1180,3.5.6,legacy,xpyriment,osweb,1.3.13,0,space,space,space,space,21491,14181,19848,21491,2,legacy,680,1280,24,720,24,0,0,1280,1646553516967,1024,2,48000,-16,experiment,p3sarrsha3.png,0,even,Win32,104,126027,123010,104,104,635282,636790,630277,127530,630277,104,769948,771456,766951,636795,766951,visual_patterns,0,0,0,yes,1366
undefined,undefined,undefined,undefined,white,no,Mozilla,Netscape,"5.0 (Windows NT 10.0; Win64; x64) AppleWebKit/537.36 (KHTML, like Gecko) Chrome/99.0.4844.51 Safari/537.36",xpyriment,legacy,legacy,0,uniform,0,0,0,0,24,24,24,0,0,74,74,74,74,74,0,74,0,25,25,25,25,25,0,25,06-02-22,06-02-22,08:58:37,Sun Mar 06 2022 08:58:37 GMT+0100 (közép-európai téli idő),The main experiment item,yes,0,0,C:/Users/rrics/Documents/!!ResearchBMECOGSCI/gnet,0,0,0,prototype3.png,no,mono,no,18,no,black,no,no,768,1180,3.5.6,legacy,xpyriment,osweb,1.3.13,0,space,space,space,space,21491,14181,19848,21491,2,legacy,680,1280,24,720,24,0,0,1280,1646553516967,1024,2,48000,-16,experiment,p8sarr4.png,0,even,Win32,104,126027,123010,104,104,635282,636790,630277,127530,630277,104,774470,775977,771467,636795,771467,visual_patterns,0,0,0,yes,1366
undefined,undefined,undefined,undefined,white,no,Mozilla,Netscape,"5.0 (Windows NT 10.0; Win64; x64) AppleWebKit/537.36 (KHTML, like Gecko) Chrome/99.0.4844.51 Safari/537.36",xpyriment,legacy,legacy,0,uniform,0,0,0,0,24,24,24,0,0,74,74,74,74,74,0,74,0,26,26,26,26,26,0,26,06-02-22,06-02-22,08:58:37,Sun Mar 06 2022 08:58:37 GMT+0100 (közép-európai téli idő),The main experiment item,yes,0,0,C:/Users/rrics/Documents/!!ResearchBMECOGSCI/gnet,0,0,0,prototype3.png,no,mono,no,18,no,black,no,no,768,1180,3.5.6,legacy,xpyriment,osweb,1.3.13,0,space,space,space,space,21491,14181,19848,21491,2,legacy,680,1280,24,720,24,0,0,1280,1646553516967,1024,2,48000,-16,experiment,p2sarrshacol4.png,0,even,Win32,104,126027,123010,104,104,635282,636790,630277,127530,630277,104,778992,780499,775991,636795,775991,visual_patterns,0,0,0,yes,1366
undefined,undefined,undefined,undefined,white,no,Mozilla,Netscape,"5.0 (Windows NT 10.0; Win64; x64) AppleWebKit/537.36 (KHTML, like Gecko) Chrome/99.0.4844.51 Safari/537.36",xpyriment,legacy,legacy,0,uniform,0,0,0,0,24,24,24,0,0,74,74,74,74,74,0,74,0,27,27,27,27,27,0,27,06-02-22,06-02-22,08:58:37,Sun Mar 06 2022 08:58:37 GMT+0100 (közép-európai téli idő),The main experiment item,yes,0,0,C:/Users/rrics/Documents/!!ResearchBMECOGSCI/gnet,0,0,0,prototype3.png,no,mono,no,18,no,black,no,no,768,1180,3.5.6,legacy,xpyriment,osweb,1.3.13,0,space,space,space,space,21491,14181,19848,21491,2,legacy,680,1280,24,720,24,0,0,1280,1646553516967,1024,2,48000,-16,experiment,p4sarrshacol1.png,0,even,Win32,104,126027,123010,104,104,635282,636790,630277,127530,630277,104,783535,785037,780532,636795,780532,visual_patterns,0,0,0,yes,1366
undefined,undefined,undefined,undefined,white,no,Mozilla,Netscape,"5.0 (Windows NT 10.0; Win64; x64) AppleWebKit/537.36 (KHTML, like Gecko) Chrome/99.0.4844.51 Safari/537.36",xpyriment,legacy,legacy,0,uniform,0,0,0,0,24,24,24,0,0,74,74,74,74,74,0,74,0,28,28,28,28,28,0,28,06-02-22,06-02-22,08:58:37,Sun Mar 06 2022 08:58:37 GMT+0100 (közép-európai téli idő),The main experiment item,yes,0,0,C:/Users/rrics/Documents/!!ResearchBMECOGSCI/gnet,0,0,0,prototype3.png,no,mono,no,18,no,black,no,no,768,1180,3.5.6,legacy,xpyriment,osweb,1.3.13,0,space,space,space,space,21491,14181,19848,21491,2,legacy,680,1280,24,720,24,0,0,1280,1646553516967,1024,2,48000,-16,experiment,p1sarrshacol3.png,0,even,Win32,104,126027,123010,104,104,635282,636790,630277,127530,630277,104,788051,789559,785053,636795,785053,visual_patterns,0,0,0,yes,1366
undefined,undefined,undefined,undefined,white,no,Mozilla,Netscape,"5.0 (Windows NT 10.0; Win64; x64) AppleWebKit/537.36 (KHTML, like Gecko) Chrome/99.0.4844.51 Safari/537.36",xpyriment,legacy,legacy,0,uniform,0,0,0,0,24,24,24,0,0,74,74,74,74,74,0,74,0,29,29,29,29,29,0,29,06-02-22,06-02-22,08:58:37,Sun Mar 06 2022 08:58:37 GMT+0100 (közép-európai téli idő),The main experiment item,yes,0,0,C:/Users/rrics/Documents/!!ResearchBMECOGSCI/gnet,0,0,0,prototype3.png,no,mono,no,18,no,black,no,no,768,1180,3.5.6,legacy,xpyriment,osweb,1.3.13,0,space,space,space,space,21491,14181,19848,21491,2,legacy,680,1280,24,720,24,0,0,1280,1646553516967,1024,2,48000,-16,experiment,p2sarrsha1.png,0,even,Win32,104,126027,123010,104,104,635282,636790,630277,127530,630277,104,792573,794080,789571,636795,789571,visual_patterns,0,0,0,yes,1366
undefined,undefined,undefined,undefined,white,no,Mozilla,Netscape,"5.0 (Windows NT 10.0; Win64; x64) AppleWebKit/537.36 (KHTML, like Gecko) Chrome/99.0.4844.51 Safari/537.36",xpyriment,legacy,legacy,0,uniform,0,0,0,0,24,24,24,0,0,74,74,74,74,74,0,74,0,30,30,30,30,30,0,30,06-02-22,06-02-22,08:58:37,Sun Mar 06 2022 08:58:37 GMT+0100 (közép-európai téli idő),The main experiment item,yes,0,0,C:/Users/rrics/Documents/!!ResearchBMECOGSCI/gnet,0,0,0,prototype3.png,no,mono,no,18,no,black,no,no,768,1180,3.5.6,legacy,xpyriment,osweb,1.3.13,0,space,space,space,space,21491,14181,19848,21491,2,legacy,680,1280,24,720,24,0,0,1280,1646553516967,1024,2,48000,-16,experiment,p3sarr2.png,0,even,Win32,104,126027,123010,104,104,635282,636790,630277,127530,630277,104,797095,798602,794094,636795,794094,visual_patterns,0,0,0,yes,1366
undefined,undefined,undefined,undefined,white,no,Mozilla,Netscape,"5.0 (Windows NT 10.0; Win64; x64) AppleWebKit/537.36 (KHTML, like Gecko) Chrome/99.0.4844.51 Safari/537.36",xpyriment,legacy,legacy,0,uniform,0,0,0,0,24,24,24,0,0,74,74,74,74,74,0,74,0,31,31,31,31,31,0,31,06-02-22,06-02-22,08:58:37,Sun Mar 06 2022 08:58:37 GMT+0100 (közép-európai téli idő),The main experiment item,yes,0,0,C:/Users/rrics/Documents/!!ResearchBMECOGSCI/gnet,0,0,0,prototype3.png,no,mono,no,18,no,black,no,no,768,1180,3.5.6,legacy,xpyriment,osweb,1.3.13,0,space,space,space,space,21491,14181,19848,21491,2,legacy,680,1280,24,720,24,0,0,1280,1646553516967,1024,2,48000,-16,experiment,p3sarrshacol3.png,0,even,Win32,104,126027,123010,104,104,635282,636790,630277,127530,630277,104,801617,803124,798620,636795,798620,visual_patterns,0,0,0,yes,1366
undefined,undefined,undefined,undefined,white,no,Mozilla,Netscape,"5.0 (Windows NT 10.0; Win64; x64) AppleWebKit/537.36 (KHTML, like Gecko) Chrome/99.0.4844.51 Safari/537.36",xpyriment,legacy,legacy,0,uniform,0,0,0,0,24,24,24,0,0,74,74,74,74,74,0,74,0,32,32,32,32,32,0,32,06-02-22,06-02-22,08:58:37,Sun Mar 06 2022 08:58:37 GMT+0100 (közép-európai téli idő),The main experiment item,yes,0,0,C:/Users/rrics/Documents/!!ResearchBMECOGSCI/gnet,0,0,0,prototype3.png,no,mono,no,18,no,black,no,no,768,1180,3.5.6,legacy,xpyriment,osweb,1.3.13,0,space,space,space,space,21491,14181,19848,21491,2,legacy,680,1280,24,720,24,0,0,1280,1646553516967,1024,2,48000,-16,experiment,p2sarrcol4.png,0,even,Win32,104,126027,123010,104,104,635282,636790,630277,127530,630277,104,806138,807646,803141,636795,803141,visual_patterns,0,0,0,yes,1366
undefined,undefined,undefined,undefined,white,no,Mozilla,Netscape,"5.0 (Windows NT 10.0; Win64; x64) AppleWebKit/537.36 (KHTML, like Gecko) Chrome/99.0.4844.51 Safari/537.36",xpyriment,legacy,legacy,0,uniform,0,0,0,0,24,24,24,0,0,74,74,74,74,74,0,74,0,33,33,33,33,33,0,33,06-02-22,06-02-22,08:58:37,Sun Mar 06 2022 08:58:37 GMT+0100 (közép-európai téli idő),The main experiment item,yes,0,0,C:/Users/rrics/Documents/!!ResearchBMECOGSCI/gnet,0,0,0,prototype3.png,no,mono,no,18,no,black,no,no,768,1180,3.5.6,legacy,xpyriment,osweb,1.3.13,0,space,space,space,space,21491,14181,19848,21491,2,legacy,680,1280,24,720,24,0,0,1280,1646553516967,1024,2,48000,-16,experiment,p5sarrcol1.png,0,even,Win32,104,126027,123010,104,104,635282,636790,630277,127530,630277,104,810660,812166,807660,636795,807660,visual_patterns,0,0,0,yes,1366
undefined,undefined,undefined,undefined,white,no,Mozilla,Netscape,"5.0 (Windows NT 10.0; Win64; x64) AppleWebKit/537.36 (KHTML, like Gecko) Chrome/99.0.4844.51 Safari/537.36",xpyriment,legacy,legacy,0,uniform,0,0,0,0,24,24,24,0,0,74,74,74,74,74,0,74,0,34,34,34,34,34,0,34,06-02-22,06-02-22,08:58:37,Sun Mar 06 2022 08:58:37 GMT+0100 (közép-európai téli idő),The main experiment item,yes,0,0,C:/Users/rrics/Documents/!!ResearchBMECOGSCI/gnet,0,0,0,prototype3.png,no,mono,no,18,no,black,no,no,768,1180,3.5.6,legacy,xpyriment,osweb,1.3.13,0,space,space,space,space,21491,14181,19848,21491,2,legacy,680,1280,24,720,24,0,0,1280,1646553516967,1024,2,48000,-16,experiment,p8sarr2.png,0,even,Win32,104,126027,123010,104,104,635282,636790,630277,127530,630277,104,815182,816689,812177,636795,812177,visual_patterns,0,0,0,yes,1366
undefined,undefined,undefined,undefined,white,no,Mozilla,Netscape,"5.0 (Windows NT 10.0; Win64; x64) AppleWebKit/537.36 (KHTML, like Gecko) Chrome/99.0.4844.51 Safari/537.36",xpyriment,legacy,legacy,0,uniform,0,0,0,0,24,24,24,0,0,74,74,74,74,74,0,74,0,35,35,35,35,35,0,35,06-02-22,06-02-22,08:58:37,Sun Mar 06 2022 08:58:37 GMT+0100 (közép-európai téli idő),The main experiment item,yes,0,0,C:/Users/rrics/Documents/!!ResearchBMECOGSCI/gnet,0,0,0,prototype3.png,no,mono,no,18,no,black,no,no,768,1180,3.5.6,legacy,xpyriment,osweb,1.3.13,0,space,space,space,space,21491,14181,19848,21491,2,legacy,680,1280,24,720,24,0,0,1280,1646553516967,1024,2,48000,-16,experiment,p5sarr3.png,0,even,Win32,104,126027,123010,104,104,635282,636790,630277,127530,630277,104,819703,821211,816705,636795,816705,visual_patterns,0,0,0,yes,1366
undefined,undefined,undefined,undefined,white,no,Mozilla,Netscape,"5.0 (Windows NT 10.0; Win64; x64) AppleWebKit/537.36 (KHTML, like Gecko) Chrome/99.0.4844.51 Safari/537.36",xpyriment,legacy,legacy,0,uniform,0,0,0,0,24,24,24,0,0,74,74,74,74,74,0,74,0,36,36,36,36,36,0,36,06-02-22,06-02-22,08:58:37,Sun Mar 06 2022 08:58:37 GMT+0100 (közép-európai téli idő),The main experiment item,yes,0,0,C:/Users/rrics/Documents/!!ResearchBMECOGSCI/gnet,0,0,0,prototype3.png,no,mono,no,18,no,black,no,no,768,1180,3.5.6,legacy,xpyriment,osweb,1.3.13,0,space,space,space,space,21491,14181,19848,21491,2,legacy,680,1280,24,720,24,0,0,1280,1646553516967,1024,2,48000,-16,experiment,p7sarr1.png,0,even,Win32,104,126027,123010,104,104,635282,636790,630277,127530,630277,104,824224,825732,821224,636795,821224,visual_patterns,0,0,0,yes,1366
undefined,undefined,undefined,undefined,white,no,Mozilla,Netscape,"5.0 (Windows NT 10.0; Win64; x64) AppleWebKit/537.36 (KHTML, like Gecko) Chrome/99.0.4844.51 Safari/537.36",xpyriment,legacy,legacy,0,uniform,0,0,0,0,24,24,24,0,0,74,74,74,74,74,0,74,0,37,37,37,37,37,0,37,06-02-22,06-02-22,08:58:37,Sun Mar 06 2022 08:58:37 GMT+0100 (közép-európai téli idő),The main experiment item,yes,0,0,C:/Users/rrics/Documents/!!ResearchBMECOGSCI/gnet,0,0,0,prototype3.png,no,mono,no,18,no,black,no,no,768,1180,3.5.6,legacy,xpyriment,osweb,1.3.13,0,space,space,space,space,21491,14181,19848,21491,2,legacy,680,1280,24,720,24,0,0,1280,1646553516967,1024,2,48000,-16,experiment,p1sarrcol4.png,0,even,Win32,104,126027,123010,104,104,635282,636790,630277,127530,630277,104,828745,830254,825748,636795,825748,visual_patterns,0,0,0,yes,1366
undefined,undefined,undefined,undefined,white,no,Mozilla,Netscape,"5.0 (Windows NT 10.0; Win64; x64) AppleWebKit/537.36 (KHTML, like Gecko) Chrome/99.0.4844.51 Safari/537.36",xpyriment,legacy,legacy,0,uniform,0,0,0,0,24,24,24,0,0,74,74,74,74,74,0,74,0,38,38,38,38,38,0,38,06-02-22,06-02-22,08:58:37,Sun Mar 06 2022 08:58:37 GMT+0100 (közép-európai téli idő),The main experiment item,yes,0,0,C:/Users/rrics/Documents/!!ResearchBMECOGSCI/gnet,0,0,0,prototype3.png,no,mono,no,18,no,black,no,no,768,1180,3.5.6,legacy,xpyriment,osweb,1.3.13,0,space,space,space,space,21491,14181,19848,21491,2,legacy,680,1280,24,720,24,0,0,1280,1646553516967,1024,2,48000,-16,experiment,p3sarrsha4.png,0,even,Win32,104,126027,123010,104,104,635282,636790,630277,127530,630277,104,833268,834775,830270,636795,830269,visual_patterns,0,0,0,yes,1366
undefined,undefined,undefined,undefined,white,no,Mozilla,Netscape,"5.0 (Windows NT 10.0; Win64; x64) AppleWebKit/537.36 (KHTML, like Gecko) Chrome/99.0.4844.51 Safari/537.36",xpyriment,legacy,legacy,0,uniform,0,0,0,0,24,24,24,0,0,74,74,74,74,74,0,74,0,39,39,39,39,39,0,39,06-02-22,06-02-22,08:58:37,Sun Mar 06 2022 08:58:37 GMT+0100 (közép-európai téli idő),The main experiment item,yes,0,0,C:/Users/rrics/Documents/!!ResearchBMECOGSCI/gnet,0,0,0,prototype3.png,no,mono,no,18,no,black,no,no,768,1180,3.5.6,legacy,xpyriment,osweb,1.3.13,0,space,space,space,space,21491,14181,19848,21491,2,legacy,680,1280,24,720,24,0,0,1280,1646553516967,1024,2,48000,-16,experiment,p3sarr1.png,0,even,Win32,104,126027,123010,104,104,635282,636790,630277,127530,630277,104,837790,839297,834788,636795,834788,visual_patterns,0,0,0,yes,1366
undefined,undefined,undefined,undefined,white,no,Mozilla,Netscape,"5.0 (Windows NT 10.0; Win64; x64) AppleWebKit/537.36 (KHTML, like Gecko) Chrome/99.0.4844.51 Safari/537.36",xpyriment,legacy,legacy,0,uniform,0,0,0,0,24,24,24,0,0,74,74,74,74,74,0,74,0,40,40,40,40,40,0,40,06-02-22,06-02-22,08:58:37,Sun Mar 06 2022 08:58:37 GMT+0100 (közép-európai téli idő),The main experiment item,yes,0,0,C:/Users/rrics/Documents/!!ResearchBMECOGSCI/gnet,0,0,0,prototype3.png,no,mono,no,18,no,black,no,no,768,1180,3.5.6,legacy,xpyriment,osweb,1.3.13,0,space,space,space,space,21491,14181,19848,21491,2,legacy,680,1280,24,720,24,0,0,1280,1646553516967,1024,2,48000,-16,experiment,p2sarrsha3.png,0,even,Win32,104,126027,123010,104,104,635282,636790,630277,127530,630277,104,842311,843819,839313,636795,839313,visual_patterns,0,0,0,yes,1366
undefined,undefined,undefined,undefined,white,no,Mozilla,Netscape,"5.0 (Windows NT 10.0; Win64; x64) AppleWebKit/537.36 (KHTML, like Gecko) Chrome/99.0.4844.51 Safari/537.36",xpyriment,legacy,legacy,0,uniform,0,0,0,0,24,24,24,0,0,74,74,74,74,74,0,74,0,41,41,41,41,41,0,41,06-02-22,06-02-22,08:58:37,Sun Mar 06 2022 08:58:37 GMT+0100 (közép-európai téli idő),The main experiment item,yes,0,0,C:/Users/rrics/Documents/!!ResearchBMECOGSCI/gnet,0,0,0,prototype3.png,no,mono,no,18,no,black,no,no,768,1180,3.5.6,legacy,xpyriment,osweb,1.3.13,0,space,space,space,space,21491,14181,19848,21491,2,legacy,680,1280,24,720,24,0,0,1280,1646553516967,1024,2,48000,-16,experiment,p9sarr3.png,0,even,Win32,104,126027,123010,104,104,635282,636790,630277,127530,630277,104,846831,848333,843835,636795,843835,visual_patterns,0,0,0,yes,1366
undefined,undefined,undefined,undefined,white,no,Mozilla,Netscape,"5.0 (Windows NT 10.0; Win64; x64) AppleWebKit/537.36 (KHTML, like Gecko) Chrome/99.0.4844.51 Safari/537.36",xpyriment,legacy,legacy,0,uniform,0,0,0,0,24,24,24,0,0,74,74,74,74,74,0,74,0,42,42,42,42,42,0,42,06-02-22,06-02-22,08:58:37,Sun Mar 06 2022 08:58:37 GMT+0100 (közép-európai téli idő),The main experiment item,yes,0,0,C:/Users/rrics/Documents/!!ResearchBMECOGSCI/gnet,0,0,0,prototype3.png,no,mono,no,18,no,black,no,no,768,1180,3.5.6,legacy,xpyriment,osweb,1.3.13,0,space,space,space,space,21491,14181,19848,21491,2,legacy,680,1280,24,720,24,0,0,1280,1646553516967,1024,2,48000,-16,experiment,p10sarr4.png,0,even,Win32,104,126027,123010,104,104,635282,636790,630277,127530,630277,104,851355,852862,848350,636795,848350,visual_patterns,0,0,0,yes,1366
undefined,undefined,undefined,undefined,white,no,Mozilla,Netscape,"5.0 (Windows NT 10.0; Win64; x64) AppleWebKit/537.36 (KHTML, like Gecko) Chrome/99.0.4844.51 Safari/537.36",xpyriment,legacy,legacy,0,uniform,0,0,0,0,24,24,24,0,0,74,74,74,74,74,0,74,0,43,43,43,43,43,0,43,06-02-22,06-02-22,08:58:37,Sun Mar 06 2022 08:58:37 GMT+0100 (közép-európai téli idő),The main experiment item,yes,0,0,C:/Users/rrics/Documents/!!ResearchBMECOGSCI/gnet,0,0,0,prototype3.png,no,mono,no,18,no,black,no,no,768,1180,3.5.6,legacy,xpyriment,osweb,1.3.13,0,space,space,space,space,21491,14181,19848,21491,2,legacy,680,1280,24,720,24,0,0,1280,1646553516967,1024,2,48000,-16,experiment,p4sarrcol1.png,0,even,Win32,104,126027,123010,104,104,635282,636790,630277,127530,630277,104,855877,857384,852874,636795,852874,visual_patterns,0,0,0,yes,1366
undefined,undefined,undefined,undefined,white,no,Mozilla,Netscape,"5.0 (Windows NT 10.0; Win64; x64) AppleWebKit/537.36 (KHTML, like Gecko) Chrome/99.0.4844.51 Safari/537.36",xpyriment,legacy,legacy,0,uniform,0,0,0,0,24,24,24,0,0,74,74,74,74,74,0,74,0,44,44,44,44,44,0,44,06-02-22,06-02-22,08:58:37,Sun Mar 06 2022 08:58:37 GMT+0100 (közép-európai téli idő),The main experiment item,yes,0,0,C:/Users/rrics/Documents/!!ResearchBMECOGSCI/gnet,0,0,0,prototype3.png,no,mono,no,18,no,black,no,no,768,1180,3.5.6,legacy,xpyriment,osweb,1.3.13,0,space,space,space,space,21491,14181,19848,21491,2,legacy,680,1280,24,720,24,0,0,1280,1646553516967,1024,2,48000,-16,experiment,p5sarrshacol4.png,0,even,Win32,104,126027,123010,104,104,635282,636790,630277,127530,630277,104,860398,861905,857397,636795,857397,visual_patterns,0,0,0,yes,1366
undefined,undefined,undefined,undefined,white,no,Mozilla,Netscape,"5.0 (Windows NT 10.0; Win64; x64) AppleWebKit/537.36 (KHTML, like Gecko) Chrome/99.0.4844.51 Safari/537.36",xpyriment,legacy,legacy,0,uniform,0,0,0,0,24,24,24,0,0,74,74,74,74,74,0,74,0,45,45,45,45,45,0,45,06-02-22,06-02-22,08:58:37,Sun Mar 06 2022 08:58:37 GMT+0100 (közép-európai téli idő),The main experiment item,yes,0,0,C:/Users/rrics/Documents/!!ResearchBMECOGSCI/gnet,0,0,0,prototype3.png,no,mono,no,18,no,black,no,no,768,1180,3.5.6,legacy,xpyriment,osweb,1.3.13,0,space,space,space,space,21491,14181,19848,21491,2,legacy,680,1280,24,720,24,0,0,1280,1646553516967,1024,2,48000,-16,experiment,p3sarr3.png,0,even,Win32,104,126027,123010,104,104,635282,636790,630277,127530,630277,104,864942,866444,861944,636795,861944,visual_patterns,0,0,0,yes,1366
undefined,undefined,undefined,undefined,white,no,Mozilla,Netscape,"5.0 (Windows NT 10.0; Win64; x64) AppleWebKit/537.36 (KHTML, like Gecko) Chrome/99.0.4844.51 Safari/537.36",xpyriment,legacy,legacy,0,uniform,0,0,0,0,24,24,24,0,0,74,74,74,74,74,0,74,0,46,46,46,46,46,0,46,06-02-22,06-02-22,08:58:37,Sun Mar 06 2022 08:58:37 GMT+0100 (közép-európai téli idő),The main experiment item,yes,0,0,C:/Users/rrics/Documents/!!ResearchBMECOGSCI/gnet,0,0,0,prototype3.png,no,mono,no,18,no,black,no,no,768,1180,3.5.6,legacy,xpyriment,osweb,1.3.13,0,space,space,space,space,21491,14181,19848,21491,2,legacy,680,1280,24,720,24,0,0,1280,1646553516967,1024,2,48000,-16,experiment,p2sarr3.png,0,even,Win32,104,126027,123010,104,104,635282,636790,630277,127530,630277,104,869457,870965,866459,636795,866459,visual_patterns,0,0,0,yes,1366
undefined,undefined,undefined,undefined,white,no,Mozilla,Netscape,"5.0 (Windows NT 10.0; Win64; x64) AppleWebKit/537.36 (KHTML, like Gecko) Chrome/99.0.4844.51 Safari/537.36",xpyriment,legacy,legacy,0,uniform,0,0,0,0,24,24,24,0,0,74,74,74,74,74,0,74,0,47,47,47,47,47,0,47,06-02-22,06-02-22,08:58:37,Sun Mar 06 2022 08:58:37 GMT+0100 (közép-európai téli idő),The main experiment item,yes,0,0,C:/Users/rrics/Documents/!!ResearchBMECOGSCI/gnet,0,0,0,prototype3.png,no,mono,no,18,no,black,no,no,768,1180,3.5.6,legacy,xpyriment,osweb,1.3.13,0,space,space,space,space,21491,14181,19848,21491,2,legacy,680,1280,24,720,24,0,0,1280,1646553516967,1024,2,48000,-16,experiment,p4sarr2.png,0,even,Win32,104,126027,123010,104,104,635282,636790,630277,127530,630277,104,873980,875487,870977,636795,870977,visual_patterns,0,0,0,yes,1366
undefined,undefined,undefined,undefined,white,no,Mozilla,Netscape,"5.0 (Windows NT 10.0; Win64; x64) AppleWebKit/537.36 (KHTML, like Gecko) Chrome/99.0.4844.51 Safari/537.36",xpyriment,legacy,legacy,0,uniform,0,0,0,0,24,24,24,0,0,74,74,74,74,74,0,74,0,48,48,48,48,48,0,48,06-02-22,06-02-22,08:58:37,Sun Mar 06 2022 08:58:37 GMT+0100 (közép-európai téli idő),The main experiment item,yes,0,0,C:/Users/rrics/Documents/!!ResearchBMECOGSCI/gnet,0,0,0,prototype3.png,no,mono,no,18,no,black,no,no,768,1180,3.5.6,legacy,xpyriment,osweb,1.3.13,0,space,space,space,space,21491,14181,19848,21491,2,legacy,680,1280,24,720,24,0,0,1280,1646553516967,1024,2,48000,-16,experiment,p2sarrshacol3.png,0,even,Win32,104,126027,123010,104,104,635282,636790,630277,127530,630277,104,878502,880009,875503,636795,875503,visual_patterns,0,0,0,yes,1366
