acc,accuracy,average_response_time,avg_rt,background,bidi,browser_codename,browser_name,browser_version,canvas_backend,clock_backend,color_backend,compensation,coordinates,count_end,count_experiment,count_osweb,count_prestudy,count_prestudy_isi,count_prestudy_sequence,count_prestudy_stimpres,count_start,count_study,count_study_coroutines,count_study_isi,count_study_logger,count_study_response,count_study_sequence,count_study_start,count_study_stimpres,count_test,count_test_coroutines,count_test_isi,count_test_logger,count_test_response,count_test_sequence,count_test_start,count_test_stimpres,date_startdate,date_startdateUTC,date_starttime,datetime,description,disable_garbage_collection,experiment_debug,experiment_parameters,experiment_path,experiment_pilot,experiment_taskname,experiment_taskversion,fampict,font_bold,font_family,font_italic,font_size,font_underline,foreground,form_clicks,fullscreen,height,jatosStudyResultId,jatosVersion,keyboard_backend,mouse_backend,opensesame_codename,opensesame_version,repeat_cycle,response,response_start,response_study_start,response_test_start,response_time,response_time_start,response_time_study_start,response_time_test_start,round_decimals,sampler_backend,screen_availableHeight,screen_availableWidth,screen_colorDepth,screen_height,screen_pixelDepth,screen_screenX,screen_screenY,screen_width,sessionid,sound_buf_size,sound_channels,sound_freq,sound_sample_size,start,stim,subject_nr,subject_parity,system_os,time_prestudy,time_prestudy_isi,time_prestudy_stimpres,time_start,time_study,time_study_isi,time_study_logger,time_study_response,time_study_start,time_study_stimpres,time_test,time_test_isi,time_test_logger,time_test_response,time_test_start,time_test_stimpres,title,total_correct,total_response_time,total_responses,uniform_coordinates,width
undefined,undefined,undefined,undefined,white,no,Mozilla,Netscape,"5.0 (Windows NT 10.0; Win64; x64) AppleWebKit/537.36 (KHTML, like Gecko) Chrome/98.0.4758.102 Safari/537.36",xpyriment,legacy,legacy,0,uniform,0,0,0,0,24,24,24,0,0,0,0,0,0,0,0,0,0,,,,,,0,,06-02-22,06-02-22,10:05:13,Sun Mar 06 2022 10:05:13 GMT+0100 (Central European Standard Time),The main experiment item,yes,0,0,C:/Users/rrics/Documents/!!ResearchBMECOGSCI/gnet,0,0,0,prototype5.png,no,mono,no,18,no,black,no,no,768,1181,3.5.6,legacy,xpyriment,osweb,1.3.13,0,space,right,space,,25430,23804,25430,,2,legacy,864,1462,24,864,24,0,0,1536,1646557518930,1024,2,48000,-16,experiment,p6sarr1.png,1,odd,Win32,173,135799,132783,173,173,167772,169286,162775,137317,162775,173,,,,,,visual_patterns,0,0,0,yes,1366
undefined,undefined,undefined,undefined,white,no,Mozilla,Netscape,"5.0 (Windows NT 10.0; Win64; x64) AppleWebKit/537.36 (KHTML, like Gecko) Chrome/98.0.4758.102 Safari/537.36",xpyriment,legacy,legacy,0,uniform,0,0,0,0,24,24,24,0,0,1,1,1,1,1,0,1,0,,,,,,0,,06-02-22,06-02-22,10:05:13,Sun Mar 06 2022 10:05:13 GMT+0100 (Central European Standard Time),The main experiment item,yes,0,0,C:/Users/rrics/Documents/!!ResearchBMECOGSCI/gnet,0,0,0,prototype5.png,no,mono,no,18,no,black,no,no,768,1181,3.5.6,legacy,xpyriment,osweb,1.3.13,0,space,right,space,,25430,23804,25430,,2,legacy,864,1462,24,864,24,0,0,1536,1646557518930,1024,2,48000,-16,experiment,prototype3.png,1,odd,Win32,173,135799,132783,173,173,174302,175818,169297,137317,169297,173,,,,,,visual_patterns,0,0,0,yes,1366
undefined,undefined,undefined,undefined,white,no,Mozilla,Netscape,"5.0 (Windows NT 10.0; Win64; x64) AppleWebKit/537.36 (KHTML, like Gecko) Chrome/98.0.4758.102 Safari/537.36",xpyriment,legacy,legacy,0,uniform,0,0,0,0,24,24,24,0,0,2,2,2,2,2,0,2,0,,,,,,0,,06-02-22,06-02-22,10:05:13,Sun Mar 06 2022 10:05:13 GMT+0100 (Central European Standard Time),The main experiment item,yes,0,0,C:/Users/rrics/Documents/!!ResearchBMECOGSCI/gnet,0,0,0,prototype5.png,no,mono,no,18,no,black,no,no,768,1181,3.5.6,legacy,xpyriment,osweb,1.3.13,0,space,right,space,,25430,23804,25430,,2,legacy,864,1462,24,864,24,0,0,1536,1646557518930,1024,2,48000,-16,experiment,p3sarr1.png,1,odd,Win32,173,135799,132783,173,173,180828,182335,175829,137317,175829,173,,,,,,visual_patterns,0,0,0,yes,1366
undefined,undefined,undefined,undefined,white,no,Mozilla,Netscape,"5.0 (Windows NT 10.0; Win64; x64) AppleWebKit/537.36 (KHTML, like Gecko) Chrome/98.0.4758.102 Safari/537.36",xpyriment,legacy,legacy,0,uniform,0,0,0,0,24,24,24,0,0,3,3,3,3,3,0,3,0,,,,,,0,,06-02-22,06-02-22,10:05:13,Sun Mar 06 2022 10:05:13 GMT+0100 (Central European Standard Time),The main experiment item,yes,0,0,C:/Users/rrics/Documents/!!ResearchBMECOGSCI/gnet,0,0,0,prototype5.png,no,mono,no,18,no,black,no,no,768,1181,3.5.6,legacy,xpyriment,osweb,1.3.13,0,space,right,space,,25430,23804,25430,,2,legacy,864,1462,24,864,24,0,0,1536,1646557518930,1024,2,48000,-16,experiment,p9sarr2.png,1,odd,Win32,173,135799,132783,173,173,187347,188853,182345,137317,182345,173,,,,,,visual_patterns,0,0,0,yes,1366
undefined,undefined,undefined,undefined,white,no,Mozilla,Netscape,"5.0 (Windows NT 10.0; Win64; x64) AppleWebKit/537.36 (KHTML, like Gecko) Chrome/98.0.4758.102 Safari/537.36",xpyriment,legacy,legacy,0,uniform,0,0,0,0,24,24,24,0,0,4,4,4,4,4,0,4,0,,,,,,0,,06-02-22,06-02-22,10:05:13,Sun Mar 06 2022 10:05:13 GMT+0100 (Central European Standard Time),The main experiment item,yes,0,0,C:/Users/rrics/Documents/!!ResearchBMECOGSCI/gnet,0,0,0,prototype5.png,no,mono,no,18,no,black,no,no,768,1181,3.5.6,legacy,xpyriment,osweb,1.3.13,0,space,right,space,,25430,23804,25430,,2,legacy,864,1462,24,864,24,0,0,1536,1646557518930,1024,2,48000,-16,experiment,p4sarr2.png,1,odd,Win32,173,135799,132783,173,173,193870,195387,188869,137317,188869,173,,,,,,visual_patterns,0,0,0,yes,1366
undefined,undefined,undefined,undefined,white,no,Mozilla,Netscape,"5.0 (Windows NT 10.0; Win64; x64) AppleWebKit/537.36 (KHTML, like Gecko) Chrome/98.0.4758.102 Safari/537.36",xpyriment,legacy,legacy,0,uniform,0,0,0,0,24,24,24,0,0,5,5,5,5,5,0,5,0,,,,,,0,,06-02-22,06-02-22,10:05:13,Sun Mar 06 2022 10:05:13 GMT+0100 (Central European Standard Time),The main experiment item,yes,0,0,C:/Users/rrics/Documents/!!ResearchBMECOGSCI/gnet,0,0,0,prototype5.png,no,mono,no,18,no,black,no,no,768,1181,3.5.6,legacy,xpyriment,osweb,1.3.13,0,space,right,space,,25430,23804,25430,,2,legacy,864,1462,24,864,24,0,0,1536,1646557518930,1024,2,48000,-16,experiment,p4sarrshacol2.png,1,odd,Win32,173,135799,132783,173,173,200397,201904,195396,137317,195396,173,,,,,,visual_patterns,0,0,0,yes,1366
undefined,undefined,undefined,undefined,white,no,Mozilla,Netscape,"5.0 (Windows NT 10.0; Win64; x64) AppleWebKit/537.36 (KHTML, like Gecko) Chrome/98.0.4758.102 Safari/537.36",xpyriment,legacy,legacy,0,uniform,0,0,0,0,24,24,24,0,0,6,6,6,6,6,0,6,0,,,,,,0,,06-02-22,06-02-22,10:05:13,Sun Mar 06 2022 10:05:13 GMT+0100 (Central European Standard Time),The main experiment item,yes,0,0,C:/Users/rrics/Documents/!!ResearchBMECOGSCI/gnet,0,0,0,prototype5.png,no,mono,no,18,no,black,no,no,768,1181,3.5.6,legacy,xpyriment,osweb,1.3.13,0,space,right,space,,25430,23804,25430,,2,legacy,864,1462,24,864,24,0,0,1536,1646557518930,1024,2,48000,-16,experiment,p5sarrsha2.png,1,odd,Win32,173,135799,132783,173,173,206916,208421,201913,137317,201913,173,,,,,,visual_patterns,0,0,0,yes,1366
undefined,undefined,undefined,undefined,white,no,Mozilla,Netscape,"5.0 (Windows NT 10.0; Win64; x64) AppleWebKit/537.36 (KHTML, like Gecko) Chrome/98.0.4758.102 Safari/537.36",xpyriment,legacy,legacy,0,uniform,0,0,0,0,24,24,24,0,0,7,7,7,7,7,0,7,0,,,,,,0,,06-02-22,06-02-22,10:05:13,Sun Mar 06 2022 10:05:13 GMT+0100 (Central European Standard Time),The main experiment item,yes,0,0,C:/Users/rrics/Documents/!!ResearchBMECOGSCI/gnet,0,0,0,prototype5.png,no,mono,no,18,no,black,no,no,768,1181,3.5.6,legacy,xpyriment,osweb,1.3.13,0,space,right,space,,25430,23804,25430,,2,legacy,864,1462,24,864,24,0,0,1536,1646557518930,1024,2,48000,-16,experiment,p2sarr1.png,1,odd,Win32,173,135799,132783,173,173,213437,214938,208435,137317,208435,173,,,,,,visual_patterns,0,0,0,yes,1366
undefined,undefined,undefined,undefined,white,no,Mozilla,Netscape,"5.0 (Windows NT 10.0; Win64; x64) AppleWebKit/537.36 (KHTML, like Gecko) Chrome/98.0.4758.102 Safari/537.36",xpyriment,legacy,legacy,0,uniform,0,0,0,0,24,24,24,0,0,8,8,8,8,8,0,8,0,,,,,,0,,06-02-22,06-02-22,10:05:13,Sun Mar 06 2022 10:05:13 GMT+0100 (Central European Standard Time),The main experiment item,yes,0,0,C:/Users/rrics/Documents/!!ResearchBMECOGSCI/gnet,0,0,0,prototype5.png,no,mono,no,18,no,black,no,no,768,1181,3.5.6,legacy,xpyriment,osweb,1.3.13,0,space,right,space,,25430,23804,25430,,2,legacy,864,1462,24,864,24,0,0,1536,1646557518930,1024,2,48000,-16,experiment,prototype4.png,1,odd,Win32,173,135799,132783,173,173,219955,221456,214946,137317,214946,173,,,,,,visual_patterns,0,0,0,yes,1366
undefined,undefined,undefined,undefined,white,no,Mozilla,Netscape,"5.0 (Windows NT 10.0; Win64; x64) AppleWebKit/537.36 (KHTML, like Gecko) Chrome/98.0.4758.102 Safari/537.36",xpyriment,legacy,legacy,0,uniform,0,0,0,0,24,24,24,0,0,9,9,9,9,9,0,9,0,,,,,,0,,06-02-22,06-02-22,10:05:13,Sun Mar 06 2022 10:05:13 GMT+0100 (Central European Standard Time),The main experiment item,yes,0,0,C:/Users/rrics/Documents/!!ResearchBMECOGSCI/gnet,0,0,0,prototype5.png,no,mono,no,18,no,black,no,no,768,1181,3.5.6,legacy,xpyriment,osweb,1.3.13,0,space,right,space,,25430,23804,25430,,2,legacy,864,1462,24,864,24,0,0,1536,1646557518930,1024,2,48000,-16,experiment,p5sarrsha1.png,1,odd,Win32,173,135799,132783,173,173,226490,228006,221491,137317,221491,173,,,,,,visual_patterns,0,0,0,yes,1366
undefined,undefined,undefined,undefined,white,no,Mozilla,Netscape,"5.0 (Windows NT 10.0; Win64; x64) AppleWebKit/537.36 (KHTML, like Gecko) Chrome/98.0.4758.102 Safari/537.36",xpyriment,legacy,legacy,0,uniform,0,0,0,0,24,24,24,0,0,10,10,10,10,10,0,10,0,,,,,,0,,06-02-22,06-02-22,10:05:13,Sun Mar 06 2022 10:05:13 GMT+0100 (Central European Standard Time),The main experiment item,yes,0,0,C:/Users/rrics/Documents/!!ResearchBMECOGSCI/gnet,0,0,0,prototype5.png,no,mono,no,18,no,black,no,no,768,1181,3.5.6,legacy,xpyriment,osweb,1.3.13,0,space,right,space,,25430,23804,25430,,2,legacy,864,1462,24,864,24,0,0,1536,1646557518930,1024,2,48000,-16,experiment,p5sarrcol1.png,1,odd,Win32,173,135799,132783,173,173,233017,234523,228017,137317,228017,173,,,,,,visual_patterns,0,0,0,yes,1366
undefined,undefined,undefined,undefined,white,no,Mozilla,Netscape,"5.0 (Windows NT 10.0; Win64; x64) AppleWebKit/537.36 (KHTML, like Gecko) Chrome/98.0.4758.102 Safari/537.36",xpyriment,legacy,legacy,0,uniform,0,0,0,0,24,24,24,0,0,11,11,11,11,11,0,11,0,,,,,,0,,06-02-22,06-02-22,10:05:13,Sun Mar 06 2022 10:05:13 GMT+0100 (Central European Standard Time),The main experiment item,yes,0,0,C:/Users/rrics/Documents/!!ResearchBMECOGSCI/gnet,0,0,0,prototype5.png,no,mono,no,18,no,black,no,no,768,1181,3.5.6,legacy,xpyriment,osweb,1.3.13,0,space,right,space,,25430,23804,25430,,2,legacy,864,1462,24,864,24,0,0,1536,1646557518930,1024,2,48000,-16,experiment,p8sarr2.png,1,odd,Win32,173,135799,132783,173,173,239534,241041,234534,137317,234534,173,,,,,,visual_patterns,0,0,0,yes,1366
undefined,undefined,undefined,undefined,white,no,Mozilla,Netscape,"5.0 (Windows NT 10.0; Win64; x64) AppleWebKit/537.36 (KHTML, like Gecko) Chrome/98.0.4758.102 Safari/537.36",xpyriment,legacy,legacy,0,uniform,0,0,0,0,24,24,24,0,0,12,12,12,12,12,0,12,0,,,,,,0,,06-02-22,06-02-22,10:05:13,Sun Mar 06 2022 10:05:13 GMT+0100 (Central European Standard Time),The main experiment item,yes,0,0,C:/Users/rrics/Documents/!!ResearchBMECOGSCI/gnet,0,0,0,prototype5.png,no,mono,no,18,no,black,no,no,768,1181,3.5.6,legacy,xpyriment,osweb,1.3.13,0,space,right,space,,25430,23804,25430,,2,legacy,864,1462,24,864,24,0,0,1536,1646557518930,1024,2,48000,-16,experiment,p5sarrshacol2.png,1,odd,Win32,173,135799,132783,173,173,246058,247575,241052,137317,241052,173,,,,,,visual_patterns,0,0,0,yes,1366
undefined,undefined,undefined,undefined,white,no,Mozilla,Netscape,"5.0 (Windows NT 10.0; Win64; x64) AppleWebKit/537.36 (KHTML, like Gecko) Chrome/98.0.4758.102 Safari/537.36",xpyriment,legacy,legacy,0,uniform,0,0,0,0,24,24,24,0,0,13,13,13,13,13,0,13,0,,,,,,0,,06-02-22,06-02-22,10:05:13,Sun Mar 06 2022 10:05:13 GMT+0100 (Central European Standard Time),The main experiment item,yes,0,0,C:/Users/rrics/Documents/!!ResearchBMECOGSCI/gnet,0,0,0,prototype5.png,no,mono,no,18,no,black,no,no,768,1181,3.5.6,legacy,xpyriment,osweb,1.3.13,0,space,right,space,,25430,23804,25430,,2,legacy,864,1462,24,864,24,0,0,1536,1646557518930,1024,2,48000,-16,experiment,p8sarr1.png,1,odd,Win32,173,135799,132783,173,173,252592,254108,247594,137317,247594,173,,,,,,visual_patterns,0,0,0,yes,1366
undefined,undefined,undefined,undefined,white,no,Mozilla,Netscape,"5.0 (Windows NT 10.0; Win64; x64) AppleWebKit/537.36 (KHTML, like Gecko) Chrome/98.0.4758.102 Safari/537.36",xpyriment,legacy,legacy,0,uniform,0,0,0,0,24,24,24,0,0,14,14,14,14,14,0,14,0,,,,,,0,,06-02-22,06-02-22,10:05:13,Sun Mar 06 2022 10:05:13 GMT+0100 (Central European Standard Time),The main experiment item,yes,0,0,C:/Users/rrics/Documents/!!ResearchBMECOGSCI/gnet,0,0,0,prototype5.png,no,mono,no,18,no,black,no,no,768,1181,3.5.6,legacy,xpyriment,osweb,1.3.13,0,space,right,space,,25430,23804,25430,,2,legacy,864,1462,24,864,24,0,0,1536,1646557518930,1024,2,48000,-16,experiment,p3sarrcol1.png,1,odd,Win32,173,135799,132783,173,173,259120,260626,254121,137317,254121,173,,,,,,visual_patterns,0,0,0,yes,1366
undefined,undefined,undefined,undefined,white,no,Mozilla,Netscape,"5.0 (Windows NT 10.0; Win64; x64) AppleWebKit/537.36 (KHTML, like Gecko) Chrome/98.0.4758.102 Safari/537.36",xpyriment,legacy,legacy,0,uniform,0,0,0,0,24,24,24,0,0,15,15,15,15,15,0,15,0,,,,,,0,,06-02-22,06-02-22,10:05:13,Sun Mar 06 2022 10:05:13 GMT+0100 (Central European Standard Time),The main experiment item,yes,0,0,C:/Users/rrics/Documents/!!ResearchBMECOGSCI/gnet,0,0,0,prototype5.png,no,mono,no,18,no,black,no,no,768,1181,3.5.6,legacy,xpyriment,osweb,1.3.13,0,space,right,space,,25430,23804,25430,,2,legacy,864,1462,24,864,24,0,0,1536,1646557518930,1024,2,48000,-16,experiment,prototype1.png,1,odd,Win32,173,135799,132783,173,173,265633,267143,260634,137317,260633,173,,,,,,visual_patterns,0,0,0,yes,1366
undefined,undefined,undefined,undefined,white,no,Mozilla,Netscape,"5.0 (Windows NT 10.0; Win64; x64) AppleWebKit/537.36 (KHTML, like Gecko) Chrome/98.0.4758.102 Safari/537.36",xpyriment,legacy,legacy,0,uniform,0,0,0,0,24,24,24,0,0,16,16,16,16,16,0,16,0,,,,,,0,,06-02-22,06-02-22,10:05:13,Sun Mar 06 2022 10:05:13 GMT+0100 (Central European Standard Time),The main experiment item,yes,0,0,C:/Users/rrics/Documents/!!ResearchBMECOGSCI/gnet,0,0,0,prototype5.png,no,mono,no,18,no,black,no,no,768,1181,3.5.6,legacy,xpyriment,osweb,1.3.13,0,space,right,space,,25430,23804,25430,,2,legacy,864,1462,24,864,24,0,0,1536,1646557518930,1024,2,48000,-16,experiment,p2sarr2.png,1,odd,Win32,173,135799,132783,173,173,272154,273660,267154,137317,267154,173,,,,,,visual_patterns,0,0,0,yes,1366
undefined,undefined,undefined,undefined,white,no,Mozilla,Netscape,"5.0 (Windows NT 10.0; Win64; x64) AppleWebKit/537.36 (KHTML, like Gecko) Chrome/98.0.4758.102 Safari/537.36",xpyriment,legacy,legacy,0,uniform,0,0,0,0,24,24,24,0,0,17,17,17,17,17,0,17,0,,,,,,0,,06-02-22,06-02-22,10:05:13,Sun Mar 06 2022 10:05:13 GMT+0100 (Central European Standard Time),The main experiment item,yes,0,0,C:/Users/rrics/Documents/!!ResearchBMECOGSCI/gnet,0,0,0,prototype5.png,no,mono,no,18,no,black,no,no,768,1181,3.5.6,legacy,xpyriment,osweb,1.3.13,0,space,right,space,,25430,23804,25430,,2,legacy,864,1462,24,864,24,0,0,1536,1646557518930,1024,2,48000,-16,experiment,p3sarrsha2.png,1,odd,Win32,173,135799,132783,173,173,278669,280177,273669,137317,273669,173,,,,,,visual_patterns,0,0,0,yes,1366
undefined,undefined,undefined,undefined,white,no,Mozilla,Netscape,"5.0 (Windows NT 10.0; Win64; x64) AppleWebKit/537.36 (KHTML, like Gecko) Chrome/98.0.4758.102 Safari/537.36",xpyriment,legacy,legacy,0,uniform,0,0,0,0,24,24,24,0,0,18,18,18,18,18,0,18,0,,,,,,0,,06-02-22,06-02-22,10:05:13,Sun Mar 06 2022 10:05:13 GMT+0100 (Central European Standard Time),The main experiment item,yes,0,0,C:/Users/rrics/Documents/!!ResearchBMECOGSCI/gnet,0,0,0,prototype5.png,no,mono,no,18,no,black,no,no,768,1181,3.5.6,legacy,xpyriment,osweb,1.3.13,0,space,right,space,,25430,23804,25430,,2,legacy,864,1462,24,864,24,0,0,1536,1646557518930,1024,2,48000,-16,experiment,prototype4.png,1,odd,Win32,173,135799,132783,173,173,285189,286695,280184,137317,280184,173,,,,,,visual_patterns,0,0,0,yes,1366
undefined,undefined,undefined,undefined,white,no,Mozilla,Netscape,"5.0 (Windows NT 10.0; Win64; x64) AppleWebKit/537.36 (KHTML, like Gecko) Chrome/98.0.4758.102 Safari/537.36",xpyriment,legacy,legacy,0,uniform,0,0,0,0,24,24,24,0,0,19,19,19,19,19,0,19,0,,,,,,0,,06-02-22,06-02-22,10:05:13,Sun Mar 06 2022 10:05:13 GMT+0100 (Central European Standard Time),The main experiment item,yes,0,0,C:/Users/rrics/Documents/!!ResearchBMECOGSCI/gnet,0,0,0,prototype5.png,no,mono,no,18,no,black,no,no,768,1181,3.5.6,legacy,xpyriment,osweb,1.3.13,0,space,right,space,,25430,23804,25430,,2,legacy,864,1462,24,864,24,0,0,1536,1646557518930,1024,2,48000,-16,experiment,p3sarrsha1.png,1,odd,Win32,173,135799,132783,173,173,291705,293212,286705,137317,286705,173,,,,,,visual_patterns,0,0,0,yes,1366
undefined,undefined,undefined,undefined,white,no,Mozilla,Netscape,"5.0 (Windows NT 10.0; Win64; x64) AppleWebKit/537.36 (KHTML, like Gecko) Chrome/98.0.4758.102 Safari/537.36",xpyriment,legacy,legacy,0,uniform,0,0,0,0,24,24,24,0,0,20,20,20,20,20,0,20,0,,,,,,0,,06-02-22,06-02-22,10:05:13,Sun Mar 06 2022 10:05:13 GMT+0100 (Central European Standard Time),The main experiment item,yes,0,0,C:/Users/rrics/Documents/!!ResearchBMECOGSCI/gnet,0,0,0,prototype5.png,no,mono,no,18,no,black,no,no,768,1181,3.5.6,legacy,xpyriment,osweb,1.3.13,0,space,right,space,,25430,23804,25430,,2,legacy,864,1462,24,864,24,0,0,1536,1646557518930,1024,2,48000,-16,experiment,prototype2.png,1,odd,Win32,173,135799,132783,173,173,298225,299729,293219,137317,293219,173,,,,,,visual_patterns,0,0,0,yes,1366
undefined,undefined,undefined,undefined,white,no,Mozilla,Netscape,"5.0 (Windows NT 10.0; Win64; x64) AppleWebKit/537.36 (KHTML, like Gecko) Chrome/98.0.4758.102 Safari/537.36",xpyriment,legacy,legacy,0,uniform,0,0,0,0,24,24,24,0,0,21,21,21,21,21,0,21,0,,,,,,0,,06-02-22,06-02-22,10:05:13,Sun Mar 06 2022 10:05:13 GMT+0100 (Central European Standard Time),The main experiment item,yes,0,0,C:/Users/rrics/Documents/!!ResearchBMECOGSCI/gnet,0,0,0,prototype5.png,no,mono,no,18,no,black,no,no,768,1181,3.5.6,legacy,xpyriment,osweb,1.3.13,0,space,right,space,,25430,23804,25430,,2,legacy,864,1462,24,864,24,0,0,1536,1646557518930,1024,2,48000,-16,experiment,p4sarrcol2.png,1,odd,Win32,173,135799,132783,173,173,304742,306246,299742,137317,299742,173,,,,,,visual_patterns,0,0,0,yes,1366
undefined,undefined,undefined,undefined,white,no,Mozilla,Netscape,"5.0 (Windows NT 10.0; Win64; x64) AppleWebKit/537.36 (KHTML, like Gecko) Chrome/98.0.4758.102 Safari/537.36",xpyriment,legacy,legacy,0,uniform,0,0,0,0,24,24,24,0,0,22,22,22,22,22,0,22,0,,,,,,0,,06-02-22,06-02-22,10:05:13,Sun Mar 06 2022 10:05:13 GMT+0100 (Central European Standard Time),The main experiment item,yes,0,0,C:/Users/rrics/Documents/!!ResearchBMECOGSCI/gnet,0,0,0,prototype5.png,no,mono,no,18,no,black,no,no,768,1181,3.5.6,legacy,xpyriment,osweb,1.3.13,0,space,right,space,,25430,23804,25430,,2,legacy,864,1462,24,864,24,0,0,1536,1646557518930,1024,2,48000,-16,experiment,p5sarrshacol1.png,1,odd,Win32,173,135799,132783,173,173,311257,312764,306255,137317,306255,173,,,,,,visual_patterns,0,0,0,yes,1366
undefined,undefined,undefined,undefined,white,no,Mozilla,Netscape,"5.0 (Windows NT 10.0; Win64; x64) AppleWebKit/537.36 (KHTML, like Gecko) Chrome/98.0.4758.102 Safari/537.36",xpyriment,legacy,legacy,0,uniform,0,0,0,0,24,24,24,0,0,23,23,23,23,23,0,23,0,,,,,,0,,06-02-22,06-02-22,10:05:13,Sun Mar 06 2022 10:05:13 GMT+0100 (Central European Standard Time),The main experiment item,yes,0,0,C:/Users/rrics/Documents/!!ResearchBMECOGSCI/gnet,0,0,0,prototype5.png,no,mono,no,18,no,black,no,no,768,1181,3.5.6,legacy,xpyriment,osweb,1.3.13,0,space,right,space,,25430,23804,25430,,2,legacy,864,1462,24,864,24,0,0,1536,1646557518930,1024,2,48000,-16,experiment,prototype2.png,1,odd,Win32,173,135799,132783,173,173,317774,319281,312771,137317,312771,173,,,,,,visual_patterns,0,0,0,yes,1366
undefined,undefined,undefined,undefined,white,no,Mozilla,Netscape,"5.0 (Windows NT 10.0; Win64; x64) AppleWebKit/537.36 (KHTML, like Gecko) Chrome/98.0.4758.102 Safari/537.36",xpyriment,legacy,legacy,0,uniform,0,0,0,0,24,24,24,0,0,24,24,24,24,24,0,24,0,,,,,,0,,06-02-22,06-02-22,10:05:13,Sun Mar 06 2022 10:05:13 GMT+0100 (Central European Standard Time),The main experiment item,yes,0,0,C:/Users/rrics/Documents/!!ResearchBMECOGSCI/gnet,0,0,0,prototype5.png,no,mono,no,18,no,black,no,no,768,1181,3.5.6,legacy,xpyriment,osweb,1.3.13,0,space,right,space,,25430,23804,25430,,2,legacy,864,1462,24,864,24,0,0,1536,1646557518930,1024,2,48000,-16,experiment,p4sarrsha2.png,1,odd,Win32,173,135799,132783,173,173,324305,325815,319302,137317,319302,173,,,,,,visual_patterns,0,0,0,yes,1366
undefined,undefined,undefined,undefined,white,no,Mozilla,Netscape,"5.0 (Windows NT 10.0; Win64; x64) AppleWebKit/537.36 (KHTML, like Gecko) Chrome/98.0.4758.102 Safari/537.36",xpyriment,legacy,legacy,0,uniform,0,0,0,0,24,24,24,0,0,25,25,25,25,25,0,25,0,,,,,,0,,06-02-22,06-02-22,10:05:13,Sun Mar 06 2022 10:05:13 GMT+0100 (Central European Standard Time),The main experiment item,yes,0,0,C:/Users/rrics/Documents/!!ResearchBMECOGSCI/gnet,0,0,0,prototype5.png,no,mono,no,18,no,black,no,no,768,1181,3.5.6,legacy,xpyriment,osweb,1.3.13,0,space,right,space,,25430,23804,25430,,2,legacy,864,1462,24,864,24,0,0,1536,1646557518930,1024,2,48000,-16,experiment,p9sarr1.png,1,odd,Win32,173,135799,132783,173,173,330829,332332,325825,137317,325825,173,,,,,,visual_patterns,0,0,0,yes,1366
undefined,undefined,undefined,undefined,white,no,Mozilla,Netscape,"5.0 (Windows NT 10.0; Win64; x64) AppleWebKit/537.36 (KHTML, like Gecko) Chrome/98.0.4758.102 Safari/537.36",xpyriment,legacy,legacy,0,uniform,0,0,0,0,24,24,24,0,0,26,26,26,26,26,0,26,0,,,,,,0,,06-02-22,06-02-22,10:05:13,Sun Mar 06 2022 10:05:13 GMT+0100 (Central European Standard Time),The main experiment item,yes,0,0,C:/Users/rrics/Documents/!!ResearchBMECOGSCI/gnet,0,0,0,prototype5.png,no,mono,no,18,no,black,no,no,768,1181,3.5.6,legacy,xpyriment,osweb,1.3.13,0,space,right,space,,25430,23804,25430,,2,legacy,864,1462,24,864,24,0,0,1536,1646557518930,1024,2,48000,-16,experiment,prototype1.png,1,odd,Win32,173,135799,132783,173,173,337343,338849,332339,137317,332339,173,,,,,,visual_patterns,0,0,0,yes,1366
undefined,undefined,undefined,undefined,white,no,Mozilla,Netscape,"5.0 (Windows NT 10.0; Win64; x64) AppleWebKit/537.36 (KHTML, like Gecko) Chrome/98.0.4758.102 Safari/537.36",xpyriment,legacy,legacy,0,uniform,0,0,0,0,24,24,24,0,0,27,27,27,27,27,0,27,0,,,,,,0,,06-02-22,06-02-22,10:05:13,Sun Mar 06 2022 10:05:13 GMT+0100 (Central European Standard Time),The main experiment item,yes,0,0,C:/Users/rrics/Documents/!!ResearchBMECOGSCI/gnet,0,0,0,prototype5.png,no,mono,no,18,no,black,no,no,768,1181,3.5.6,legacy,xpyriment,osweb,1.3.13,0,space,right,space,,25430,23804,25430,,2,legacy,864,1462,24,864,24,0,0,1536,1646557518930,1024,2,48000,-16,experiment,p4sarrcol1.png,1,odd,Win32,173,135799,132783,173,173,343860,345366,338862,137317,338862,173,,,,,,visual_patterns,0,0,0,yes,1366
undefined,undefined,undefined,undefined,white,no,Mozilla,Netscape,"5.0 (Windows NT 10.0; Win64; x64) AppleWebKit/537.36 (KHTML, like Gecko) Chrome/98.0.4758.102 Safari/537.36",xpyriment,legacy,legacy,0,uniform,0,0,0,0,24,24,24,0,0,28,28,28,28,28,0,28,0,,,,,,0,,06-02-22,06-02-22,10:05:13,Sun Mar 06 2022 10:05:13 GMT+0100 (Central European Standard Time),The main experiment item,yes,0,0,C:/Users/rrics/Documents/!!ResearchBMECOGSCI/gnet,0,0,0,prototype5.png,no,mono,no,18,no,black,no,no,768,1181,3.5.6,legacy,xpyriment,osweb,1.3.13,0,space,right,space,,25430,23804,25430,,2,legacy,864,1462,24,864,24,0,0,1536,1646557518930,1024,2,48000,-16,experiment,prototype4.png,1,odd,Win32,173,135799,132783,173,173,350377,351884,345374,137317,345374,173,,,,,,visual_patterns,0,0,0,yes,1366
undefined,undefined,undefined,undefined,white,no,Mozilla,Netscape,"5.0 (Windows NT 10.0; Win64; x64) AppleWebKit/537.36 (KHTML, like Gecko) Chrome/98.0.4758.102 Safari/537.36",xpyriment,legacy,legacy,0,uniform,0,0,0,0,24,24,24,0,0,29,29,29,29,29,0,29,0,,,,,,0,,06-02-22,06-02-22,10:05:13,Sun Mar 06 2022 10:05:13 GMT+0100 (Central European Standard Time),The main experiment item,yes,0,0,C:/Users/rrics/Documents/!!ResearchBMECOGSCI/gnet,0,0,0,prototype5.png,no,mono,no,18,no,black,no,no,768,1181,3.5.6,legacy,xpyriment,osweb,1.3.13,0,space,right,space,,25430,23804,25430,,2,legacy,864,1462,24,864,24,0,0,1536,1646557518930,1024,2,48000,-16,experiment,prototype5.png,1,odd,Win32,173,135799,132783,173,173,356895,358401,351891,137317,351891,173,,,,,,visual_patterns,0,0,0,yes,1366
undefined,undefined,undefined,undefined,white,no,Mozilla,Netscape,"5.0 (Windows NT 10.0; Win64; x64) AppleWebKit/537.36 (KHTML, like Gecko) Chrome/98.0.4758.102 Safari/537.36",xpyriment,legacy,legacy,0,uniform,0,0,0,0,24,24,24,0,0,30,30,30,30,30,0,30,0,,,,,,0,,06-02-22,06-02-22,10:05:13,Sun Mar 06 2022 10:05:13 GMT+0100 (Central European Standard Time),The main experiment item,yes,0,0,C:/Users/rrics/Documents/!!ResearchBMECOGSCI/gnet,0,0,0,prototype5.png,no,mono,no,18,no,black,no,no,768,1181,3.5.6,legacy,xpyriment,osweb,1.3.13,0,space,right,space,,25430,23804,25430,,2,legacy,864,1462,24,864,24,0,0,1536,1646557518930,1024,2,48000,-16,experiment,p5sarrcol2.png,1,odd,Win32,173,135799,132783,173,173,363412,364918,358411,137317,358411,173,,,,,,visual_patterns,0,0,0,yes,1366
undefined,undefined,undefined,undefined,white,no,Mozilla,Netscape,"5.0 (Windows NT 10.0; Win64; x64) AppleWebKit/537.36 (KHTML, like Gecko) Chrome/98.0.4758.102 Safari/537.36",xpyriment,legacy,legacy,0,uniform,0,0,0,0,24,24,24,0,0,31,31,31,31,31,0,31,0,,,,,,0,,06-02-22,06-02-22,10:05:13,Sun Mar 06 2022 10:05:13 GMT+0100 (Central European Standard Time),The main experiment item,yes,0,0,C:/Users/rrics/Documents/!!ResearchBMECOGSCI/gnet,0,0,0,prototype5.png,no,mono,no,18,no,black,no,no,768,1181,3.5.6,legacy,xpyriment,osweb,1.3.13,0,space,right,space,,25430,23804,25430,,2,legacy,864,1462,24,864,24,0,0,1536,1646557518930,1024,2,48000,-16,experiment,p2sarrsha2.png,1,odd,Win32,173,135799,132783,173,173,369929,371435,364926,137317,364926,173,,,,,,visual_patterns,0,0,0,yes,1366
undefined,undefined,undefined,undefined,white,no,Mozilla,Netscape,"5.0 (Windows NT 10.0; Win64; x64) AppleWebKit/537.36 (KHTML, like Gecko) Chrome/98.0.4758.102 Safari/537.36",xpyriment,legacy,legacy,0,uniform,0,0,0,0,24,24,24,0,0,32,32,32,32,32,0,32,0,,,,,,0,,06-02-22,06-02-22,10:05:13,Sun Mar 06 2022 10:05:13 GMT+0100 (Central European Standard Time),The main experiment item,yes,0,0,C:/Users/rrics/Documents/!!ResearchBMECOGSCI/gnet,0,0,0,prototype5.png,no,mono,no,18,no,black,no,no,768,1181,3.5.6,legacy,xpyriment,osweb,1.3.13,0,space,right,space,,25430,23804,25430,,2,legacy,864,1462,24,864,24,0,0,1536,1646557518930,1024,2,48000,-16,experiment,p5sarr1.png,1,odd,Win32,173,135799,132783,173,173,376446,377953,371445,137317,371445,173,,,,,,visual_patterns,0,0,0,yes,1366
undefined,undefined,undefined,undefined,white,no,Mozilla,Netscape,"5.0 (Windows NT 10.0; Win64; x64) AppleWebKit/537.36 (KHTML, like Gecko) Chrome/98.0.4758.102 Safari/537.36",xpyriment,legacy,legacy,0,uniform,0,0,0,0,24,24,24,0,0,33,33,33,33,33,0,33,0,,,,,,0,,06-02-22,06-02-22,10:05:13,Sun Mar 06 2022 10:05:13 GMT+0100 (Central European Standard Time),The main experiment item,yes,0,0,C:/Users/rrics/Documents/!!ResearchBMECOGSCI/gnet,0,0,0,prototype5.png,no,mono,no,18,no,black,no,no,768,1181,3.5.6,legacy,xpyriment,osweb,1.3.13,0,space,right,space,,25430,23804,25430,,2,legacy,864,1462,24,864,24,0,0,1536,1646557518930,1024,2,48000,-16,experiment,p3sarrshacol1.png,1,odd,Win32,173,135799,132783,173,173,382963,384470,377962,137317,377962,173,,,,,,visual_patterns,0,0,0,yes,1366
undefined,undefined,undefined,undefined,white,no,Mozilla,Netscape,"5.0 (Windows NT 10.0; Win64; x64) AppleWebKit/537.36 (KHTML, like Gecko) Chrome/98.0.4758.102 Safari/537.36",xpyriment,legacy,legacy,0,uniform,0,0,0,0,24,24,24,0,0,34,34,34,34,34,0,34,0,,,,,,0,,06-02-22,06-02-22,10:05:13,Sun Mar 06 2022 10:05:13 GMT+0100 (Central European Standard Time),The main experiment item,yes,0,0,C:/Users/rrics/Documents/!!ResearchBMECOGSCI/gnet,0,0,0,prototype5.png,no,mono,no,18,no,black,no,no,768,1181,3.5.6,legacy,xpyriment,osweb,1.3.13,0,space,right,space,,25430,23804,25430,,2,legacy,864,1462,24,864,24,0,0,1536,1646557518930,1024,2,48000,-16,experiment,prototype1.png,1,odd,Win32,173,135799,132783,173,173,389520,391021,384512,137317,384512,173,,,,,,visual_patterns,0,0,0,yes,1366
undefined,undefined,undefined,undefined,white,no,Mozilla,Netscape,"5.0 (Windows NT 10.0; Win64; x64) AppleWebKit/537.36 (KHTML, like Gecko) Chrome/98.0.4758.102 Safari/537.36",xpyriment,legacy,legacy,0,uniform,0,0,0,0,24,24,24,0,0,35,35,35,35,35,0,35,0,,,,,,0,,06-02-22,06-02-22,10:05:13,Sun Mar 06 2022 10:05:13 GMT+0100 (Central European Standard Time),The main experiment item,yes,0,0,C:/Users/rrics/Documents/!!ResearchBMECOGSCI/gnet,0,0,0,prototype5.png,no,mono,no,18,no,black,no,no,768,1181,3.5.6,legacy,xpyriment,osweb,1.3.13,0,space,right,space,,25430,23804,25430,,2,legacy,864,1462,24,864,24,0,0,1536,1646557518930,1024,2,48000,-16,experiment,p4sarrshacol1.png,1,odd,Win32,173,135799,132783,173,173,396031,397538,391036,137317,391036,173,,,,,,visual_patterns,0,0,0,yes,1366
undefined,undefined,undefined,undefined,white,no,Mozilla,Netscape,"5.0 (Windows NT 10.0; Win64; x64) AppleWebKit/537.36 (KHTML, like Gecko) Chrome/98.0.4758.102 Safari/537.36",xpyriment,legacy,legacy,0,uniform,0,0,0,0,24,24,24,0,0,36,36,36,36,36,0,36,0,,,,,,0,,06-02-22,06-02-22,10:05:13,Sun Mar 06 2022 10:05:13 GMT+0100 (Central European Standard Time),The main experiment item,yes,0,0,C:/Users/rrics/Documents/!!ResearchBMECOGSCI/gnet,0,0,0,prototype5.png,no,mono,no,18,no,black,no,no,768,1181,3.5.6,legacy,xpyriment,osweb,1.3.13,0,space,right,space,,25430,23804,25430,,2,legacy,864,1462,24,864,24,0,0,1536,1646557518930,1024,2,48000,-16,experiment,prototype3.png,1,odd,Win32,173,135799,132783,173,173,402556,404072,397558,137317,397558,173,,,,,,visual_patterns,0,0,0,yes,1366
undefined,undefined,undefined,undefined,white,no,Mozilla,Netscape,"5.0 (Windows NT 10.0; Win64; x64) AppleWebKit/537.36 (KHTML, like Gecko) Chrome/98.0.4758.102 Safari/537.36",xpyriment,legacy,legacy,0,uniform,0,0,0,0,24,24,24,0,0,37,37,37,37,37,0,37,0,,,,,,0,,06-02-22,06-02-22,10:05:13,Sun Mar 06 2022 10:05:13 GMT+0100 (Central European Standard Time),The main experiment item,yes,0,0,C:/Users/rrics/Documents/!!ResearchBMECOGSCI/gnet,0,0,0,prototype5.png,no,mono,no,18,no,black,no,no,768,1181,3.5.6,legacy,xpyriment,osweb,1.3.13,0,space,right,space,,25430,23804,25430,,2,legacy,864,1462,24,864,24,0,0,1536,1646557518930,1024,2,48000,-16,experiment,prototype3.png,1,odd,Win32,173,135799,132783,173,173,409084,410589,404083,137317,404083,173,,,,,,visual_patterns,0,0,0,yes,1366
undefined,undefined,undefined,undefined,white,no,Mozilla,Netscape,"5.0 (Windows NT 10.0; Win64; x64) AppleWebKit/537.36 (KHTML, like Gecko) Chrome/98.0.4758.102 Safari/537.36",xpyriment,legacy,legacy,0,uniform,0,0,0,0,24,24,24,0,0,38,38,38,38,38,0,38,0,,,,,,0,,06-02-22,06-02-22,10:05:13,Sun Mar 06 2022 10:05:13 GMT+0100 (Central European Standard Time),The main experiment item,yes,0,0,C:/Users/rrics/Documents/!!ResearchBMECOGSCI/gnet,0,0,0,prototype5.png,no,mono,no,18,no,black,no,no,768,1181,3.5.6,legacy,xpyriment,osweb,1.3.13,0,space,right,space,,25430,23804,25430,,2,legacy,864,1462,24,864,24,0,0,1536,1646557518930,1024,2,48000,-16,experiment,p7sarr1.png,1,odd,Win32,173,135799,132783,173,173,415600,417106,410599,137317,410599,173,,,,,,visual_patterns,0,0,0,yes,1366
undefined,undefined,undefined,undefined,white,no,Mozilla,Netscape,"5.0 (Windows NT 10.0; Win64; x64) AppleWebKit/537.36 (KHTML, like Gecko) Chrome/98.0.4758.102 Safari/537.36",xpyriment,legacy,legacy,0,uniform,0,0,0,0,24,24,24,0,0,39,39,39,39,39,0,39,0,,,,,,0,,06-02-22,06-02-22,10:05:13,Sun Mar 06 2022 10:05:13 GMT+0100 (Central European Standard Time),The main experiment item,yes,0,0,C:/Users/rrics/Documents/!!ResearchBMECOGSCI/gnet,0,0,0,prototype5.png,no,mono,no,18,no,black,no,no,768,1181,3.5.6,legacy,xpyriment,osweb,1.3.13,0,space,right,space,,25430,23804,25430,,2,legacy,864,1462,24,864,24,0,0,1536,1646557518930,1024,2,48000,-16,experiment,p1sarrsha1.png,1,odd,Win32,173,135799,132783,173,173,422135,423640,417133,137317,417133,173,,,,,,visual_patterns,0,0,0,yes,1366
undefined,undefined,undefined,undefined,white,no,Mozilla,Netscape,"5.0 (Windows NT 10.0; Win64; x64) AppleWebKit/537.36 (KHTML, like Gecko) Chrome/98.0.4758.102 Safari/537.36",xpyriment,legacy,legacy,0,uniform,0,0,0,0,24,24,24,0,0,40,40,40,40,40,0,40,0,,,,,,0,,06-02-22,06-02-22,10:05:13,Sun Mar 06 2022 10:05:13 GMT+0100 (Central European Standard Time),The main experiment item,yes,0,0,C:/Users/rrics/Documents/!!ResearchBMECOGSCI/gnet,0,0,0,prototype5.png,no,mono,no,18,no,black,no,no,768,1181,3.5.6,legacy,xpyriment,osweb,1.3.13,0,space,right,space,,25430,23804,25430,,2,legacy,864,1462,24,864,24,0,0,1536,1646557518930,1024,2,48000,-16,experiment,prototype5.png,1,odd,Win32,173,135799,132783,173,173,428652,430158,423652,137317,423652,173,,,,,,visual_patterns,0,0,0,yes,1366
undefined,undefined,undefined,undefined,white,no,Mozilla,Netscape,"5.0 (Windows NT 10.0; Win64; x64) AppleWebKit/537.36 (KHTML, like Gecko) Chrome/98.0.4758.102 Safari/537.36",xpyriment,legacy,legacy,0,uniform,0,0,0,0,24,24,24,0,0,41,41,41,41,41,0,41,0,,,,,,0,,06-02-22,06-02-22,10:05:13,Sun Mar 06 2022 10:05:13 GMT+0100 (Central European Standard Time),The main experiment item,yes,0,0,C:/Users/rrics/Documents/!!ResearchBMECOGSCI/gnet,0,0,0,prototype5.png,no,mono,no,18,no,black,no,no,768,1181,3.5.6,legacy,xpyriment,osweb,1.3.13,0,space,right,space,,25430,23804,25430,,2,legacy,864,1462,24,864,24,0,0,1536,1646557518930,1024,2,48000,-16,experiment,p3sarrshacol2.png,1,odd,Win32,173,135799,132783,173,173,435176,436692,430175,137317,430175,173,,,,,,visual_patterns,0,0,0,yes,1366
undefined,undefined,undefined,undefined,white,no,Mozilla,Netscape,"5.0 (Windows NT 10.0; Win64; x64) AppleWebKit/537.36 (KHTML, like Gecko) Chrome/98.0.4758.102 Safari/537.36",xpyriment,legacy,legacy,0,uniform,0,0,0,0,24,24,24,0,0,42,42,42,42,42,0,42,0,,,,,,0,,06-02-22,06-02-22,10:05:13,Sun Mar 06 2022 10:05:13 GMT+0100 (Central European Standard Time),The main experiment item,yes,0,0,C:/Users/rrics/Documents/!!ResearchBMECOGSCI/gnet,0,0,0,prototype5.png,no,mono,no,18,no,black,no,no,768,1181,3.5.6,legacy,xpyriment,osweb,1.3.13,0,space,right,space,,25430,23804,25430,,2,legacy,864,1462,24,864,24,0,0,1536,1646557518930,1024,2,48000,-16,experiment,p3sarrcol2.png,1,odd,Win32,173,135799,132783,173,173,441703,443209,436706,137317,436706,173,,,,,,visual_patterns,0,0,0,yes,1366
undefined,undefined,undefined,undefined,white,no,Mozilla,Netscape,"5.0 (Windows NT 10.0; Win64; x64) AppleWebKit/537.36 (KHTML, like Gecko) Chrome/98.0.4758.102 Safari/537.36",xpyriment,legacy,legacy,0,uniform,0,0,0,0,24,24,24,0,0,43,43,43,43,43,0,43,0,,,,,,0,,06-02-22,06-02-22,10:05:13,Sun Mar 06 2022 10:05:13 GMT+0100 (Central European Standard Time),The main experiment item,yes,0,0,C:/Users/rrics/Documents/!!ResearchBMECOGSCI/gnet,0,0,0,prototype5.png,no,mono,no,18,no,black,no,no,768,1181,3.5.6,legacy,xpyriment,osweb,1.3.13,0,space,right,space,,25430,23804,25430,,2,legacy,864,1462,24,864,24,0,0,1536,1646557518930,1024,2,48000,-16,experiment,p3sarr2.png,1,odd,Win32,173,135799,132783,173,173,448224,449726,443228,137317,443228,173,,,,,,visual_patterns,0,0,0,yes,1366
undefined,undefined,undefined,undefined,white,no,Mozilla,Netscape,"5.0 (Windows NT 10.0; Win64; x64) AppleWebKit/537.36 (KHTML, like Gecko) Chrome/98.0.4758.102 Safari/537.36",xpyriment,legacy,legacy,0,uniform,0,0,0,0,24,24,24,0,0,44,44,44,44,44,0,44,0,,,,,,0,,06-02-22,06-02-22,10:05:13,Sun Mar 06 2022 10:05:13 GMT+0100 (Central European Standard Time),The main experiment item,yes,0,0,C:/Users/rrics/Documents/!!ResearchBMECOGSCI/gnet,0,0,0,prototype5.png,no,mono,no,18,no,black,no,no,768,1181,3.5.6,legacy,xpyriment,osweb,1.3.13,0,space,right,space,,25430,23804,25430,,2,legacy,864,1462,24,864,24,0,0,1536,1646557518930,1024,2,48000,-16,experiment,p2sarrsha1.png,1,odd,Win32,173,135799,132783,173,173,454736,456244,449733,137317,449733,173,,,,,,visual_patterns,0,0,0,yes,1366
undefined,undefined,undefined,undefined,white,no,Mozilla,Netscape,"5.0 (Windows NT 10.0; Win64; x64) AppleWebKit/537.36 (KHTML, like Gecko) Chrome/98.0.4758.102 Safari/537.36",xpyriment,legacy,legacy,0,uniform,0,0,0,0,24,24,24,0,0,45,45,45,45,45,0,45,0,,,,,,0,,06-02-22,06-02-22,10:05:13,Sun Mar 06 2022 10:05:13 GMT+0100 (Central European Standard Time),The main experiment item,yes,0,0,C:/Users/rrics/Documents/!!ResearchBMECOGSCI/gnet,0,0,0,prototype5.png,no,mono,no,18,no,black,no,no,768,1181,3.5.6,legacy,xpyriment,osweb,1.3.13,0,space,right,space,,25430,23804,25430,,2,legacy,864,1462,24,864,24,0,0,1536,1646557518930,1024,2,48000,-16,experiment,p4sarrsha1.png,1,odd,Win32,173,135799,132783,173,173,461255,462761,456259,137317,456259,173,,,,,,visual_patterns,0,0,0,yes,1366
undefined,undefined,undefined,undefined,white,no,Mozilla,Netscape,"5.0 (Windows NT 10.0; Win64; x64) AppleWebKit/537.36 (KHTML, like Gecko) Chrome/98.0.4758.102 Safari/537.36",xpyriment,legacy,legacy,0,uniform,0,0,0,0,24,24,24,0,0,46,46,46,46,46,0,46,0,,,,,,0,,06-02-22,06-02-22,10:05:13,Sun Mar 06 2022 10:05:13 GMT+0100 (Central European Standard Time),The main experiment item,yes,0,0,C:/Users/rrics/Documents/!!ResearchBMECOGSCI/gnet,0,0,0,prototype5.png,no,mono,no,18,no,black,no,no,768,1181,3.5.6,legacy,xpyriment,osweb,1.3.13,0,space,right,space,,25430,23804,25430,,2,legacy,864,1462,24,864,24,0,0,1536,1646557518930,1024,2,48000,-16,experiment,p1sarrcol1.png,1,odd,Win32,173,135799,132783,173,173,467774,469278,462775,137317,462775,173,,,,,,visual_patterns,0,0,0,yes,1366
undefined,undefined,undefined,undefined,white,no,Mozilla,Netscape,"5.0 (Windows NT 10.0; Win64; x64) AppleWebKit/537.36 (KHTML, like Gecko) Chrome/98.0.4758.102 Safari/537.36",xpyriment,legacy,legacy,0,uniform,0,0,0,0,24,24,24,0,0,47,47,47,47,47,0,47,0,,,,,,0,,06-02-22,06-02-22,10:05:13,Sun Mar 06 2022 10:05:13 GMT+0100 (Central European Standard Time),The main experiment item,yes,0,0,C:/Users/rrics/Documents/!!ResearchBMECOGSCI/gnet,0,0,0,prototype5.png,no,mono,no,18,no,black,no,no,768,1181,3.5.6,legacy,xpyriment,osweb,1.3.13,0,space,right,space,,25430,23804,25430,,2,legacy,864,1462,24,864,24,0,0,1536,1646557518930,1024,2,48000,-16,experiment,p1sarrsha2.png,1,odd,Win32,173,135799,132783,173,173,474289,475795,469293,137317,469293,173,,,,,,visual_patterns,0,0,0,yes,1366
undefined,undefined,undefined,undefined,white,no,Mozilla,Netscape,"5.0 (Windows NT 10.0; Win64; x64) AppleWebKit/537.36 (KHTML, like Gecko) Chrome/98.0.4758.102 Safari/537.36",xpyriment,legacy,legacy,0,uniform,0,0,0,0,24,24,24,0,0,48,48,48,48,48,0,48,0,,,,,,0,,06-02-22,06-02-22,10:05:13,Sun Mar 06 2022 10:05:13 GMT+0100 (Central European Standard Time),The main experiment item,yes,0,0,C:/Users/rrics/Documents/!!ResearchBMECOGSCI/gnet,0,0,0,prototype5.png,no,mono,no,18,no,black,no,no,768,1181,3.5.6,legacy,xpyriment,osweb,1.3.13,0,space,right,space,,25430,23804,25430,,2,legacy,864,1462,24,864,24,0,0,1536,1646557518930,1024,2,48000,-16,experiment,p7sarr2.png,1,odd,Win32,173,135799,132783,173,173,480810,482312,475812,137317,475812,173,,,,,,visual_patterns,0,0,0,yes,1366
undefined,undefined,undefined,undefined,white,no,Mozilla,Netscape,"5.0 (Windows NT 10.0; Win64; x64) AppleWebKit/537.36 (KHTML, like Gecko) Chrome/98.0.4758.102 Safari/537.36",xpyriment,legacy,legacy,0,uniform,0,0,0,0,24,24,24,0,0,49,49,49,49,49,0,49,0,,,,,,0,,06-02-22,06-02-22,10:05:13,Sun Mar 06 2022 10:05:13 GMT+0100 (Central European Standard Time),The main experiment item,yes,0,0,C:/Users/rrics/Documents/!!ResearchBMECOGSCI/gnet,0,0,0,prototype5.png,no,mono,no,18,no,black,no,no,768,1181,3.5.6,legacy,xpyriment,osweb,1.3.13,0,space,right,space,,25430,23804,25430,,2,legacy,864,1462,24,864,24,0,0,1536,1646557518930,1024,2,48000,-16,experiment,p4sarr1.png,1,odd,Win32,173,135799,132783,173,173,487325,488830,482324,137317,482324,173,,,,,,visual_patterns,0,0,0,yes,1366
undefined,undefined,undefined,undefined,white,no,Mozilla,Netscape,"5.0 (Windows NT 10.0; Win64; x64) AppleWebKit/537.36 (KHTML, like Gecko) Chrome/98.0.4758.102 Safari/537.36",xpyriment,legacy,legacy,0,uniform,0,0,0,0,24,24,24,0,0,50,50,50,50,50,0,50,0,,,,,,0,,06-02-22,06-02-22,10:05:13,Sun Mar 06 2022 10:05:13 GMT+0100 (Central European Standard Time),The main experiment item,yes,0,0,C:/Users/rrics/Documents/!!ResearchBMECOGSCI/gnet,0,0,0,prototype5.png,no,mono,no,18,no,black,no,no,768,1181,3.5.6,legacy,xpyriment,osweb,1.3.13,0,space,right,space,,25430,23804,25430,,2,legacy,864,1462,24,864,24,0,0,1536,1646557518930,1024,2,48000,-16,experiment,p10sarr1.png,1,odd,Win32,173,135799,132783,173,173,493848,495364,488846,137317,488846,173,,,,,,visual_patterns,0,0,0,yes,1366
undefined,undefined,undefined,undefined,white,no,Mozilla,Netscape,"5.0 (Windows NT 10.0; Win64; x64) AppleWebKit/537.36 (KHTML, like Gecko) Chrome/98.0.4758.102 Safari/537.36",xpyriment,legacy,legacy,0,uniform,0,0,0,0,24,24,24,0,0,51,51,51,51,51,0,51,0,,,,,,0,,06-02-22,06-02-22,10:05:13,Sun Mar 06 2022 10:05:13 GMT+0100 (Central European Standard Time),The main experiment item,yes,0,0,C:/Users/rrics/Documents/!!ResearchBMECOGSCI/gnet,0,0,0,prototype5.png,no,mono,no,18,no,black,no,no,768,1181,3.5.6,legacy,xpyriment,osweb,1.3.13,0,space,right,space,,25430,23804,25430,,2,legacy,864,1462,24,864,24,0,0,1536,1646557518930,1024,2,48000,-16,experiment,prototype3.png,1,odd,Win32,173,135799,132783,173,173,500375,501881,495375,137317,495375,173,,,,,,visual_patterns,0,0,0,yes,1366
undefined,undefined,undefined,undefined,white,no,Mozilla,Netscape,"5.0 (Windows NT 10.0; Win64; x64) AppleWebKit/537.36 (KHTML, like Gecko) Chrome/98.0.4758.102 Safari/537.36",xpyriment,legacy,legacy,0,uniform,0,0,0,0,24,24,24,0,0,52,52,52,52,52,0,52,0,,,,,,0,,06-02-22,06-02-22,10:05:13,Sun Mar 06 2022 10:05:13 GMT+0100 (Central European Standard Time),The main experiment item,yes,0,0,C:/Users/rrics/Documents/!!ResearchBMECOGSCI/gnet,0,0,0,prototype5.png,no,mono,no,18,no,black,no,no,768,1181,3.5.6,legacy,xpyriment,osweb,1.3.13,0,space,right,space,,25430,23804,25430,,2,legacy,864,1462,24,864,24,0,0,1536,1646557518930,1024,2,48000,-16,experiment,p1sarr1.png,1,odd,Win32,173,135799,132783,173,173,506891,508398,501896,137317,501896,173,,,,,,visual_patterns,0,0,0,yes,1366
undefined,undefined,undefined,undefined,white,no,Mozilla,Netscape,"5.0 (Windows NT 10.0; Win64; x64) AppleWebKit/537.36 (KHTML, like Gecko) Chrome/98.0.4758.102 Safari/537.36",xpyriment,legacy,legacy,0,uniform,0,0,0,0,24,24,24,0,0,53,53,53,53,53,0,53,0,,,,,,0,,06-02-22,06-02-22,10:05:13,Sun Mar 06 2022 10:05:13 GMT+0100 (Central European Standard Time),The main experiment item,yes,0,0,C:/Users/rrics/Documents/!!ResearchBMECOGSCI/gnet,0,0,0,prototype5.png,no,mono,no,18,no,black,no,no,768,1181,3.5.6,legacy,xpyriment,osweb,1.3.13,0,space,right,space,,25430,23804,25430,,2,legacy,864,1462,24,864,24,0,0,1536,1646557518930,1024,2,48000,-16,experiment,p1sarrcol2.png,1,odd,Win32,173,135799,132783,173,173,513410,514915,508412,137317,508412,173,,,,,,visual_patterns,0,0,0,yes,1366
undefined,undefined,undefined,undefined,white,no,Mozilla,Netscape,"5.0 (Windows NT 10.0; Win64; x64) AppleWebKit/537.36 (KHTML, like Gecko) Chrome/98.0.4758.102 Safari/537.36",xpyriment,legacy,legacy,0,uniform,0,0,0,0,24,24,24,0,0,54,54,54,54,54,0,54,0,,,,,,0,,06-02-22,06-02-22,10:05:13,Sun Mar 06 2022 10:05:13 GMT+0100 (Central European Standard Time),The main experiment item,yes,0,0,C:/Users/rrics/Documents/!!ResearchBMECOGSCI/gnet,0,0,0,prototype5.png,no,mono,no,18,no,black,no,no,768,1181,3.5.6,legacy,xpyriment,osweb,1.3.13,0,space,right,space,,25430,23804,25430,,2,legacy,864,1462,24,864,24,0,0,1536,1646557518930,1024,2,48000,-16,experiment,p2sarrcol2.png,1,odd,Win32,173,135799,132783,173,173,519926,521433,514925,137317,514925,173,,,,,,visual_patterns,0,0,0,yes,1366
undefined,undefined,undefined,undefined,white,no,Mozilla,Netscape,"5.0 (Windows NT 10.0; Win64; x64) AppleWebKit/537.36 (KHTML, like Gecko) Chrome/98.0.4758.102 Safari/537.36",xpyriment,legacy,legacy,0,uniform,0,0,0,0,24,24,24,0,0,55,55,55,55,55,0,55,0,,,,,,0,,06-02-22,06-02-22,10:05:13,Sun Mar 06 2022 10:05:13 GMT+0100 (Central European Standard Time),The main experiment item,yes,0,0,C:/Users/rrics/Documents/!!ResearchBMECOGSCI/gnet,0,0,0,prototype5.png,no,mono,no,18,no,black,no,no,768,1181,3.5.6,legacy,xpyriment,osweb,1.3.13,0,space,right,space,,25430,23804,25430,,2,legacy,864,1462,24,864,24,0,0,1536,1646557518930,1024,2,48000,-16,experiment,prototype4.png,1,odd,Win32,173,135799,132783,173,173,526444,527950,521445,137317,521445,173,,,,,,visual_patterns,0,0,0,yes,1366
undefined,undefined,undefined,undefined,white,no,Mozilla,Netscape,"5.0 (Windows NT 10.0; Win64; x64) AppleWebKit/537.36 (KHTML, like Gecko) Chrome/98.0.4758.102 Safari/537.36",xpyriment,legacy,legacy,0,uniform,0,0,0,0,24,24,24,0,0,56,56,56,56,56,0,56,0,,,,,,0,,06-02-22,06-02-22,10:05:13,Sun Mar 06 2022 10:05:13 GMT+0100 (Central European Standard Time),The main experiment item,yes,0,0,C:/Users/rrics/Documents/!!ResearchBMECOGSCI/gnet,0,0,0,prototype5.png,no,mono,no,18,no,black,no,no,768,1181,3.5.6,legacy,xpyriment,osweb,1.3.13,0,space,right,space,,25430,23804,25430,,2,legacy,864,1462,24,864,24,0,0,1536,1646557518930,1024,2,48000,-16,experiment,p2sarrshacol1.png,1,odd,Win32,173,135799,132783,173,173,532968,534483,527964,137317,527964,173,,,,,,visual_patterns,0,0,0,yes,1366
undefined,undefined,undefined,undefined,white,no,Mozilla,Netscape,"5.0 (Windows NT 10.0; Win64; x64) AppleWebKit/537.36 (KHTML, like Gecko) Chrome/98.0.4758.102 Safari/537.36",xpyriment,legacy,legacy,0,uniform,0,0,0,0,24,24,24,0,0,57,57,57,57,57,0,57,0,,,,,,0,,06-02-22,06-02-22,10:05:13,Sun Mar 06 2022 10:05:13 GMT+0100 (Central European Standard Time),The main experiment item,yes,0,0,C:/Users/rrics/Documents/!!ResearchBMECOGSCI/gnet,0,0,0,prototype5.png,no,mono,no,18,no,black,no,no,768,1181,3.5.6,legacy,xpyriment,osweb,1.3.13,0,space,right,space,,25430,23804,25430,,2,legacy,864,1462,24,864,24,0,0,1536,1646557518930,1024,2,48000,-16,experiment,prototype5.png,1,odd,Win32,173,135799,132783,173,173,539494,541001,534492,137317,534492,173,,,,,,visual_patterns,0,0,0,yes,1366
undefined,undefined,undefined,undefined,white,no,Mozilla,Netscape,"5.0 (Windows NT 10.0; Win64; x64) AppleWebKit/537.36 (KHTML, like Gecko) Chrome/98.0.4758.102 Safari/537.36",xpyriment,legacy,legacy,0,uniform,0,0,0,0,24,24,24,0,0,58,58,58,58,58,0,58,0,,,,,,0,,06-02-22,06-02-22,10:05:13,Sun Mar 06 2022 10:05:13 GMT+0100 (Central European Standard Time),The main experiment item,yes,0,0,C:/Users/rrics/Documents/!!ResearchBMECOGSCI/gnet,0,0,0,prototype5.png,no,mono,no,18,no,black,no,no,768,1181,3.5.6,legacy,xpyriment,osweb,1.3.13,0,space,right,space,,25430,23804,25430,,2,legacy,864,1462,24,864,24,0,0,1536,1646557518930,1024,2,48000,-16,experiment,prototype2.png,1,odd,Win32,173,135799,132783,173,173,546012,547518,541013,137317,541013,173,,,,,,visual_patterns,0,0,0,yes,1366
undefined,undefined,undefined,undefined,white,no,Mozilla,Netscape,"5.0 (Windows NT 10.0; Win64; x64) AppleWebKit/537.36 (KHTML, like Gecko) Chrome/98.0.4758.102 Safari/537.36",xpyriment,legacy,legacy,0,uniform,0,0,0,0,24,24,24,0,0,59,59,59,59,59,0,59,0,,,,,,0,,06-02-22,06-02-22,10:05:13,Sun Mar 06 2022 10:05:13 GMT+0100 (Central European Standard Time),The main experiment item,yes,0,0,C:/Users/rrics/Documents/!!ResearchBMECOGSCI/gnet,0,0,0,prototype5.png,no,mono,no,18,no,black,no,no,768,1181,3.5.6,legacy,xpyriment,osweb,1.3.13,0,space,right,space,,25430,23804,25430,,2,legacy,864,1462,24,864,24,0,0,1536,1646557518930,1024,2,48000,-16,experiment,prototype5.png,1,odd,Win32,173,135799,132783,173,173,552557,554068,547558,137317,547558,173,,,,,,visual_patterns,0,0,0,yes,1366
undefined,undefined,undefined,undefined,white,no,Mozilla,Netscape,"5.0 (Windows NT 10.0; Win64; x64) AppleWebKit/537.36 (KHTML, like Gecko) Chrome/98.0.4758.102 Safari/537.36",xpyriment,legacy,legacy,0,uniform,0,0,0,0,24,24,24,0,0,60,60,60,60,60,0,60,0,,,,,,0,,06-02-22,06-02-22,10:05:13,Sun Mar 06 2022 10:05:13 GMT+0100 (Central European Standard Time),The main experiment item,yes,0,0,C:/Users/rrics/Documents/!!ResearchBMECOGSCI/gnet,0,0,0,prototype5.png,no,mono,no,18,no,black,no,no,768,1181,3.5.6,legacy,xpyriment,osweb,1.3.13,0,space,right,space,,25430,23804,25430,,2,legacy,864,1462,24,864,24,0,0,1536,1646557518930,1024,2,48000,-16,experiment,p1sarrshacol2.png,1,odd,Win32,173,135799,132783,173,173,559076,560586,554081,137317,554081,173,,,,,,visual_patterns,0,0,0,yes,1366
undefined,undefined,undefined,undefined,white,no,Mozilla,Netscape,"5.0 (Windows NT 10.0; Win64; x64) AppleWebKit/537.36 (KHTML, like Gecko) Chrome/98.0.4758.102 Safari/537.36",xpyriment,legacy,legacy,0,uniform,0,0,0,0,24,24,24,0,0,61,61,61,61,61,0,61,0,,,,,,0,,06-02-22,06-02-22,10:05:13,Sun Mar 06 2022 10:05:13 GMT+0100 (Central European Standard Time),The main experiment item,yes,0,0,C:/Users/rrics/Documents/!!ResearchBMECOGSCI/gnet,0,0,0,prototype5.png,no,mono,no,18,no,black,no,no,768,1181,3.5.6,legacy,xpyriment,osweb,1.3.13,0,space,right,space,,25430,23804,25430,,2,legacy,864,1462,24,864,24,0,0,1536,1646557518930,1024,2,48000,-16,experiment,p2sarrcol1.png,1,odd,Win32,173,135799,132783,173,173,565603,567119,560603,137317,560603,173,,,,,,visual_patterns,0,0,0,yes,1366
undefined,undefined,undefined,undefined,white,no,Mozilla,Netscape,"5.0 (Windows NT 10.0; Win64; x64) AppleWebKit/537.36 (KHTML, like Gecko) Chrome/98.0.4758.102 Safari/537.36",xpyriment,legacy,legacy,0,uniform,0,0,0,0,24,24,24,0,0,62,62,62,62,62,0,62,0,,,,,,0,,06-02-22,06-02-22,10:05:13,Sun Mar 06 2022 10:05:13 GMT+0100 (Central European Standard Time),The main experiment item,yes,0,0,C:/Users/rrics/Documents/!!ResearchBMECOGSCI/gnet,0,0,0,prototype5.png,no,mono,no,18,no,black,no,no,768,1181,3.5.6,legacy,xpyriment,osweb,1.3.13,0,space,right,space,,25430,23804,25430,,2,legacy,864,1462,24,864,24,0,0,1536,1646557518930,1024,2,48000,-16,experiment,p5sarr2.png,1,odd,Win32,173,135799,132783,173,173,572132,573637,567130,137317,567130,173,,,,,,visual_patterns,0,0,0,yes,1366
undefined,undefined,undefined,undefined,white,no,Mozilla,Netscape,"5.0 (Windows NT 10.0; Win64; x64) AppleWebKit/537.36 (KHTML, like Gecko) Chrome/98.0.4758.102 Safari/537.36",xpyriment,legacy,legacy,0,uniform,0,0,0,0,24,24,24,0,0,63,63,63,63,63,0,63,0,,,,,,0,,06-02-22,06-02-22,10:05:13,Sun Mar 06 2022 10:05:13 GMT+0100 (Central European Standard Time),The main experiment item,yes,0,0,C:/Users/rrics/Documents/!!ResearchBMECOGSCI/gnet,0,0,0,prototype5.png,no,mono,no,18,no,black,no,no,768,1181,3.5.6,legacy,xpyriment,osweb,1.3.13,0,space,right,space,,25430,23804,25430,,2,legacy,864,1462,24,864,24,0,0,1536,1646557518930,1024,2,48000,-16,experiment,p10sarr2.png,1,odd,Win32,173,135799,132783,173,173,578655,580171,573655,137317,573654,173,,,,,,visual_patterns,0,0,0,yes,1366
undefined,undefined,undefined,undefined,white,no,Mozilla,Netscape,"5.0 (Windows NT 10.0; Win64; x64) AppleWebKit/537.36 (KHTML, like Gecko) Chrome/98.0.4758.102 Safari/537.36",xpyriment,legacy,legacy,0,uniform,0,0,0,0,24,24,24,0,0,64,64,64,64,64,0,64,0,,,,,,0,,06-02-22,06-02-22,10:05:13,Sun Mar 06 2022 10:05:13 GMT+0100 (Central European Standard Time),The main experiment item,yes,0,0,C:/Users/rrics/Documents/!!ResearchBMECOGSCI/gnet,0,0,0,prototype5.png,no,mono,no,18,no,black,no,no,768,1181,3.5.6,legacy,xpyriment,osweb,1.3.13,0,space,right,space,,25430,23804,25430,,2,legacy,864,1462,24,864,24,0,0,1536,1646557518930,1024,2,48000,-16,experiment,prototype1.png,1,odd,Win32,173,135799,132783,173,173,585183,586688,580181,137317,580181,173,,,,,,visual_patterns,0,0,0,yes,1366
undefined,undefined,undefined,undefined,white,no,Mozilla,Netscape,"5.0 (Windows NT 10.0; Win64; x64) AppleWebKit/537.36 (KHTML, like Gecko) Chrome/98.0.4758.102 Safari/537.36",xpyriment,legacy,legacy,0,uniform,0,0,0,0,24,24,24,0,0,65,65,65,65,65,0,65,0,,,,,,0,,06-02-22,06-02-22,10:05:13,Sun Mar 06 2022 10:05:13 GMT+0100 (Central European Standard Time),The main experiment item,yes,0,0,C:/Users/rrics/Documents/!!ResearchBMECOGSCI/gnet,0,0,0,prototype5.png,no,mono,no,18,no,black,no,no,768,1181,3.5.6,legacy,xpyriment,osweb,1.3.13,0,space,right,space,,25430,23804,25430,,2,legacy,864,1462,24,864,24,0,0,1536,1646557518930,1024,2,48000,-16,experiment,prototype4.png,1,odd,Win32,173,135799,132783,173,173,591698,593206,586696,137317,586696,173,,,,,,visual_patterns,0,0,0,yes,1366
undefined,undefined,undefined,undefined,white,no,Mozilla,Netscape,"5.0 (Windows NT 10.0; Win64; x64) AppleWebKit/537.36 (KHTML, like Gecko) Chrome/98.0.4758.102 Safari/537.36",xpyriment,legacy,legacy,0,uniform,0,0,0,0,24,24,24,0,0,66,66,66,66,66,0,66,0,,,,,,0,,06-02-22,06-02-22,10:05:13,Sun Mar 06 2022 10:05:13 GMT+0100 (Central European Standard Time),The main experiment item,yes,0,0,C:/Users/rrics/Documents/!!ResearchBMECOGSCI/gnet,0,0,0,prototype5.png,no,mono,no,18,no,black,no,no,768,1181,3.5.6,legacy,xpyriment,osweb,1.3.13,0,space,right,space,,25430,23804,25430,,2,legacy,864,1462,24,864,24,0,0,1536,1646557518930,1024,2,48000,-16,experiment,p2sarrshacol2.png,1,odd,Win32,173,135799,132783,173,173,598219,599723,593221,137317,593221,173,,,,,,visual_patterns,0,0,0,yes,1366
undefined,undefined,undefined,undefined,white,no,Mozilla,Netscape,"5.0 (Windows NT 10.0; Win64; x64) AppleWebKit/537.36 (KHTML, like Gecko) Chrome/98.0.4758.102 Safari/537.36",xpyriment,legacy,legacy,0,uniform,0,0,0,0,24,24,24,0,0,67,67,67,67,67,0,67,0,,,,,,0,,06-02-22,06-02-22,10:05:13,Sun Mar 06 2022 10:05:13 GMT+0100 (Central European Standard Time),The main experiment item,yes,0,0,C:/Users/rrics/Documents/!!ResearchBMECOGSCI/gnet,0,0,0,prototype5.png,no,mono,no,18,no,black,no,no,768,1181,3.5.6,legacy,xpyriment,osweb,1.3.13,0,space,right,space,,25430,23804,25430,,2,legacy,864,1462,24,864,24,0,0,1536,1646557518930,1024,2,48000,-16,experiment,p1sarr2.png,1,odd,Win32,173,135799,132783,173,173,604734,606240,599737,137317,599737,173,,,,,,visual_patterns,0,0,0,yes,1366
undefined,undefined,undefined,undefined,white,no,Mozilla,Netscape,"5.0 (Windows NT 10.0; Win64; x64) AppleWebKit/537.36 (KHTML, like Gecko) Chrome/98.0.4758.102 Safari/537.36",xpyriment,legacy,legacy,0,uniform,0,0,0,0,24,24,24,0,0,68,68,68,68,68,0,68,0,,,,,,0,,06-02-22,06-02-22,10:05:13,Sun Mar 06 2022 10:05:13 GMT+0100 (Central European Standard Time),The main experiment item,yes,0,0,C:/Users/rrics/Documents/!!ResearchBMECOGSCI/gnet,0,0,0,prototype5.png,no,mono,no,18,no,black,no,no,768,1181,3.5.6,legacy,xpyriment,osweb,1.3.13,0,space,right,space,,25430,23804,25430,,2,legacy,864,1462,24,864,24,0,0,1536,1646557518930,1024,2,48000,-16,experiment,p6sarr2.png,1,odd,Win32,173,135799,132783,173,173,611257,612774,606255,137317,606255,173,,,,,,visual_patterns,0,0,0,yes,1366
undefined,undefined,undefined,undefined,white,no,Mozilla,Netscape,"5.0 (Windows NT 10.0; Win64; x64) AppleWebKit/537.36 (KHTML, like Gecko) Chrome/98.0.4758.102 Safari/537.36",xpyriment,legacy,legacy,0,uniform,0,0,0,0,24,24,24,0,0,69,69,69,69,69,0,69,0,,,,,,0,,06-02-22,06-02-22,10:05:13,Sun Mar 06 2022 10:05:13 GMT+0100 (Central European Standard Time),The main experiment item,yes,0,0,C:/Users/rrics/Documents/!!ResearchBMECOGSCI/gnet,0,0,0,prototype5.png,no,mono,no,18,no,black,no,no,768,1181,3.5.6,legacy,xpyriment,osweb,1.3.13,0,space,right,space,,25430,23804,25430,,2,legacy,864,1462,24,864,24,0,0,1536,1646557518930,1024,2,48000,-16,experiment,prototype2.png,1,odd,Win32,173,135799,132783,173,173,617785,619291,612784,137317,612784,173,,,,,,visual_patterns,0,0,0,yes,1366
undefined,undefined,undefined,undefined,white,no,Mozilla,Netscape,"5.0 (Windows NT 10.0; Win64; x64) AppleWebKit/537.36 (KHTML, like Gecko) Chrome/98.0.4758.102 Safari/537.36",xpyriment,legacy,legacy,0,uniform,0,0,0,0,24,24,24,0,0,70,70,70,70,70,0,70,0,,,,,,0,,06-02-22,06-02-22,10:05:13,Sun Mar 06 2022 10:05:13 GMT+0100 (Central European Standard Time),The main experiment item,yes,0,0,C:/Users/rrics/Documents/!!ResearchBMECOGSCI/gnet,0,0,0,prototype5.png,no,mono,no,18,no,black,no,no,768,1181,3.5.6,legacy,xpyriment,osweb,1.3.13,0,space,right,space,,25430,23804,25430,,2,legacy,864,1462,24,864,24,0,0,1536,1646557518930,1024,2,48000,-16,experiment,p1sarrshacol1.png,1,odd,Win32,173,135799,132783,173,173,624309,625825,619308,137317,619308,173,,,,,,visual_patterns,0,0,0,yes,1366
undefined,undefined,undefined,undefined,white,no,Mozilla,Netscape,"5.0 (Windows NT 10.0; Win64; x64) AppleWebKit/537.36 (KHTML, like Gecko) Chrome/98.0.4758.102 Safari/537.36",xpyriment,legacy,legacy,0,uniform,0,0,0,0,24,24,24,0,0,71,71,71,71,71,0,71,0,,,,,,0,,06-02-22,06-02-22,10:05:13,Sun Mar 06 2022 10:05:13 GMT+0100 (Central European Standard Time),The main experiment item,yes,0,0,C:/Users/rrics/Documents/!!ResearchBMECOGSCI/gnet,0,0,0,prototype5.png,no,mono,no,18,no,black,no,no,768,1181,3.5.6,legacy,xpyriment,osweb,1.3.13,0,space,right,space,,25430,23804,25430,,2,legacy,864,1462,24,864,24,0,0,1536,1646557518930,1024,2,48000,-16,experiment,prototype1.png,1,odd,Win32,173,135799,132783,173,173,630837,632342,625837,137317,625837,173,,,,,,visual_patterns,0,0,0,yes,1366
undefined,undefined,undefined,undefined,white,no,Mozilla,Netscape,"5.0 (Windows NT 10.0; Win64; x64) AppleWebKit/537.36 (KHTML, like Gecko) Chrome/98.0.4758.102 Safari/537.36",xpyriment,legacy,legacy,0,uniform,0,0,0,0,24,24,24,0,0,72,72,72,72,72,0,72,0,,,,,,0,,06-02-22,06-02-22,10:05:13,Sun Mar 06 2022 10:05:13 GMT+0100 (Central European Standard Time),The main experiment item,yes,0,0,C:/Users/rrics/Documents/!!ResearchBMECOGSCI/gnet,0,0,0,prototype5.png,no,mono,no,18,no,black,no,no,768,1181,3.5.6,legacy,xpyriment,osweb,1.3.13,0,space,right,space,,25430,23804,25430,,2,legacy,864,1462,24,864,24,0,0,1536,1646557518930,1024,2,48000,-16,experiment,prototype5.png,1,odd,Win32,173,135799,132783,173,173,637350,638860,632347,137317,632347,173,,,,,,visual_patterns,0,0,0,yes,1366
undefined,undefined,undefined,undefined,white,no,Mozilla,Netscape,"5.0 (Windows NT 10.0; Win64; x64) AppleWebKit/537.36 (KHTML, like Gecko) Chrome/98.0.4758.102 Safari/537.36",xpyriment,legacy,legacy,0,uniform,0,0,0,0,24,24,24,0,0,73,73,73,73,73,0,73,0,,,,,,0,,06-02-22,06-02-22,10:05:13,Sun Mar 06 2022 10:05:13 GMT+0100 (Central European Standard Time),The main experiment item,yes,0,0,C:/Users/rrics/Documents/!!ResearchBMECOGSCI/gnet,0,0,0,prototype5.png,no,mono,no,18,no,black,no,no,768,1181,3.5.6,legacy,xpyriment,osweb,1.3.13,0,space,right,space,,25430,23804,25430,,2,legacy,864,1462,24,864,24,0,0,1536,1646557518930,1024,2,48000,-16,experiment,prototype3.png,1,odd,Win32,173,135799,132783,173,173,643871,645377,638870,137317,638870,173,,,,,,visual_patterns,0,0,0,yes,1366
undefined,undefined,undefined,undefined,white,no,Mozilla,Netscape,"5.0 (Windows NT 10.0; Win64; x64) AppleWebKit/537.36 (KHTML, like Gecko) Chrome/98.0.4758.102 Safari/537.36",xpyriment,legacy,legacy,0,uniform,0,0,0,0,24,24,24,0,0,74,74,74,74,74,0,74,0,,,,,,0,,06-02-22,06-02-22,10:05:13,Sun Mar 06 2022 10:05:13 GMT+0100 (Central European Standard Time),The main experiment item,yes,0,0,C:/Users/rrics/Documents/!!ResearchBMECOGSCI/gnet,0,0,0,prototype5.png,no,mono,no,18,no,black,no,no,768,1181,3.5.6,legacy,xpyriment,osweb,1.3.13,0,space,right,space,,25430,23804,25430,,2,legacy,864,1462,24,864,24,0,0,1536,1646557518930,1024,2,48000,-16,experiment,prototype2.png,1,odd,Win32,173,135799,132783,173,173,650390,651894,645387,137317,645387,173,,,,,,visual_patterns,0,0,0,yes,1366
undefined,undefined,undefined,undefined,white,no,Mozilla,Netscape,"5.0 (Windows NT 10.0; Win64; x64) AppleWebKit/537.36 (KHTML, like Gecko) Chrome/98.0.4758.102 Safari/537.36",xpyriment,legacy,legacy,0,uniform,0,0,0,0,24,24,24,0,0,74,74,74,74,74,0,74,0,0,0,0,0,0,0,0,06-02-22,06-02-22,10:05:13,Sun Mar 06 2022 10:05:13 GMT+0100 (Central European Standard Time),The main experiment item,yes,0,0,C:/Users/rrics/Documents/!!ResearchBMECOGSCI/gnet,0,0,0,prototype5.png,no,mono,no,18,no,black,no,no,768,1181,3.5.6,legacy,xpyriment,osweb,1.3.13,0,space,right,space,space,30823,23804,25430,30823,2,legacy,864,1462,24,864,24,0,0,1536,1646557518930,1024,2,48000,-16,experiment,p5sarrsha3.png,1,odd,Win32,173,135799,132783,173,173,650390,651894,645387,137317,645387,173,685774,687281,682773,651899,682773,visual_patterns,0,0,0,yes,1366
undefined,undefined,undefined,undefined,white,no,Mozilla,Netscape,"5.0 (Windows NT 10.0; Win64; x64) AppleWebKit/537.36 (KHTML, like Gecko) Chrome/98.0.4758.102 Safari/537.36",xpyriment,legacy,legacy,0,uniform,0,0,0,0,24,24,24,0,0,74,74,74,74,74,0,74,0,1,1,1,1,1,0,1,06-02-22,06-02-22,10:05:13,Sun Mar 06 2022 10:05:13 GMT+0100 (Central European Standard Time),The main experiment item,yes,0,0,C:/Users/rrics/Documents/!!ResearchBMECOGSCI/gnet,0,0,0,prototype5.png,no,mono,no,18,no,black,no,no,768,1181,3.5.6,legacy,xpyriment,osweb,1.3.13,0,space,right,space,space,30823,23804,25430,30823,2,legacy,864,1462,24,864,24,0,0,1536,1646557518930,1024,2,48000,-16,experiment,p2sarrshacol1.png,1,odd,Win32,173,135799,132783,173,173,650390,651894,645387,137317,645387,173,690297,691814,687297,651899,687297,visual_patterns,0,0,0,yes,1366
undefined,undefined,undefined,undefined,white,no,Mozilla,Netscape,"5.0 (Windows NT 10.0; Win64; x64) AppleWebKit/537.36 (KHTML, like Gecko) Chrome/98.0.4758.102 Safari/537.36",xpyriment,legacy,legacy,0,uniform,0,0,0,0,24,24,24,0,0,74,74,74,74,74,0,74,0,2,2,2,2,2,0,2,06-02-22,06-02-22,10:05:13,Sun Mar 06 2022 10:05:13 GMT+0100 (Central European Standard Time),The main experiment item,yes,0,0,C:/Users/rrics/Documents/!!ResearchBMECOGSCI/gnet,0,0,0,prototype5.png,no,mono,no,18,no,black,no,no,768,1181,3.5.6,legacy,xpyriment,osweb,1.3.13,0,space,right,space,space,30823,23804,25430,30823,2,legacy,864,1462,24,864,24,0,0,1536,1646557518930,1024,2,48000,-16,experiment,p4sarr4.png,1,odd,Win32,173,135799,132783,173,173,650390,651894,645387,137317,645387,173,694825,696331,691824,651899,691824,visual_patterns,0,0,0,yes,1366
undefined,undefined,undefined,undefined,white,no,Mozilla,Netscape,"5.0 (Windows NT 10.0; Win64; x64) AppleWebKit/537.36 (KHTML, like Gecko) Chrome/98.0.4758.102 Safari/537.36",xpyriment,legacy,legacy,0,uniform,0,0,0,0,24,24,24,0,0,74,74,74,74,74,0,74,0,3,3,3,3,3,0,3,06-02-22,06-02-22,10:05:13,Sun Mar 06 2022 10:05:13 GMT+0100 (Central European Standard Time),The main experiment item,yes,0,0,C:/Users/rrics/Documents/!!ResearchBMECOGSCI/gnet,0,0,0,prototype5.png,no,mono,no,18,no,black,no,no,768,1181,3.5.6,legacy,xpyriment,osweb,1.3.13,0,space,right,space,space,30823,23804,25430,30823,2,legacy,864,1462,24,864,24,0,0,1536,1646557518930,1024,2,48000,-16,experiment,p5sarrsha2.png,1,odd,Win32,173,135799,132783,173,173,650390,651894,645387,137317,645387,173,699349,700865,696345,651899,696345,visual_patterns,0,0,0,yes,1366
undefined,undefined,undefined,undefined,white,no,Mozilla,Netscape,"5.0 (Windows NT 10.0; Win64; x64) AppleWebKit/537.36 (KHTML, like Gecko) Chrome/98.0.4758.102 Safari/537.36",xpyriment,legacy,legacy,0,uniform,0,0,0,0,24,24,24,0,0,74,74,74,74,74,0,74,0,4,4,4,4,4,0,4,06-02-22,06-02-22,10:05:13,Sun Mar 06 2022 10:05:13 GMT+0100 (Central European Standard Time),The main experiment item,yes,0,0,C:/Users/rrics/Documents/!!ResearchBMECOGSCI/gnet,0,0,0,prototype5.png,no,mono,no,18,no,black,no,no,768,1181,3.5.6,legacy,xpyriment,osweb,1.3.13,0,space,right,space,space,30823,23804,25430,30823,2,legacy,864,1462,24,864,24,0,0,1536,1646557518930,1024,2,48000,-16,experiment,p7sarr2.png,1,odd,Win32,173,135799,132783,173,173,650390,651894,645387,137317,645387,173,703883,705399,700880,651899,700880,visual_patterns,0,0,0,yes,1366
undefined,undefined,undefined,undefined,white,no,Mozilla,Netscape,"5.0 (Windows NT 10.0; Win64; x64) AppleWebKit/537.36 (KHTML, like Gecko) Chrome/98.0.4758.102 Safari/537.36",xpyriment,legacy,legacy,0,uniform,0,0,0,0,24,24,24,0,0,74,74,74,74,74,0,74,0,5,5,5,5,5,0,5,06-02-22,06-02-22,10:05:13,Sun Mar 06 2022 10:05:13 GMT+0100 (Central European Standard Time),The main experiment item,yes,0,0,C:/Users/rrics/Documents/!!ResearchBMECOGSCI/gnet,0,0,0,prototype5.png,no,mono,no,18,no,black,no,no,768,1181,3.5.6,legacy,xpyriment,osweb,1.3.13,0,space,right,space,space,30823,23804,25430,30823,2,legacy,864,1462,24,864,24,0,0,1536,1646557518930,1024,2,48000,-16,experiment,p1sarrsha4.png,1,odd,Win32,173,135799,132783,173,173,650390,651894,645387,137317,645387,173,708417,709932,705418,651899,705417,visual_patterns,0,0,0,yes,1366
undefined,undefined,undefined,undefined,white,no,Mozilla,Netscape,"5.0 (Windows NT 10.0; Win64; x64) AppleWebKit/537.36 (KHTML, like Gecko) Chrome/98.0.4758.102 Safari/537.36",xpyriment,legacy,legacy,0,uniform,0,0,0,0,24,24,24,0,0,74,74,74,74,74,0,74,0,6,6,6,6,6,0,6,06-02-22,06-02-22,10:05:13,Sun Mar 06 2022 10:05:13 GMT+0100 (Central European Standard Time),The main experiment item,yes,0,0,C:/Users/rrics/Documents/!!ResearchBMECOGSCI/gnet,0,0,0,prototype5.png,no,mono,no,18,no,black,no,no,768,1181,3.5.6,legacy,xpyriment,osweb,1.3.13,0,space,right,space,space,30823,23804,25430,30823,2,legacy,864,1462,24,864,24,0,0,1536,1646557518930,1024,2,48000,-16,experiment,p3sarrcol2.png,1,odd,Win32,173,135799,132783,173,173,650390,651894,645387,137317,645387,173,712946,714449,709945,651899,709945,visual_patterns,0,0,0,yes,1366
undefined,undefined,undefined,undefined,white,no,Mozilla,Netscape,"5.0 (Windows NT 10.0; Win64; x64) AppleWebKit/537.36 (KHTML, like Gecko) Chrome/98.0.4758.102 Safari/537.36",xpyriment,legacy,legacy,0,uniform,0,0,0,0,24,24,24,0,0,74,74,74,74,74,0,74,0,7,7,7,7,7,0,7,06-02-22,06-02-22,10:05:13,Sun Mar 06 2022 10:05:13 GMT+0100 (Central European Standard Time),The main experiment item,yes,0,0,C:/Users/rrics/Documents/!!ResearchBMECOGSCI/gnet,0,0,0,prototype5.png,no,mono,no,18,no,black,no,no,768,1181,3.5.6,legacy,xpyriment,osweb,1.3.13,0,space,right,space,space,30823,23804,25430,30823,2,legacy,864,1462,24,864,24,0,0,1536,1646557518930,1024,2,48000,-16,experiment,p3sarrcol3.png,1,odd,Win32,173,135799,132783,173,173,650390,651894,645387,137317,645387,173,717466,718967,714463,651899,714463,visual_patterns,0,0,0,yes,1366
undefined,undefined,undefined,undefined,white,no,Mozilla,Netscape,"5.0 (Windows NT 10.0; Win64; x64) AppleWebKit/537.36 (KHTML, like Gecko) Chrome/98.0.4758.102 Safari/537.36",xpyriment,legacy,legacy,0,uniform,0,0,0,0,24,24,24,0,0,74,74,74,74,74,0,74,0,8,8,8,8,8,0,8,06-02-22,06-02-22,10:05:13,Sun Mar 06 2022 10:05:13 GMT+0100 (Central European Standard Time),The main experiment item,yes,0,0,C:/Users/rrics/Documents/!!ResearchBMECOGSCI/gnet,0,0,0,prototype5.png,no,mono,no,18,no,black,no,no,768,1181,3.5.6,legacy,xpyriment,osweb,1.3.13,0,space,right,space,space,30823,23804,25430,30823,2,legacy,864,1462,24,864,24,0,0,1536,1646557518930,1024,2,48000,-16,experiment,p1sarrsha1.png,1,odd,Win32,173,135799,132783,173,173,650390,651894,645387,137317,645387,173,721985,723500,718981,651899,718981,visual_patterns,0,0,0,yes,1366
undefined,undefined,undefined,undefined,white,no,Mozilla,Netscape,"5.0 (Windows NT 10.0; Win64; x64) AppleWebKit/537.36 (KHTML, like Gecko) Chrome/98.0.4758.102 Safari/537.36",xpyriment,legacy,legacy,0,uniform,0,0,0,0,24,24,24,0,0,74,74,74,74,74,0,74,0,9,9,9,9,9,0,9,06-02-22,06-02-22,10:05:13,Sun Mar 06 2022 10:05:13 GMT+0100 (Central European Standard Time),The main experiment item,yes,0,0,C:/Users/rrics/Documents/!!ResearchBMECOGSCI/gnet,0,0,0,prototype5.png,no,mono,no,18,no,black,no,no,768,1181,3.5.6,legacy,xpyriment,osweb,1.3.13,0,space,right,space,space,30823,23804,25430,30823,2,legacy,864,1462,24,864,24,0,0,1536,1646557518930,1024,2,48000,-16,experiment,p4sarr1.png,1,odd,Win32,173,135799,132783,173,173,650390,651894,645387,137317,645387,173,726526,728034,723525,651899,723525,visual_patterns,0,0,0,yes,1366
undefined,undefined,undefined,undefined,white,no,Mozilla,Netscape,"5.0 (Windows NT 10.0; Win64; x64) AppleWebKit/537.36 (KHTML, like Gecko) Chrome/98.0.4758.102 Safari/537.36",xpyriment,legacy,legacy,0,uniform,0,0,0,0,24,24,24,0,0,74,74,74,74,74,0,74,0,10,10,10,10,10,0,10,06-02-22,06-02-22,10:05:13,Sun Mar 06 2022 10:05:13 GMT+0100 (Central European Standard Time),The main experiment item,yes,0,0,C:/Users/rrics/Documents/!!ResearchBMECOGSCI/gnet,0,0,0,prototype5.png,no,mono,no,18,no,black,no,no,768,1181,3.5.6,legacy,xpyriment,osweb,1.3.13,0,space,right,space,space,30823,23804,25430,30823,2,legacy,864,1462,24,864,24,0,0,1536,1646557518930,1024,2,48000,-16,experiment,p9sarr2.png,1,odd,Win32,173,135799,132783,173,173,650390,651894,645387,137317,645387,173,731051,732568,728046,651899,728046,visual_patterns,0,0,0,yes,1366
undefined,undefined,undefined,undefined,white,no,Mozilla,Netscape,"5.0 (Windows NT 10.0; Win64; x64) AppleWebKit/537.36 (KHTML, like Gecko) Chrome/98.0.4758.102 Safari/537.36",xpyriment,legacy,legacy,0,uniform,0,0,0,0,24,24,24,0,0,74,74,74,74,74,0,74,0,11,11,11,11,11,0,11,06-02-22,06-02-22,10:05:13,Sun Mar 06 2022 10:05:13 GMT+0100 (Central European Standard Time),The main experiment item,yes,0,0,C:/Users/rrics/Documents/!!ResearchBMECOGSCI/gnet,0,0,0,prototype5.png,no,mono,no,18,no,black,no,no,768,1181,3.5.6,legacy,xpyriment,osweb,1.3.13,0,space,right,space,space,30823,23804,25430,30823,2,legacy,864,1462,24,864,24,0,0,1536,1646557518930,1024,2,48000,-16,experiment,p1sarr2.png,1,odd,Win32,173,135799,132783,173,173,650390,651894,645387,137317,645387,173,735579,737084,732579,651899,732579,visual_patterns,0,0,0,yes,1366
undefined,undefined,undefined,undefined,white,no,Mozilla,Netscape,"5.0 (Windows NT 10.0; Win64; x64) AppleWebKit/537.36 (KHTML, like Gecko) Chrome/98.0.4758.102 Safari/537.36",xpyriment,legacy,legacy,0,uniform,0,0,0,0,24,24,24,0,0,74,74,74,74,74,0,74,0,12,12,12,12,12,0,12,06-02-22,06-02-22,10:05:13,Sun Mar 06 2022 10:05:13 GMT+0100 (Central European Standard Time),The main experiment item,yes,0,0,C:/Users/rrics/Documents/!!ResearchBMECOGSCI/gnet,0,0,0,prototype5.png,no,mono,no,18,no,black,no,no,768,1181,3.5.6,legacy,xpyriment,osweb,1.3.13,0,space,right,space,space,30823,23804,25430,30823,2,legacy,864,1462,24,864,24,0,0,1536,1646557518930,1024,2,48000,-16,experiment,p3sarrcol4.png,1,odd,Win32,173,135799,132783,173,173,650390,651894,645387,137317,645387,173,740095,741602,737098,651899,737098,visual_patterns,0,0,0,yes,1366
undefined,undefined,undefined,undefined,white,no,Mozilla,Netscape,"5.0 (Windows NT 10.0; Win64; x64) AppleWebKit/537.36 (KHTML, like Gecko) Chrome/98.0.4758.102 Safari/537.36",xpyriment,legacy,legacy,0,uniform,0,0,0,0,24,24,24,0,0,74,74,74,74,74,0,74,0,13,13,13,13,13,0,13,06-02-22,06-02-22,10:05:13,Sun Mar 06 2022 10:05:13 GMT+0100 (Central European Standard Time),The main experiment item,yes,0,0,C:/Users/rrics/Documents/!!ResearchBMECOGSCI/gnet,0,0,0,prototype5.png,no,mono,no,18,no,black,no,no,768,1181,3.5.6,legacy,xpyriment,osweb,1.3.13,0,space,right,space,space,30823,23804,25430,30823,2,legacy,864,1462,24,864,24,0,0,1536,1646557518930,1024,2,48000,-16,experiment,p2sarrshacol2.png,1,odd,Win32,173,135799,132783,173,173,650390,651894,645387,137317,645387,173,744624,746136,741619,651899,741619,visual_patterns,0,0,0,yes,1366
undefined,undefined,undefined,undefined,white,no,Mozilla,Netscape,"5.0 (Windows NT 10.0; Win64; x64) AppleWebKit/537.36 (KHTML, like Gecko) Chrome/98.0.4758.102 Safari/537.36",xpyriment,legacy,legacy,0,uniform,0,0,0,0,24,24,24,0,0,74,74,74,74,74,0,74,0,14,14,14,14,14,0,14,06-02-22,06-02-22,10:05:13,Sun Mar 06 2022 10:05:13 GMT+0100 (Central European Standard Time),The main experiment item,yes,0,0,C:/Users/rrics/Documents/!!ResearchBMECOGSCI/gnet,0,0,0,prototype5.png,no,mono,no,18,no,black,no,no,768,1181,3.5.6,legacy,xpyriment,osweb,1.3.13,0,space,right,space,space,30823,23804,25430,30823,2,legacy,864,1462,24,864,24,0,0,1536,1646557518930,1024,2,48000,-16,experiment,p6sarr1.png,1,odd,Win32,173,135799,132783,173,173,650390,651894,645387,137317,645387,173,749187,750703,746182,651899,746182,visual_patterns,0,0,0,yes,1366
undefined,undefined,undefined,undefined,white,no,Mozilla,Netscape,"5.0 (Windows NT 10.0; Win64; x64) AppleWebKit/537.36 (KHTML, like Gecko) Chrome/98.0.4758.102 Safari/537.36",xpyriment,legacy,legacy,0,uniform,0,0,0,0,24,24,24,0,0,74,74,74,74,74,0,74,0,15,15,15,15,15,0,15,06-02-22,06-02-22,10:05:13,Sun Mar 06 2022 10:05:13 GMT+0100 (Central European Standard Time),The main experiment item,yes,0,0,C:/Users/rrics/Documents/!!ResearchBMECOGSCI/gnet,0,0,0,prototype5.png,no,mono,no,18,no,black,no,no,768,1181,3.5.6,legacy,xpyriment,osweb,1.3.13,0,space,right,space,space,30823,23804,25430,30823,2,legacy,864,1462,24,864,24,0,0,1536,1646557518930,1024,2,48000,-16,experiment,p4sarrshacol3.png,1,odd,Win32,173,135799,132783,173,173,650390,651894,645387,137317,645387,173,753720,755236,750722,651899,750722,visual_patterns,0,0,0,yes,1366
undefined,undefined,undefined,undefined,white,no,Mozilla,Netscape,"5.0 (Windows NT 10.0; Win64; x64) AppleWebKit/537.36 (KHTML, like Gecko) Chrome/98.0.4758.102 Safari/537.36",xpyriment,legacy,legacy,0,uniform,0,0,0,0,24,24,24,0,0,74,74,74,74,74,0,74,0,16,16,16,16,16,0,16,06-02-22,06-02-22,10:05:13,Sun Mar 06 2022 10:05:13 GMT+0100 (Central European Standard Time),The main experiment item,yes,0,0,C:/Users/rrics/Documents/!!ResearchBMECOGSCI/gnet,0,0,0,prototype5.png,no,mono,no,18,no,black,no,no,768,1181,3.5.6,legacy,xpyriment,osweb,1.3.13,0,space,right,space,space,30823,23804,25430,30823,2,legacy,864,1462,24,864,24,0,0,1536,1646557518930,1024,2,48000,-16,experiment,p4sarrshacol4.png,1,odd,Win32,173,135799,132783,173,173,650390,651894,645387,137317,645387,173,758246,759753,755245,651899,755245,visual_patterns,0,0,0,yes,1366
undefined,undefined,undefined,undefined,white,no,Mozilla,Netscape,"5.0 (Windows NT 10.0; Win64; x64) AppleWebKit/537.36 (KHTML, like Gecko) Chrome/98.0.4758.102 Safari/537.36",xpyriment,legacy,legacy,0,uniform,0,0,0,0,24,24,24,0,0,74,74,74,74,74,0,74,0,17,17,17,17,17,0,17,06-02-22,06-02-22,10:05:13,Sun Mar 06 2022 10:05:13 GMT+0100 (Central European Standard Time),The main experiment item,yes,0,0,C:/Users/rrics/Documents/!!ResearchBMECOGSCI/gnet,0,0,0,prototype5.png,no,mono,no,18,no,black,no,no,768,1181,3.5.6,legacy,xpyriment,osweb,1.3.13,0,space,right,space,space,30823,23804,25430,30823,2,legacy,864,1462,24,864,24,0,0,1536,1646557518930,1024,2,48000,-16,experiment,p2sarrcol1.png,1,odd,Win32,173,135799,132783,173,173,650390,651894,645387,137317,645387,173,762765,764271,759762,651899,759762,visual_patterns,0,0,0,yes,1366
undefined,undefined,undefined,undefined,white,no,Mozilla,Netscape,"5.0 (Windows NT 10.0; Win64; x64) AppleWebKit/537.36 (KHTML, like Gecko) Chrome/98.0.4758.102 Safari/537.36",xpyriment,legacy,legacy,0,uniform,0,0,0,0,24,24,24,0,0,74,74,74,74,74,0,74,0,18,18,18,18,18,0,18,06-02-22,06-02-22,10:05:13,Sun Mar 06 2022 10:05:13 GMT+0100 (Central European Standard Time),The main experiment item,yes,0,0,C:/Users/rrics/Documents/!!ResearchBMECOGSCI/gnet,0,0,0,prototype5.png,no,mono,no,18,no,black,no,no,768,1181,3.5.6,legacy,xpyriment,osweb,1.3.13,0,space,right,space,space,30823,23804,25430,30823,2,legacy,864,1462,24,864,24,0,0,1536,1646557518930,1024,2,48000,-16,experiment,p1sarr4.png,1,odd,Win32,173,135799,132783,173,173,650390,651894,645387,137317,645387,173,767284,768788,764289,651899,764288,visual_patterns,0,0,0,yes,1366
undefined,undefined,undefined,undefined,white,no,Mozilla,Netscape,"5.0 (Windows NT 10.0; Win64; x64) AppleWebKit/537.36 (KHTML, like Gecko) Chrome/98.0.4758.102 Safari/537.36",xpyriment,legacy,legacy,0,uniform,0,0,0,0,24,24,24,0,0,74,74,74,74,74,0,74,0,19,19,19,19,19,0,19,06-02-22,06-02-22,10:05:13,Sun Mar 06 2022 10:05:13 GMT+0100 (Central European Standard Time),The main experiment item,yes,0,0,C:/Users/rrics/Documents/!!ResearchBMECOGSCI/gnet,0,0,0,prototype5.png,no,mono,no,18,no,black,no,no,768,1181,3.5.6,legacy,xpyriment,osweb,1.3.13,0,space,right,space,space,30823,23804,25430,30823,2,legacy,864,1462,24,864,24,0,0,1536,1646557518930,1024,2,48000,-16,experiment,p10sarr1.png,1,odd,Win32,173,135799,132783,173,173,650390,651894,645387,137317,645387,173,771831,773338,768830,651899,768830,visual_patterns,0,0,0,yes,1366
undefined,undefined,undefined,undefined,white,no,Mozilla,Netscape,"5.0 (Windows NT 10.0; Win64; x64) AppleWebKit/537.36 (KHTML, like Gecko) Chrome/98.0.4758.102 Safari/537.36",xpyriment,legacy,legacy,0,uniform,0,0,0,0,24,24,24,0,0,74,74,74,74,74,0,74,0,20,20,20,20,20,0,20,06-02-22,06-02-22,10:05:13,Sun Mar 06 2022 10:05:13 GMT+0100 (Central European Standard Time),The main experiment item,yes,0,0,C:/Users/rrics/Documents/!!ResearchBMECOGSCI/gnet,0,0,0,prototype5.png,no,mono,no,18,no,black,no,no,768,1181,3.5.6,legacy,xpyriment,osweb,1.3.13,0,space,right,space,space,30823,23804,25430,30823,2,legacy,864,1462,24,864,24,0,0,1536,1646557518930,1024,2,48000,-16,experiment,p8sarr3.png,1,odd,Win32,173,135799,132783,173,173,650390,651894,645387,137317,645387,173,776355,777872,773356,651899,773356,visual_patterns,0,0,0,yes,1366
undefined,undefined,undefined,undefined,white,no,Mozilla,Netscape,"5.0 (Windows NT 10.0; Win64; x64) AppleWebKit/537.36 (KHTML, like Gecko) Chrome/98.0.4758.102 Safari/537.36",xpyriment,legacy,legacy,0,uniform,0,0,0,0,24,24,24,0,0,74,74,74,74,74,0,74,0,21,21,21,21,21,0,21,06-02-22,06-02-22,10:05:13,Sun Mar 06 2022 10:05:13 GMT+0100 (Central European Standard Time),The main experiment item,yes,0,0,C:/Users/rrics/Documents/!!ResearchBMECOGSCI/gnet,0,0,0,prototype5.png,no,mono,no,18,no,black,no,no,768,1181,3.5.6,legacy,xpyriment,osweb,1.3.13,0,space,right,space,space,30823,23804,25430,30823,2,legacy,864,1462,24,864,24,0,0,1536,1646557518930,1024,2,48000,-16,experiment,p9sarr4.png,1,odd,Win32,173,135799,132783,173,173,650390,651894,645387,137317,645387,173,780889,782405,777892,651899,777892,visual_patterns,0,0,0,yes,1366
undefined,undefined,undefined,undefined,white,no,Mozilla,Netscape,"5.0 (Windows NT 10.0; Win64; x64) AppleWebKit/537.36 (KHTML, like Gecko) Chrome/98.0.4758.102 Safari/537.36",xpyriment,legacy,legacy,0,uniform,0,0,0,0,24,24,24,0,0,74,74,74,74,74,0,74,0,22,22,22,22,22,0,22,06-02-22,06-02-22,10:05:13,Sun Mar 06 2022 10:05:13 GMT+0100 (Central European Standard Time),The main experiment item,yes,0,0,C:/Users/rrics/Documents/!!ResearchBMECOGSCI/gnet,0,0,0,prototype5.png,no,mono,no,18,no,black,no,no,768,1181,3.5.6,legacy,xpyriment,osweb,1.3.13,0,space,right,space,space,30823,23804,25430,30823,2,legacy,864,1462,24,864,24,0,0,1536,1646557518930,1024,2,48000,-16,experiment,p5sarrcol2.png,1,odd,Win32,173,135799,132783,173,173,650390,651894,645387,137317,645387,173,785423,786939,782419,651899,782418,visual_patterns,0,0,0,yes,1366
undefined,undefined,undefined,undefined,white,no,Mozilla,Netscape,"5.0 (Windows NT 10.0; Win64; x64) AppleWebKit/537.36 (KHTML, like Gecko) Chrome/98.0.4758.102 Safari/537.36",xpyriment,legacy,legacy,0,uniform,0,0,0,0,24,24,24,0,0,74,74,74,74,74,0,74,0,23,23,23,23,23,0,23,06-02-22,06-02-22,10:05:13,Sun Mar 06 2022 10:05:13 GMT+0100 (Central European Standard Time),The main experiment item,yes,0,0,C:/Users/rrics/Documents/!!ResearchBMECOGSCI/gnet,0,0,0,prototype5.png,no,mono,no,18,no,black,no,no,768,1181,3.5.6,legacy,xpyriment,osweb,1.3.13,0,space,right,space,space,30823,23804,25430,30823,2,legacy,864,1462,24,864,24,0,0,1536,1646557518930,1024,2,48000,-16,experiment,p7sarr4.png,1,odd,Win32,173,135799,132783,173,173,650390,651894,645387,137317,645387,173,789955,791456,786956,651899,786956,visual_patterns,0,0,0,yes,1366
undefined,undefined,undefined,undefined,white,no,Mozilla,Netscape,"5.0 (Windows NT 10.0; Win64; x64) AppleWebKit/537.36 (KHTML, like Gecko) Chrome/98.0.4758.102 Safari/537.36",xpyriment,legacy,legacy,0,uniform,0,0,0,0,24,24,24,0,0,74,74,74,74,74,0,74,0,24,24,24,24,24,0,24,06-02-22,06-02-22,10:05:13,Sun Mar 06 2022 10:05:13 GMT+0100 (Central European Standard Time),The main experiment item,yes,0,0,C:/Users/rrics/Documents/!!ResearchBMECOGSCI/gnet,0,0,0,prototype5.png,no,mono,no,18,no,black,no,no,768,1181,3.5.6,legacy,xpyriment,osweb,1.3.13,0,space,right,space,space,30823,23804,25430,30823,2,legacy,864,1462,24,864,24,0,0,1536,1646557518930,1024,2,48000,-16,experiment,p3sarrsha3.png,1,odd,Win32,173,135799,132783,173,173,650390,651894,645387,137317,645387,173,794491,796007,791490,651899,791490,visual_patterns,0,0,0,yes,1366
undefined,undefined,undefined,undefined,white,no,Mozilla,Netscape,"5.0 (Windows NT 10.0; Win64; x64) AppleWebKit/537.36 (KHTML, like Gecko) Chrome/98.0.4758.102 Safari/537.36",xpyriment,legacy,legacy,0,uniform,0,0,0,0,24,24,24,0,0,74,74,74,74,74,0,74,0,25,25,25,25,25,0,25,06-02-22,06-02-22,10:05:13,Sun Mar 06 2022 10:05:13 GMT+0100 (Central European Standard Time),The main experiment item,yes,0,0,C:/Users/rrics/Documents/!!ResearchBMECOGSCI/gnet,0,0,0,prototype5.png,no,mono,no,18,no,black,no,no,768,1181,3.5.6,legacy,xpyriment,osweb,1.3.13,0,space,right,space,space,30823,23804,25430,30823,2,legacy,864,1462,24,864,24,0,0,1536,1646557518930,1024,2,48000,-16,experiment,p8sarr4.png,1,odd,Win32,173,135799,132783,173,173,650390,651894,645387,137317,645387,173,799024,800541,796025,651899,796025,visual_patterns,0,0,0,yes,1366
undefined,undefined,undefined,undefined,white,no,Mozilla,Netscape,"5.0 (Windows NT 10.0; Win64; x64) AppleWebKit/537.36 (KHTML, like Gecko) Chrome/98.0.4758.102 Safari/537.36",xpyriment,legacy,legacy,0,uniform,0,0,0,0,24,24,24,0,0,74,74,74,74,74,0,74,0,26,26,26,26,26,0,26,06-02-22,06-02-22,10:05:13,Sun Mar 06 2022 10:05:13 GMT+0100 (Central European Standard Time),The main experiment item,yes,0,0,C:/Users/rrics/Documents/!!ResearchBMECOGSCI/gnet,0,0,0,prototype5.png,no,mono,no,18,no,black,no,no,768,1181,3.5.6,legacy,xpyriment,osweb,1.3.13,0,space,right,space,space,30823,23804,25430,30823,2,legacy,864,1462,24,864,24,0,0,1536,1646557518930,1024,2,48000,-16,experiment,p2sarrshacol4.png,1,odd,Win32,173,135799,132783,173,173,650390,651894,645387,137317,645387,173,803558,805074,800561,651899,800561,visual_patterns,0,0,0,yes,1366
undefined,undefined,undefined,undefined,white,no,Mozilla,Netscape,"5.0 (Windows NT 10.0; Win64; x64) AppleWebKit/537.36 (KHTML, like Gecko) Chrome/98.0.4758.102 Safari/537.36",xpyriment,legacy,legacy,0,uniform,0,0,0,0,24,24,24,0,0,74,74,74,74,74,0,74,0,27,27,27,27,27,0,27,06-02-22,06-02-22,10:05:13,Sun Mar 06 2022 10:05:13 GMT+0100 (Central European Standard Time),The main experiment item,yes,0,0,C:/Users/rrics/Documents/!!ResearchBMECOGSCI/gnet,0,0,0,prototype5.png,no,mono,no,18,no,black,no,no,768,1181,3.5.6,legacy,xpyriment,osweb,1.3.13,0,space,right,space,space,30823,23804,25430,30823,2,legacy,864,1462,24,864,24,0,0,1536,1646557518930,1024,2,48000,-16,experiment,p4sarrshacol1.png,1,odd,Win32,173,135799,132783,173,173,650390,651894,645387,137317,645387,173,808092,809608,805089,651899,805089,visual_patterns,0,0,0,yes,1366
undefined,undefined,undefined,undefined,white,no,Mozilla,Netscape,"5.0 (Windows NT 10.0; Win64; x64) AppleWebKit/537.36 (KHTML, like Gecko) Chrome/98.0.4758.102 Safari/537.36",xpyriment,legacy,legacy,0,uniform,0,0,0,0,24,24,24,0,0,74,74,74,74,74,0,74,0,28,28,28,28,28,0,28,06-02-22,06-02-22,10:05:13,Sun Mar 06 2022 10:05:13 GMT+0100 (Central European Standard Time),The main experiment item,yes,0,0,C:/Users/rrics/Documents/!!ResearchBMECOGSCI/gnet,0,0,0,prototype5.png,no,mono,no,18,no,black,no,no,768,1181,3.5.6,legacy,xpyriment,osweb,1.3.13,0,space,right,space,space,30823,23804,25430,30823,2,legacy,864,1462,24,864,24,0,0,1536,1646557518930,1024,2,48000,-16,experiment,p1sarrshacol3.png,1,odd,Win32,173,135799,132783,173,173,650390,651894,645387,137317,645387,173,812620,814125,809623,651899,809623,visual_patterns,0,0,0,yes,1366
undefined,undefined,undefined,undefined,white,no,Mozilla,Netscape,"5.0 (Windows NT 10.0; Win64; x64) AppleWebKit/537.36 (KHTML, like Gecko) Chrome/98.0.4758.102 Safari/537.36",xpyriment,legacy,legacy,0,uniform,0,0,0,0,24,24,24,0,0,74,74,74,74,74,0,74,0,29,29,29,29,29,0,29,06-02-22,06-02-22,10:05:13,Sun Mar 06 2022 10:05:13 GMT+0100 (Central European Standard Time),The main experiment item,yes,0,0,C:/Users/rrics/Documents/!!ResearchBMECOGSCI/gnet,0,0,0,prototype5.png,no,mono,no,18,no,black,no,no,768,1181,3.5.6,legacy,xpyriment,osweb,1.3.13,0,space,right,space,space,30823,23804,25430,30823,2,legacy,864,1462,24,864,24,0,0,1536,1646557518930,1024,2,48000,-16,experiment,p2sarrsha1.png,1,odd,Win32,173,135799,132783,173,173,650390,651894,645387,137317,645387,173,817168,818676,814168,651899,814168,visual_patterns,0,0,0,yes,1366
undefined,undefined,undefined,undefined,white,no,Mozilla,Netscape,"5.0 (Windows NT 10.0; Win64; x64) AppleWebKit/537.36 (KHTML, like Gecko) Chrome/98.0.4758.102 Safari/537.36",xpyriment,legacy,legacy,0,uniform,0,0,0,0,24,24,24,0,0,74,74,74,74,74,0,74,0,30,30,30,30,30,0,30,06-02-22,06-02-22,10:05:13,Sun Mar 06 2022 10:05:13 GMT+0100 (Central European Standard Time),The main experiment item,yes,0,0,C:/Users/rrics/Documents/!!ResearchBMECOGSCI/gnet,0,0,0,prototype5.png,no,mono,no,18,no,black,no,no,768,1181,3.5.6,legacy,xpyriment,osweb,1.3.13,0,space,right,space,space,30823,23804,25430,30823,2,legacy,864,1462,24,864,24,0,0,1536,1646557518930,1024,2,48000,-16,experiment,p3sarr2.png,1,odd,Win32,173,135799,132783,173,173,650390,651894,645387,137317,645387,173,821693,823210,818690,651899,818690,visual_patterns,0,0,0,yes,1366
undefined,undefined,undefined,undefined,white,no,Mozilla,Netscape,"5.0 (Windows NT 10.0; Win64; x64) AppleWebKit/537.36 (KHTML, like Gecko) Chrome/98.0.4758.102 Safari/537.36",xpyriment,legacy,legacy,0,uniform,0,0,0,0,24,24,24,0,0,74,74,74,74,74,0,74,0,31,31,31,31,31,0,31,06-02-22,06-02-22,10:05:13,Sun Mar 06 2022 10:05:13 GMT+0100 (Central European Standard Time),The main experiment item,yes,0,0,C:/Users/rrics/Documents/!!ResearchBMECOGSCI/gnet,0,0,0,prototype5.png,no,mono,no,18,no,black,no,no,768,1181,3.5.6,legacy,xpyriment,osweb,1.3.13,0,space,right,space,space,30823,23804,25430,30823,2,legacy,864,1462,24,864,24,0,0,1536,1646557518930,1024,2,48000,-16,experiment,p3sarrshacol3.png,1,odd,Win32,173,135799,132783,173,173,650390,651894,645387,137317,645387,173,826226,827743,823230,651899,823230,visual_patterns,0,0,0,yes,1366
undefined,undefined,undefined,undefined,white,no,Mozilla,Netscape,"5.0 (Windows NT 10.0; Win64; x64) AppleWebKit/537.36 (KHTML, like Gecko) Chrome/98.0.4758.102 Safari/537.36",xpyriment,legacy,legacy,0,uniform,0,0,0,0,24,24,24,0,0,74,74,74,74,74,0,74,0,32,32,32,32,32,0,32,06-02-22,06-02-22,10:05:13,Sun Mar 06 2022 10:05:13 GMT+0100 (Central European Standard Time),The main experiment item,yes,0,0,C:/Users/rrics/Documents/!!ResearchBMECOGSCI/gnet,0,0,0,prototype5.png,no,mono,no,18,no,black,no,no,768,1181,3.5.6,legacy,xpyriment,osweb,1.3.13,0,space,right,space,space,30823,23804,25430,30823,2,legacy,864,1462,24,864,24,0,0,1536,1646557518930,1024,2,48000,-16,experiment,p2sarrcol4.png,1,odd,Win32,173,135799,132783,173,173,650390,651894,645387,137317,645387,173,830760,832277,827762,651899,827762,visual_patterns,0,0,0,yes,1366
undefined,undefined,undefined,undefined,white,no,Mozilla,Netscape,"5.0 (Windows NT 10.0; Win64; x64) AppleWebKit/537.36 (KHTML, like Gecko) Chrome/98.0.4758.102 Safari/537.36",xpyriment,legacy,legacy,0,uniform,0,0,0,0,24,24,24,0,0,74,74,74,74,74,0,74,0,33,33,33,33,33,0,33,06-02-22,06-02-22,10:05:13,Sun Mar 06 2022 10:05:13 GMT+0100 (Central European Standard Time),The main experiment item,yes,0,0,C:/Users/rrics/Documents/!!ResearchBMECOGSCI/gnet,0,0,0,prototype5.png,no,mono,no,18,no,black,no,no,768,1181,3.5.6,legacy,xpyriment,osweb,1.3.13,0,space,right,space,space,30823,23804,25430,30823,2,legacy,864,1462,24,864,24,0,0,1536,1646557518930,1024,2,48000,-16,experiment,p5sarrcol1.png,1,odd,Win32,173,135799,132783,173,173,650390,651894,645387,137317,645387,173,835294,836819,832292,651899,832292,visual_patterns,0,0,0,yes,1366
undefined,undefined,undefined,undefined,white,no,Mozilla,Netscape,"5.0 (Windows NT 10.0; Win64; x64) AppleWebKit/537.36 (KHTML, like Gecko) Chrome/98.0.4758.102 Safari/537.36",xpyriment,legacy,legacy,0,uniform,0,0,0,0,24,24,24,0,0,74,74,74,74,74,0,74,0,34,34,34,34,34,0,34,06-02-22,06-02-22,10:05:13,Sun Mar 06 2022 10:05:13 GMT+0100 (Central European Standard Time),The main experiment item,yes,0,0,C:/Users/rrics/Documents/!!ResearchBMECOGSCI/gnet,0,0,0,prototype5.png,no,mono,no,18,no,black,no,no,768,1181,3.5.6,legacy,xpyriment,osweb,1.3.13,0,space,right,space,space,30823,23804,25430,30823,2,legacy,864,1462,24,864,24,0,0,1536,1646557518930,1024,2,48000,-16,experiment,p8sarr2.png,1,odd,Win32,173,135799,132783,173,173,650390,651894,645387,137317,645387,173,839871,841378,836866,651899,836866,visual_patterns,0,0,0,yes,1366
undefined,undefined,undefined,undefined,white,no,Mozilla,Netscape,"5.0 (Windows NT 10.0; Win64; x64) AppleWebKit/537.36 (KHTML, like Gecko) Chrome/98.0.4758.102 Safari/537.36",xpyriment,legacy,legacy,0,uniform,0,0,0,0,24,24,24,0,0,74,74,74,74,74,0,74,0,35,35,35,35,35,0,35,06-02-22,06-02-22,10:05:13,Sun Mar 06 2022 10:05:13 GMT+0100 (Central European Standard Time),The main experiment item,yes,0,0,C:/Users/rrics/Documents/!!ResearchBMECOGSCI/gnet,0,0,0,prototype5.png,no,mono,no,18,no,black,no,no,768,1181,3.5.6,legacy,xpyriment,osweb,1.3.13,0,space,right,space,space,30823,23804,25430,30823,2,legacy,864,1462,24,864,24,0,0,1536,1646557518930,1024,2,48000,-16,experiment,p5sarr3.png,1,odd,Win32,173,135799,132783,173,173,650390,651894,645387,137317,645387,173,844395,845911,841394,651899,841394,visual_patterns,0,0,0,yes,1366
undefined,undefined,undefined,undefined,white,no,Mozilla,Netscape,"5.0 (Windows NT 10.0; Win64; x64) AppleWebKit/537.36 (KHTML, like Gecko) Chrome/98.0.4758.102 Safari/537.36",xpyriment,legacy,legacy,0,uniform,0,0,0,0,24,24,24,0,0,74,74,74,74,74,0,74,0,36,36,36,36,36,0,36,06-02-22,06-02-22,10:05:13,Sun Mar 06 2022 10:05:13 GMT+0100 (Central European Standard Time),The main experiment item,yes,0,0,C:/Users/rrics/Documents/!!ResearchBMECOGSCI/gnet,0,0,0,prototype5.png,no,mono,no,18,no,black,no,no,768,1181,3.5.6,legacy,xpyriment,osweb,1.3.13,0,space,right,space,space,30823,23804,25430,30823,2,legacy,864,1462,24,864,24,0,0,1536,1646557518930,1024,2,48000,-16,experiment,p7sarr1.png,1,odd,Win32,173,135799,132783,173,173,650390,651894,645387,137317,645387,173,848929,850437,845924,651899,845924,visual_patterns,0,0,0,yes,1366
undefined,undefined,undefined,undefined,white,no,Mozilla,Netscape,"5.0 (Windows NT 10.0; Win64; x64) AppleWebKit/537.36 (KHTML, like Gecko) Chrome/98.0.4758.102 Safari/537.36",xpyriment,legacy,legacy,0,uniform,0,0,0,0,24,24,24,0,0,74,74,74,74,74,0,74,0,37,37,37,37,37,0,37,06-02-22,06-02-22,10:05:13,Sun Mar 06 2022 10:05:13 GMT+0100 (Central European Standard Time),The main experiment item,yes,0,0,C:/Users/rrics/Documents/!!ResearchBMECOGSCI/gnet,0,0,0,prototype5.png,no,mono,no,18,no,black,no,no,768,1181,3.5.6,legacy,xpyriment,osweb,1.3.13,0,space,right,space,space,30823,23804,25430,30823,2,legacy,864,1462,24,864,24,0,0,1536,1646557518930,1024,2,48000,-16,experiment,p1sarrcol4.png,1,odd,Win32,173,135799,132783,173,173,650390,651894,645387,137317,645387,173,853457,854962,850450,651899,850450,visual_patterns,0,0,0,yes,1366
undefined,undefined,undefined,undefined,white,no,Mozilla,Netscape,"5.0 (Windows NT 10.0; Win64; x64) AppleWebKit/537.36 (KHTML, like Gecko) Chrome/98.0.4758.102 Safari/537.36",xpyriment,legacy,legacy,0,uniform,0,0,0,0,24,24,24,0,0,74,74,74,74,74,0,74,0,38,38,38,38,38,0,38,06-02-22,06-02-22,10:05:13,Sun Mar 06 2022 10:05:13 GMT+0100 (Central European Standard Time),The main experiment item,yes,0,0,C:/Users/rrics/Documents/!!ResearchBMECOGSCI/gnet,0,0,0,prototype5.png,no,mono,no,18,no,black,no,no,768,1181,3.5.6,legacy,xpyriment,osweb,1.3.13,0,space,right,space,space,30823,23804,25430,30823,2,legacy,864,1462,24,864,24,0,0,1536,1646557518930,1024,2,48000,-16,experiment,p3sarrsha4.png,1,odd,Win32,173,135799,132783,173,173,650390,651894,645387,137317,645387,173,857980,859495,854981,651899,854981,visual_patterns,0,0,0,yes,1366
undefined,undefined,undefined,undefined,white,no,Mozilla,Netscape,"5.0 (Windows NT 10.0; Win64; x64) AppleWebKit/537.36 (KHTML, like Gecko) Chrome/98.0.4758.102 Safari/537.36",xpyriment,legacy,legacy,0,uniform,0,0,0,0,24,24,24,0,0,74,74,74,74,74,0,74,0,39,39,39,39,39,0,39,06-02-22,06-02-22,10:05:13,Sun Mar 06 2022 10:05:13 GMT+0100 (Central European Standard Time),The main experiment item,yes,0,0,C:/Users/rrics/Documents/!!ResearchBMECOGSCI/gnet,0,0,0,prototype5.png,no,mono,no,18,no,black,no,no,768,1181,3.5.6,legacy,xpyriment,osweb,1.3.13,0,space,right,space,space,30823,23804,25430,30823,2,legacy,864,1462,24,864,24,0,0,1536,1646557518930,1024,2,48000,-16,experiment,p3sarr1.png,1,odd,Win32,173,135799,132783,173,173,650390,651894,645387,137317,645387,173,862513,864029,859508,651899,859508,visual_patterns,0,0,0,yes,1366
undefined,undefined,undefined,undefined,white,no,Mozilla,Netscape,"5.0 (Windows NT 10.0; Win64; x64) AppleWebKit/537.36 (KHTML, like Gecko) Chrome/98.0.4758.102 Safari/537.36",xpyriment,legacy,legacy,0,uniform,0,0,0,0,24,24,24,0,0,74,74,74,74,74,0,74,0,40,40,40,40,40,0,40,06-02-22,06-02-22,10:05:13,Sun Mar 06 2022 10:05:13 GMT+0100 (Central European Standard Time),The main experiment item,yes,0,0,C:/Users/rrics/Documents/!!ResearchBMECOGSCI/gnet,0,0,0,prototype5.png,no,mono,no,18,no,black,no,no,768,1181,3.5.6,legacy,xpyriment,osweb,1.3.13,0,space,right,space,space,30823,23804,25430,30823,2,legacy,864,1462,24,864,24,0,0,1536,1646557518930,1024,2,48000,-16,experiment,p2sarrsha3.png,1,odd,Win32,173,135799,132783,173,173,650390,651894,645387,137317,645387,173,867080,868597,864078,651899,864078,visual_patterns,0,0,0,yes,1366
undefined,undefined,undefined,undefined,white,no,Mozilla,Netscape,"5.0 (Windows NT 10.0; Win64; x64) AppleWebKit/537.36 (KHTML, like Gecko) Chrome/98.0.4758.102 Safari/537.36",xpyriment,legacy,legacy,0,uniform,0,0,0,0,24,24,24,0,0,74,74,74,74,74,0,74,0,41,41,41,41,41,0,41,06-02-22,06-02-22,10:05:13,Sun Mar 06 2022 10:05:13 GMT+0100 (Central European Standard Time),The main experiment item,yes,0,0,C:/Users/rrics/Documents/!!ResearchBMECOGSCI/gnet,0,0,0,prototype5.png,no,mono,no,18,no,black,no,no,768,1181,3.5.6,legacy,xpyriment,osweb,1.3.13,0,space,right,space,space,30823,23804,25430,30823,2,legacy,864,1462,24,864,24,0,0,1536,1646557518930,1024,2,48000,-16,experiment,p9sarr3.png,1,odd,Win32,173,135799,132783,173,173,650390,651894,645387,137317,645387,173,871613,873130,868614,651899,868614,visual_patterns,0,0,0,yes,1366
undefined,undefined,undefined,undefined,white,no,Mozilla,Netscape,"5.0 (Windows NT 10.0; Win64; x64) AppleWebKit/537.36 (KHTML, like Gecko) Chrome/98.0.4758.102 Safari/537.36",xpyriment,legacy,legacy,0,uniform,0,0,0,0,24,24,24,0,0,74,74,74,74,74,0,74,0,42,42,42,42,42,0,42,06-02-22,06-02-22,10:05:13,Sun Mar 06 2022 10:05:13 GMT+0100 (Central European Standard Time),The main experiment item,yes,0,0,C:/Users/rrics/Documents/!!ResearchBMECOGSCI/gnet,0,0,0,prototype5.png,no,mono,no,18,no,black,no,no,768,1181,3.5.6,legacy,xpyriment,osweb,1.3.13,0,space,right,space,space,30823,23804,25430,30823,2,legacy,864,1462,24,864,24,0,0,1536,1646557518930,1024,2,48000,-16,experiment,p10sarr4.png,1,odd,Win32,173,135799,132783,173,173,650390,651894,645387,137317,645387,173,876148,877664,873147,651899,873147,visual_patterns,0,0,0,yes,1366
undefined,undefined,undefined,undefined,white,no,Mozilla,Netscape,"5.0 (Windows NT 10.0; Win64; x64) AppleWebKit/537.36 (KHTML, like Gecko) Chrome/98.0.4758.102 Safari/537.36",xpyriment,legacy,legacy,0,uniform,0,0,0,0,24,24,24,0,0,74,74,74,74,74,0,74,0,43,43,43,43,43,0,43,06-02-22,06-02-22,10:05:13,Sun Mar 06 2022 10:05:13 GMT+0100 (Central European Standard Time),The main experiment item,yes,0,0,C:/Users/rrics/Documents/!!ResearchBMECOGSCI/gnet,0,0,0,prototype5.png,no,mono,no,18,no,black,no,no,768,1181,3.5.6,legacy,xpyriment,osweb,1.3.13,0,space,right,space,space,30823,23804,25430,30823,2,legacy,864,1462,24,864,24,0,0,1536,1646557518930,1024,2,48000,-16,experiment,p4sarrcol1.png,1,odd,Win32,173,135799,132783,173,173,650390,651894,645387,137317,645387,173,880676,882181,877677,651899,877677,visual_patterns,0,0,0,yes,1366
undefined,undefined,undefined,undefined,white,no,Mozilla,Netscape,"5.0 (Windows NT 10.0; Win64; x64) AppleWebKit/537.36 (KHTML, like Gecko) Chrome/98.0.4758.102 Safari/537.36",xpyriment,legacy,legacy,0,uniform,0,0,0,0,24,24,24,0,0,74,74,74,74,74,0,74,0,44,44,44,44,44,0,44,06-02-22,06-02-22,10:05:13,Sun Mar 06 2022 10:05:13 GMT+0100 (Central European Standard Time),The main experiment item,yes,0,0,C:/Users/rrics/Documents/!!ResearchBMECOGSCI/gnet,0,0,0,prototype5.png,no,mono,no,18,no,black,no,no,768,1181,3.5.6,legacy,xpyriment,osweb,1.3.13,0,space,right,space,space,30823,23804,25430,30823,2,legacy,864,1462,24,864,24,0,0,1536,1646557518930,1024,2,48000,-16,experiment,p5sarrshacol4.png,1,odd,Win32,173,135799,132783,173,173,650390,651894,645387,137317,645387,173,885193,886698,882192,651899,882192,visual_patterns,0,0,0,yes,1366
undefined,undefined,undefined,undefined,white,no,Mozilla,Netscape,"5.0 (Windows NT 10.0; Win64; x64) AppleWebKit/537.36 (KHTML, like Gecko) Chrome/98.0.4758.102 Safari/537.36",xpyriment,legacy,legacy,0,uniform,0,0,0,0,24,24,24,0,0,74,74,74,74,74,0,74,0,45,45,45,45,45,0,45,06-02-22,06-02-22,10:05:13,Sun Mar 06 2022 10:05:13 GMT+0100 (Central European Standard Time),The main experiment item,yes,0,0,C:/Users/rrics/Documents/!!ResearchBMECOGSCI/gnet,0,0,0,prototype5.png,no,mono,no,18,no,black,no,no,768,1181,3.5.6,legacy,xpyriment,osweb,1.3.13,0,space,right,space,space,30823,23804,25430,30823,2,legacy,864,1462,24,864,24,0,0,1536,1646557518930,1024,2,48000,-16,experiment,p3sarr3.png,1,odd,Win32,173,135799,132783,173,173,650390,651894,645387,137317,645387,173,889708,891215,886708,651899,886708,visual_patterns,0,0,0,yes,1366
undefined,undefined,undefined,undefined,white,no,Mozilla,Netscape,"5.0 (Windows NT 10.0; Win64; x64) AppleWebKit/537.36 (KHTML, like Gecko) Chrome/98.0.4758.102 Safari/537.36",xpyriment,legacy,legacy,0,uniform,0,0,0,0,24,24,24,0,0,74,74,74,74,74,0,74,0,46,46,46,46,46,0,46,06-02-22,06-02-22,10:05:13,Sun Mar 06 2022 10:05:13 GMT+0100 (Central European Standard Time),The main experiment item,yes,0,0,C:/Users/rrics/Documents/!!ResearchBMECOGSCI/gnet,0,0,0,prototype5.png,no,mono,no,18,no,black,no,no,768,1181,3.5.6,legacy,xpyriment,osweb,1.3.13,0,space,right,space,space,30823,23804,25430,30823,2,legacy,864,1462,24,864,24,0,0,1536,1646557518930,1024,2,48000,-16,experiment,p2sarr3.png,1,odd,Win32,173,135799,132783,173,173,650390,651894,645387,137317,645387,173,894232,895749,891235,651899,891234,visual_patterns,0,0,0,yes,1366
