acc,accuracy,average_response_time,avg_rt,background,bidi,browser_codename,browser_name,browser_version,canvas_backend,clock_backend,color_backend,compensation,coordinates,count_end,count_experiment,count_osweb,count_prestudy,count_prestudy_isi,count_prestudy_sequence,count_prestudy_stimpres,count_start,count_study,count_study_coroutines,count_study_isi,count_study_logger,count_study_response,count_study_sequence,count_study_start,count_study_stimpres,count_test,count_test_coroutines,count_test_isi,count_test_logger,count_test_response,count_test_sequence,count_test_start,count_test_stimpres,date_startdate,date_startdateUTC,date_starttime,datetime,description,disable_garbage_collection,experiment_debug,experiment_parameters,experiment_path,experiment_pilot,experiment_taskname,experiment_taskversion,fampict,font_bold,font_family,font_italic,font_size,font_underline,foreground,form_clicks,fullscreen,height,jatosStudyResultId,jatosVersion,keyboard_backend,mouse_backend,opensesame_codename,opensesame_version,repeat_cycle,response,response_start,response_study_start,response_test_start,response_time,response_time_start,response_time_study_start,response_time_test_start,round_decimals,sampler_backend,screen_availableHeight,screen_availableWidth,screen_colorDepth,screen_height,screen_pixelDepth,screen_screenX,screen_screenY,screen_width,sessionid,sound_buf_size,sound_channels,sound_freq,sound_sample_size,start,stim,subject_nr,subject_parity,system_os,time_prestudy,time_prestudy_isi,time_prestudy_stimpres,time_start,time_study,time_study_isi,time_study_logger,time_study_response,time_study_start,time_study_stimpres,time_test,time_test_isi,time_test_logger,time_test_response,time_test_start,time_test_stimpres,title,total_correct,total_response_time,total_responses,uniform_coordinates,width
undefined,undefined,undefined,undefined,white,no,Mozilla,Netscape,"5.0 (Windows NT 10.0; Win64; x64) AppleWebKit/537.36 (KHTML, like Gecko) Chrome/99.0.4844.51 Safari/537.36",xpyriment,legacy,legacy,0,uniform,0,0,0,0,24,24,24,0,0,0,0,0,0,0,0,0,0,,,,,,0,,06-02-22,06-02-22,17:17:23,Sun Mar 06 2022 17:17:23 GMT+0100 (közép-európai téli idő),The main experiment item,yes,0,0,C:/Users/rrics/Documents/!!ResearchBMECOGSCI/gnet,0,0,0,prototype3.png,no,mono,no,18,no,black,no,no,768,1182,3.5.6,legacy,xpyriment,osweb,1.3.13,0,space,space,space,,39996,36686,39996,,2,legacy,728,1366,24,768,24,0,0,1366,1646583532805,1024,2,48000,-16,experiment,p6sarr1.png,0,even,Win32,168,148693,145680,167,168,195246,196765,190250,150212,190249,168,,,,,,visual_patterns,0,0,0,yes,1366
undefined,undefined,undefined,undefined,white,no,Mozilla,Netscape,"5.0 (Windows NT 10.0; Win64; x64) AppleWebKit/537.36 (KHTML, like Gecko) Chrome/99.0.4844.51 Safari/537.36",xpyriment,legacy,legacy,0,uniform,0,0,0,0,24,24,24,0,0,1,1,1,1,1,0,1,0,,,,,,0,,06-02-22,06-02-22,17:17:23,Sun Mar 06 2022 17:17:23 GMT+0100 (közép-európai téli idő),The main experiment item,yes,0,0,C:/Users/rrics/Documents/!!ResearchBMECOGSCI/gnet,0,0,0,prototype3.png,no,mono,no,18,no,black,no,no,768,1182,3.5.6,legacy,xpyriment,osweb,1.3.13,0,space,space,space,,39996,36686,39996,,2,legacy,728,1366,24,768,24,0,0,1366,1646583532805,1024,2,48000,-16,experiment,prototype3.png,0,even,Win32,168,148693,145680,167,168,201821,203328,196818,150212,196818,168,,,,,,visual_patterns,0,0,0,yes,1366
undefined,undefined,undefined,undefined,white,no,Mozilla,Netscape,"5.0 (Windows NT 10.0; Win64; x64) AppleWebKit/537.36 (KHTML, like Gecko) Chrome/99.0.4844.51 Safari/537.36",xpyriment,legacy,legacy,0,uniform,0,0,0,0,24,24,24,0,0,2,2,2,2,2,0,2,0,,,,,,0,,06-02-22,06-02-22,17:17:23,Sun Mar 06 2022 17:17:23 GMT+0100 (közép-európai téli idő),The main experiment item,yes,0,0,C:/Users/rrics/Documents/!!ResearchBMECOGSCI/gnet,0,0,0,prototype3.png,no,mono,no,18,no,black,no,no,768,1182,3.5.6,legacy,xpyriment,osweb,1.3.13,0,space,space,space,,39996,36686,39996,,2,legacy,728,1366,24,768,24,0,0,1366,1646583532805,1024,2,48000,-16,experiment,p3sarr1.png,0,even,Win32,168,148693,145680,167,168,208352,209859,203352,150212,203352,168,,,,,,visual_patterns,0,0,0,yes,1366
undefined,undefined,undefined,undefined,white,no,Mozilla,Netscape,"5.0 (Windows NT 10.0; Win64; x64) AppleWebKit/537.36 (KHTML, like Gecko) Chrome/99.0.4844.51 Safari/537.36",xpyriment,legacy,legacy,0,uniform,0,0,0,0,24,24,24,0,0,3,3,3,3,3,0,3,0,,,,,,0,,06-02-22,06-02-22,17:17:23,Sun Mar 06 2022 17:17:23 GMT+0100 (közép-európai téli idő),The main experiment item,yes,0,0,C:/Users/rrics/Documents/!!ResearchBMECOGSCI/gnet,0,0,0,prototype3.png,no,mono,no,18,no,black,no,no,768,1182,3.5.6,legacy,xpyriment,osweb,1.3.13,0,space,space,space,,39996,36686,39996,,2,legacy,728,1366,24,768,24,0,0,1366,1646583532805,1024,2,48000,-16,experiment,p9sarr2.png,0,even,Win32,168,148693,145680,167,168,214875,216390,209877,150212,209877,168,,,,,,visual_patterns,0,0,0,yes,1366
undefined,undefined,undefined,undefined,white,no,Mozilla,Netscape,"5.0 (Windows NT 10.0; Win64; x64) AppleWebKit/537.36 (KHTML, like Gecko) Chrome/99.0.4844.51 Safari/537.36",xpyriment,legacy,legacy,0,uniform,0,0,0,0,24,24,24,0,0,4,4,4,4,4,0,4,0,,,,,,0,,06-02-22,06-02-22,17:17:23,Sun Mar 06 2022 17:17:23 GMT+0100 (közép-európai téli idő),The main experiment item,yes,0,0,C:/Users/rrics/Documents/!!ResearchBMECOGSCI/gnet,0,0,0,prototype3.png,no,mono,no,18,no,black,no,no,768,1182,3.5.6,legacy,xpyriment,osweb,1.3.13,0,space,space,space,,39996,36686,39996,,2,legacy,728,1366,24,768,24,0,0,1366,1646583532805,1024,2,48000,-16,experiment,p4sarr2.png,0,even,Win32,168,148693,145680,167,168,221407,222922,216411,150212,216411,168,,,,,,visual_patterns,0,0,0,yes,1366
undefined,undefined,undefined,undefined,white,no,Mozilla,Netscape,"5.0 (Windows NT 10.0; Win64; x64) AppleWebKit/537.36 (KHTML, like Gecko) Chrome/99.0.4844.51 Safari/537.36",xpyriment,legacy,legacy,0,uniform,0,0,0,0,24,24,24,0,0,5,5,5,5,5,0,5,0,,,,,,0,,06-02-22,06-02-22,17:17:23,Sun Mar 06 2022 17:17:23 GMT+0100 (közép-európai téli idő),The main experiment item,yes,0,0,C:/Users/rrics/Documents/!!ResearchBMECOGSCI/gnet,0,0,0,prototype3.png,no,mono,no,18,no,black,no,no,768,1182,3.5.6,legacy,xpyriment,osweb,1.3.13,0,space,space,space,,39996,36686,39996,,2,legacy,728,1366,24,768,24,0,0,1366,1646583532805,1024,2,48000,-16,experiment,p4sarrshacol2.png,0,even,Win32,168,148693,145680,167,168,227950,229454,222952,150212,222951,168,,,,,,visual_patterns,0,0,0,yes,1366
undefined,undefined,undefined,undefined,white,no,Mozilla,Netscape,"5.0 (Windows NT 10.0; Win64; x64) AppleWebKit/537.36 (KHTML, like Gecko) Chrome/99.0.4844.51 Safari/537.36",xpyriment,legacy,legacy,0,uniform,0,0,0,0,24,24,24,0,0,6,6,6,6,6,0,6,0,,,,,,0,,06-02-22,06-02-22,17:17:23,Sun Mar 06 2022 17:17:23 GMT+0100 (közép-európai téli idő),The main experiment item,yes,0,0,C:/Users/rrics/Documents/!!ResearchBMECOGSCI/gnet,0,0,0,prototype3.png,no,mono,no,18,no,black,no,no,768,1182,3.5.6,legacy,xpyriment,osweb,1.3.13,0,space,space,space,,39996,36686,39996,,2,legacy,728,1366,24,768,24,0,0,1366,1646583532805,1024,2,48000,-16,experiment,p5sarrsha2.png,0,even,Win32,168,148693,145680,167,168,234470,235985,229476,150212,229476,168,,,,,,visual_patterns,0,0,0,yes,1366
undefined,undefined,undefined,undefined,white,no,Mozilla,Netscape,"5.0 (Windows NT 10.0; Win64; x64) AppleWebKit/537.36 (KHTML, like Gecko) Chrome/99.0.4844.51 Safari/537.36",xpyriment,legacy,legacy,0,uniform,0,0,0,0,24,24,24,0,0,7,7,7,7,7,0,7,0,,,,,,0,,06-02-22,06-02-22,17:17:23,Sun Mar 06 2022 17:17:23 GMT+0100 (közép-európai téli idő),The main experiment item,yes,0,0,C:/Users/rrics/Documents/!!ResearchBMECOGSCI/gnet,0,0,0,prototype3.png,no,mono,no,18,no,black,no,no,768,1182,3.5.6,legacy,xpyriment,osweb,1.3.13,0,space,space,space,,39996,36686,39996,,2,legacy,728,1366,24,768,24,0,0,1366,1646583532805,1024,2,48000,-16,experiment,p2sarr1.png,0,even,Win32,168,148693,145680,167,168,241001,242517,236008,150212,236008,168,,,,,,visual_patterns,0,0,0,yes,1366
undefined,undefined,undefined,undefined,white,no,Mozilla,Netscape,"5.0 (Windows NT 10.0; Win64; x64) AppleWebKit/537.36 (KHTML, like Gecko) Chrome/99.0.4844.51 Safari/537.36",xpyriment,legacy,legacy,0,uniform,0,0,0,0,24,24,24,0,0,8,8,8,8,8,0,8,0,,,,,,0,,06-02-22,06-02-22,17:17:23,Sun Mar 06 2022 17:17:23 GMT+0100 (közép-európai téli idő),The main experiment item,yes,0,0,C:/Users/rrics/Documents/!!ResearchBMECOGSCI/gnet,0,0,0,prototype3.png,no,mono,no,18,no,black,no,no,768,1182,3.5.6,legacy,xpyriment,osweb,1.3.13,0,space,space,space,,39996,36686,39996,,2,legacy,728,1366,24,768,24,0,0,1366,1646583532805,1024,2,48000,-16,experiment,prototype4.png,0,even,Win32,168,148693,145680,167,168,247533,249048,242534,150212,242533,168,,,,,,visual_patterns,0,0,0,yes,1366
undefined,undefined,undefined,undefined,white,no,Mozilla,Netscape,"5.0 (Windows NT 10.0; Win64; x64) AppleWebKit/537.36 (KHTML, like Gecko) Chrome/99.0.4844.51 Safari/537.36",xpyriment,legacy,legacy,0,uniform,0,0,0,0,24,24,24,0,0,9,9,9,9,9,0,9,0,,,,,,0,,06-02-22,06-02-22,17:17:23,Sun Mar 06 2022 17:17:23 GMT+0100 (közép-európai téli idő),The main experiment item,yes,0,0,C:/Users/rrics/Documents/!!ResearchBMECOGSCI/gnet,0,0,0,prototype3.png,no,mono,no,18,no,black,no,no,768,1182,3.5.6,legacy,xpyriment,osweb,1.3.13,0,space,space,space,,39996,36686,39996,,2,legacy,728,1366,24,768,24,0,0,1366,1646583532805,1024,2,48000,-16,experiment,p5sarrsha1.png,0,even,Win32,168,148693,145680,167,168,254065,255580,249065,150212,249065,168,,,,,,visual_patterns,0,0,0,yes,1366
undefined,undefined,undefined,undefined,white,no,Mozilla,Netscape,"5.0 (Windows NT 10.0; Win64; x64) AppleWebKit/537.36 (KHTML, like Gecko) Chrome/99.0.4844.51 Safari/537.36",xpyriment,legacy,legacy,0,uniform,0,0,0,0,24,24,24,0,0,10,10,10,10,10,0,10,0,,,,,,0,,06-02-22,06-02-22,17:17:23,Sun Mar 06 2022 17:17:23 GMT+0100 (közép-európai téli idő),The main experiment item,yes,0,0,C:/Users/rrics/Documents/!!ResearchBMECOGSCI/gnet,0,0,0,prototype3.png,no,mono,no,18,no,black,no,no,768,1182,3.5.6,legacy,xpyriment,osweb,1.3.13,0,space,space,space,,39996,36686,39996,,2,legacy,728,1366,24,768,24,0,0,1366,1646583532805,1024,2,48000,-16,experiment,p5sarrcol1.png,0,even,Win32,168,148693,145680,167,168,260596,262112,255603,150212,255603,168,,,,,,visual_patterns,0,0,0,yes,1366
undefined,undefined,undefined,undefined,white,no,Mozilla,Netscape,"5.0 (Windows NT 10.0; Win64; x64) AppleWebKit/537.36 (KHTML, like Gecko) Chrome/99.0.4844.51 Safari/537.36",xpyriment,legacy,legacy,0,uniform,0,0,0,0,24,24,24,0,0,11,11,11,11,11,0,11,0,,,,,,0,,06-02-22,06-02-22,17:17:23,Sun Mar 06 2022 17:17:23 GMT+0100 (közép-európai téli idő),The main experiment item,yes,0,0,C:/Users/rrics/Documents/!!ResearchBMECOGSCI/gnet,0,0,0,prototype3.png,no,mono,no,18,no,black,no,no,768,1182,3.5.6,legacy,xpyriment,osweb,1.3.13,0,space,space,space,,39996,36686,39996,,2,legacy,728,1366,24,768,24,0,0,1366,1646583532805,1024,2,48000,-16,experiment,p8sarr2.png,0,even,Win32,168,148693,145680,167,168,267137,268643,262135,150212,262135,168,,,,,,visual_patterns,0,0,0,yes,1366
undefined,undefined,undefined,undefined,white,no,Mozilla,Netscape,"5.0 (Windows NT 10.0; Win64; x64) AppleWebKit/537.36 (KHTML, like Gecko) Chrome/99.0.4844.51 Safari/537.36",xpyriment,legacy,legacy,0,uniform,0,0,0,0,24,24,24,0,0,12,12,12,12,12,0,12,0,,,,,,0,,06-02-22,06-02-22,17:17:23,Sun Mar 06 2022 17:17:23 GMT+0100 (közép-európai téli idő),The main experiment item,yes,0,0,C:/Users/rrics/Documents/!!ResearchBMECOGSCI/gnet,0,0,0,prototype3.png,no,mono,no,18,no,black,no,no,768,1182,3.5.6,legacy,xpyriment,osweb,1.3.13,0,space,space,space,,39996,36686,39996,,2,legacy,728,1366,24,768,24,0,0,1366,1646583532805,1024,2,48000,-16,experiment,p5sarrshacol2.png,0,even,Win32,168,148693,145680,167,168,273668,275175,268667,150212,268666,168,,,,,,visual_patterns,0,0,0,yes,1366
undefined,undefined,undefined,undefined,white,no,Mozilla,Netscape,"5.0 (Windows NT 10.0; Win64; x64) AppleWebKit/537.36 (KHTML, like Gecko) Chrome/99.0.4844.51 Safari/537.36",xpyriment,legacy,legacy,0,uniform,0,0,0,0,24,24,24,0,0,13,13,13,13,13,0,13,0,,,,,,0,,06-02-22,06-02-22,17:17:23,Sun Mar 06 2022 17:17:23 GMT+0100 (közép-európai téli idő),The main experiment item,yes,0,0,C:/Users/rrics/Documents/!!ResearchBMECOGSCI/gnet,0,0,0,prototype3.png,no,mono,no,18,no,black,no,no,768,1182,3.5.6,legacy,xpyriment,osweb,1.3.13,0,space,space,space,,39996,36686,39996,,2,legacy,728,1366,24,768,24,0,0,1366,1646583532805,1024,2,48000,-16,experiment,p8sarr1.png,0,even,Win32,168,148693,145680,167,168,280200,281707,275196,150212,275196,168,,,,,,visual_patterns,0,0,0,yes,1366
undefined,undefined,undefined,undefined,white,no,Mozilla,Netscape,"5.0 (Windows NT 10.0; Win64; x64) AppleWebKit/537.36 (KHTML, like Gecko) Chrome/99.0.4844.51 Safari/537.36",xpyriment,legacy,legacy,0,uniform,0,0,0,0,24,24,24,0,0,14,14,14,14,14,0,14,0,,,,,,0,,06-02-22,06-02-22,17:17:23,Sun Mar 06 2022 17:17:23 GMT+0100 (közép-európai téli idő),The main experiment item,yes,0,0,C:/Users/rrics/Documents/!!ResearchBMECOGSCI/gnet,0,0,0,prototype3.png,no,mono,no,18,no,black,no,no,768,1182,3.5.6,legacy,xpyriment,osweb,1.3.13,0,space,space,space,,39996,36686,39996,,2,legacy,728,1366,24,768,24,0,0,1366,1646583532805,1024,2,48000,-16,experiment,p3sarrcol1.png,0,even,Win32,168,148693,145680,167,168,286722,288238,281728,150212,281728,168,,,,,,visual_patterns,0,0,0,yes,1366
undefined,undefined,undefined,undefined,white,no,Mozilla,Netscape,"5.0 (Windows NT 10.0; Win64; x64) AppleWebKit/537.36 (KHTML, like Gecko) Chrome/99.0.4844.51 Safari/537.36",xpyriment,legacy,legacy,0,uniform,0,0,0,0,24,24,24,0,0,15,15,15,15,15,0,15,0,,,,,,0,,06-02-22,06-02-22,17:17:23,Sun Mar 06 2022 17:17:23 GMT+0100 (közép-európai téli idő),The main experiment item,yes,0,0,C:/Users/rrics/Documents/!!ResearchBMECOGSCI/gnet,0,0,0,prototype3.png,no,mono,no,18,no,black,no,no,768,1182,3.5.6,legacy,xpyriment,osweb,1.3.13,0,space,space,space,,39996,36686,39996,,2,legacy,728,1366,24,768,24,0,0,1366,1646583532805,1024,2,48000,-16,experiment,prototype1.png,0,even,Win32,168,148693,145680,167,168,293262,294770,288257,150212,288257,168,,,,,,visual_patterns,0,0,0,yes,1366
undefined,undefined,undefined,undefined,white,no,Mozilla,Netscape,"5.0 (Windows NT 10.0; Win64; x64) AppleWebKit/537.36 (KHTML, like Gecko) Chrome/99.0.4844.51 Safari/537.36",xpyriment,legacy,legacy,0,uniform,0,0,0,0,24,24,24,0,0,16,16,16,16,16,0,16,0,,,,,,0,,06-02-22,06-02-22,17:17:23,Sun Mar 06 2022 17:17:23 GMT+0100 (közép-európai téli idő),The main experiment item,yes,0,0,C:/Users/rrics/Documents/!!ResearchBMECOGSCI/gnet,0,0,0,prototype3.png,no,mono,no,18,no,black,no,no,768,1182,3.5.6,legacy,xpyriment,osweb,1.3.13,0,space,space,space,,39996,36686,39996,,2,legacy,728,1366,24,768,24,0,0,1366,1646583532805,1024,2,48000,-16,experiment,p2sarr2.png,0,even,Win32,168,148693,145680,167,168,299797,301301,294792,150212,294792,168,,,,,,visual_patterns,0,0,0,yes,1366
undefined,undefined,undefined,undefined,white,no,Mozilla,Netscape,"5.0 (Windows NT 10.0; Win64; x64) AppleWebKit/537.36 (KHTML, like Gecko) Chrome/99.0.4844.51 Safari/537.36",xpyriment,legacy,legacy,0,uniform,0,0,0,0,24,24,24,0,0,17,17,17,17,17,0,17,0,,,,,,0,,06-02-22,06-02-22,17:17:23,Sun Mar 06 2022 17:17:23 GMT+0100 (közép-európai téli idő),The main experiment item,yes,0,0,C:/Users/rrics/Documents/!!ResearchBMECOGSCI/gnet,0,0,0,prototype3.png,no,mono,no,18,no,black,no,no,768,1182,3.5.6,legacy,xpyriment,osweb,1.3.13,0,space,space,space,,39996,36686,39996,,2,legacy,728,1366,24,768,24,0,0,1366,1646583532805,1024,2,48000,-16,experiment,p3sarrsha2.png,0,even,Win32,168,148693,145680,167,168,306326,307833,301326,150212,301326,168,,,,,,visual_patterns,0,0,0,yes,1366
undefined,undefined,undefined,undefined,white,no,Mozilla,Netscape,"5.0 (Windows NT 10.0; Win64; x64) AppleWebKit/537.36 (KHTML, like Gecko) Chrome/99.0.4844.51 Safari/537.36",xpyriment,legacy,legacy,0,uniform,0,0,0,0,24,24,24,0,0,18,18,18,18,18,0,18,0,,,,,,0,,06-02-22,06-02-22,17:17:23,Sun Mar 06 2022 17:17:23 GMT+0100 (közép-európai téli idő),The main experiment item,yes,0,0,C:/Users/rrics/Documents/!!ResearchBMECOGSCI/gnet,0,0,0,prototype3.png,no,mono,no,18,no,black,no,no,768,1182,3.5.6,legacy,xpyriment,osweb,1.3.13,0,space,space,space,,39996,36686,39996,,2,legacy,728,1366,24,768,24,0,0,1366,1646583532805,1024,2,48000,-16,experiment,prototype4.png,0,even,Win32,168,148693,145680,167,168,312849,314365,307853,150212,307853,168,,,,,,visual_patterns,0,0,0,yes,1366
undefined,undefined,undefined,undefined,white,no,Mozilla,Netscape,"5.0 (Windows NT 10.0; Win64; x64) AppleWebKit/537.36 (KHTML, like Gecko) Chrome/99.0.4844.51 Safari/537.36",xpyriment,legacy,legacy,0,uniform,0,0,0,0,24,24,24,0,0,19,19,19,19,19,0,19,0,,,,,,0,,06-02-22,06-02-22,17:17:23,Sun Mar 06 2022 17:17:23 GMT+0100 (közép-európai téli idő),The main experiment item,yes,0,0,C:/Users/rrics/Documents/!!ResearchBMECOGSCI/gnet,0,0,0,prototype3.png,no,mono,no,18,no,black,no,no,768,1182,3.5.6,legacy,xpyriment,osweb,1.3.13,0,space,space,space,,39996,36686,39996,,2,legacy,728,1366,24,768,24,0,0,1366,1646583532805,1024,2,48000,-16,experiment,p3sarrsha1.png,0,even,Win32,168,148693,145680,167,168,319389,320896,314387,150212,314387,168,,,,,,visual_patterns,0,0,0,yes,1366
undefined,undefined,undefined,undefined,white,no,Mozilla,Netscape,"5.0 (Windows NT 10.0; Win64; x64) AppleWebKit/537.36 (KHTML, like Gecko) Chrome/99.0.4844.51 Safari/537.36",xpyriment,legacy,legacy,0,uniform,0,0,0,0,24,24,24,0,0,20,20,20,20,20,0,20,0,,,,,,0,,06-02-22,06-02-22,17:17:23,Sun Mar 06 2022 17:17:23 GMT+0100 (közép-európai téli idő),The main experiment item,yes,0,0,C:/Users/rrics/Documents/!!ResearchBMECOGSCI/gnet,0,0,0,prototype3.png,no,mono,no,18,no,black,no,no,768,1182,3.5.6,legacy,xpyriment,osweb,1.3.13,0,space,space,space,,39996,36686,39996,,2,legacy,728,1366,24,768,24,0,0,1366,1646583532805,1024,2,48000,-16,experiment,prototype2.png,0,even,Win32,168,148693,145680,167,168,325912,327428,320912,150212,320912,168,,,,,,visual_patterns,0,0,0,yes,1366
undefined,undefined,undefined,undefined,white,no,Mozilla,Netscape,"5.0 (Windows NT 10.0; Win64; x64) AppleWebKit/537.36 (KHTML, like Gecko) Chrome/99.0.4844.51 Safari/537.36",xpyriment,legacy,legacy,0,uniform,0,0,0,0,24,24,24,0,0,21,21,21,21,21,0,21,0,,,,,,0,,06-02-22,06-02-22,17:17:23,Sun Mar 06 2022 17:17:23 GMT+0100 (közép-európai téli idő),The main experiment item,yes,0,0,C:/Users/rrics/Documents/!!ResearchBMECOGSCI/gnet,0,0,0,prototype3.png,no,mono,no,18,no,black,no,no,768,1182,3.5.6,legacy,xpyriment,osweb,1.3.13,0,space,space,space,,39996,36686,39996,,2,legacy,728,1366,24,768,24,0,0,1366,1646583532805,1024,2,48000,-16,experiment,p4sarrcol2.png,0,even,Win32,168,148693,145680,167,168,332454,333960,327450,150212,327450,168,,,,,,visual_patterns,0,0,0,yes,1366
undefined,undefined,undefined,undefined,white,no,Mozilla,Netscape,"5.0 (Windows NT 10.0; Win64; x64) AppleWebKit/537.36 (KHTML, like Gecko) Chrome/99.0.4844.51 Safari/537.36",xpyriment,legacy,legacy,0,uniform,0,0,0,0,24,24,24,0,0,22,22,22,22,22,0,22,0,,,,,,0,,06-02-22,06-02-22,17:17:23,Sun Mar 06 2022 17:17:23 GMT+0100 (közép-európai téli idő),The main experiment item,yes,0,0,C:/Users/rrics/Documents/!!ResearchBMECOGSCI/gnet,0,0,0,prototype3.png,no,mono,no,18,no,black,no,no,768,1182,3.5.6,legacy,xpyriment,osweb,1.3.13,0,space,space,space,,39996,36686,39996,,2,legacy,728,1366,24,768,24,0,0,1366,1646583532805,1024,2,48000,-16,experiment,p5sarrshacol1.png,0,even,Win32,168,148693,145680,167,168,338975,340491,333983,150212,333983,168,,,,,,visual_patterns,0,0,0,yes,1366
undefined,undefined,undefined,undefined,white,no,Mozilla,Netscape,"5.0 (Windows NT 10.0; Win64; x64) AppleWebKit/537.36 (KHTML, like Gecko) Chrome/99.0.4844.51 Safari/537.36",xpyriment,legacy,legacy,0,uniform,0,0,0,0,24,24,24,0,0,23,23,23,23,23,0,23,0,,,,,,0,,06-02-22,06-02-22,17:17:23,Sun Mar 06 2022 17:17:23 GMT+0100 (közép-európai téli idő),The main experiment item,yes,0,0,C:/Users/rrics/Documents/!!ResearchBMECOGSCI/gnet,0,0,0,prototype3.png,no,mono,no,18,no,black,no,no,768,1182,3.5.6,legacy,xpyriment,osweb,1.3.13,0,space,space,space,,39996,36686,39996,,2,legacy,728,1366,24,768,24,0,0,1366,1646583532805,1024,2,48000,-16,experiment,prototype2.png,0,even,Win32,168,148693,145680,167,168,345507,347023,340506,150212,340506,168,,,,,,visual_patterns,0,0,0,yes,1366
undefined,undefined,undefined,undefined,white,no,Mozilla,Netscape,"5.0 (Windows NT 10.0; Win64; x64) AppleWebKit/537.36 (KHTML, like Gecko) Chrome/99.0.4844.51 Safari/537.36",xpyriment,legacy,legacy,0,uniform,0,0,0,0,24,24,24,0,0,24,24,24,24,24,0,24,0,,,,,,0,,06-02-22,06-02-22,17:17:23,Sun Mar 06 2022 17:17:23 GMT+0100 (közép-európai téli idő),The main experiment item,yes,0,0,C:/Users/rrics/Documents/!!ResearchBMECOGSCI/gnet,0,0,0,prototype3.png,no,mono,no,18,no,black,no,no,768,1182,3.5.6,legacy,xpyriment,osweb,1.3.13,0,space,space,space,,39996,36686,39996,,2,legacy,728,1366,24,768,24,0,0,1366,1646583532805,1024,2,48000,-16,experiment,p4sarrsha2.png,0,even,Win32,168,148693,145680,167,168,352048,353554,347045,150212,347045,168,,,,,,visual_patterns,0,0,0,yes,1366
undefined,undefined,undefined,undefined,white,no,Mozilla,Netscape,"5.0 (Windows NT 10.0; Win64; x64) AppleWebKit/537.36 (KHTML, like Gecko) Chrome/99.0.4844.51 Safari/537.36",xpyriment,legacy,legacy,0,uniform,0,0,0,0,24,24,24,0,0,25,25,25,25,25,0,25,0,,,,,,0,,06-02-22,06-02-22,17:17:23,Sun Mar 06 2022 17:17:23 GMT+0100 (közép-európai téli idő),The main experiment item,yes,0,0,C:/Users/rrics/Documents/!!ResearchBMECOGSCI/gnet,0,0,0,prototype3.png,no,mono,no,18,no,black,no,no,768,1182,3.5.6,legacy,xpyriment,osweb,1.3.13,0,space,space,space,,39996,36686,39996,,2,legacy,728,1366,24,768,24,0,0,1366,1646583532805,1024,2,48000,-16,experiment,p9sarr1.png,0,even,Win32,168,148693,145680,167,168,358580,360086,353579,150212,353579,168,,,,,,visual_patterns,0,0,0,yes,1366
undefined,undefined,undefined,undefined,white,no,Mozilla,Netscape,"5.0 (Windows NT 10.0; Win64; x64) AppleWebKit/537.36 (KHTML, like Gecko) Chrome/99.0.4844.51 Safari/537.36",xpyriment,legacy,legacy,0,uniform,0,0,0,0,24,24,24,0,0,26,26,26,26,26,0,26,0,,,,,,0,,06-02-22,06-02-22,17:17:23,Sun Mar 06 2022 17:17:23 GMT+0100 (közép-európai téli idő),The main experiment item,yes,0,0,C:/Users/rrics/Documents/!!ResearchBMECOGSCI/gnet,0,0,0,prototype3.png,no,mono,no,18,no,black,no,no,768,1182,3.5.6,legacy,xpyriment,osweb,1.3.13,0,space,space,space,,39996,36686,39996,,2,legacy,728,1366,24,768,24,0,0,1366,1646583532805,1024,2,48000,-16,experiment,prototype1.png,0,even,Win32,168,148693,145680,167,168,365135,366651,360134,150212,360134,168,,,,,,visual_patterns,0,0,0,yes,1366
undefined,undefined,undefined,undefined,white,no,Mozilla,Netscape,"5.0 (Windows NT 10.0; Win64; x64) AppleWebKit/537.36 (KHTML, like Gecko) Chrome/99.0.4844.51 Safari/537.36",xpyriment,legacy,legacy,0,uniform,0,0,0,0,24,24,24,0,0,27,27,27,27,27,0,27,0,,,,,,0,,06-02-22,06-02-22,17:17:23,Sun Mar 06 2022 17:17:23 GMT+0100 (közép-európai téli idő),The main experiment item,yes,0,0,C:/Users/rrics/Documents/!!ResearchBMECOGSCI/gnet,0,0,0,prototype3.png,no,mono,no,18,no,black,no,no,768,1182,3.5.6,legacy,xpyriment,osweb,1.3.13,0,space,space,space,,39996,36686,39996,,2,legacy,728,1366,24,768,24,0,0,1366,1646583532805,1024,2,48000,-16,experiment,p4sarrcol1.png,0,even,Win32,168,148693,145680,167,168,371676,373183,366678,150212,366678,168,,,,,,visual_patterns,0,0,0,yes,1366
undefined,undefined,undefined,undefined,white,no,Mozilla,Netscape,"5.0 (Windows NT 10.0; Win64; x64) AppleWebKit/537.36 (KHTML, like Gecko) Chrome/99.0.4844.51 Safari/537.36",xpyriment,legacy,legacy,0,uniform,0,0,0,0,24,24,24,0,0,28,28,28,28,28,0,28,0,,,,,,0,,06-02-22,06-02-22,17:17:23,Sun Mar 06 2022 17:17:23 GMT+0100 (közép-európai téli idő),The main experiment item,yes,0,0,C:/Users/rrics/Documents/!!ResearchBMECOGSCI/gnet,0,0,0,prototype3.png,no,mono,no,18,no,black,no,no,768,1182,3.5.6,legacy,xpyriment,osweb,1.3.13,0,space,space,space,,39996,36686,39996,,2,legacy,728,1366,24,768,24,0,0,1366,1646583532805,1024,2,48000,-16,experiment,prototype4.png,0,even,Win32,168,148693,145680,167,168,378199,379714,373201,150212,373201,168,,,,,,visual_patterns,0,0,0,yes,1366
undefined,undefined,undefined,undefined,white,no,Mozilla,Netscape,"5.0 (Windows NT 10.0; Win64; x64) AppleWebKit/537.36 (KHTML, like Gecko) Chrome/99.0.4844.51 Safari/537.36",xpyriment,legacy,legacy,0,uniform,0,0,0,0,24,24,24,0,0,29,29,29,29,29,0,29,0,,,,,,0,,06-02-22,06-02-22,17:17:23,Sun Mar 06 2022 17:17:23 GMT+0100 (közép-európai téli idő),The main experiment item,yes,0,0,C:/Users/rrics/Documents/!!ResearchBMECOGSCI/gnet,0,0,0,prototype3.png,no,mono,no,18,no,black,no,no,768,1182,3.5.6,legacy,xpyriment,osweb,1.3.13,0,space,space,space,,39996,36686,39996,,2,legacy,728,1366,24,768,24,0,0,1366,1646583532805,1024,2,48000,-16,experiment,prototype5.png,0,even,Win32,168,148693,145680,167,168,384740,386246,379733,150212,379733,168,,,,,,visual_patterns,0,0,0,yes,1366
undefined,undefined,undefined,undefined,white,no,Mozilla,Netscape,"5.0 (Windows NT 10.0; Win64; x64) AppleWebKit/537.36 (KHTML, like Gecko) Chrome/99.0.4844.51 Safari/537.36",xpyriment,legacy,legacy,0,uniform,0,0,0,0,24,24,24,0,0,30,30,30,30,30,0,30,0,,,,,,0,,06-02-22,06-02-22,17:17:23,Sun Mar 06 2022 17:17:23 GMT+0100 (közép-európai téli idő),The main experiment item,yes,0,0,C:/Users/rrics/Documents/!!ResearchBMECOGSCI/gnet,0,0,0,prototype3.png,no,mono,no,18,no,black,no,no,768,1182,3.5.6,legacy,xpyriment,osweb,1.3.13,0,space,space,space,,39996,36686,39996,,2,legacy,728,1366,24,768,24,0,0,1366,1646583532805,1024,2,48000,-16,experiment,p5sarrcol2.png,0,even,Win32,168,148693,145680,167,168,391263,392777,386268,150212,386267,168,,,,,,visual_patterns,0,0,0,yes,1366
undefined,undefined,undefined,undefined,white,no,Mozilla,Netscape,"5.0 (Windows NT 10.0; Win64; x64) AppleWebKit/537.36 (KHTML, like Gecko) Chrome/99.0.4844.51 Safari/537.36",xpyriment,legacy,legacy,0,uniform,0,0,0,0,24,24,24,0,0,31,31,31,31,31,0,31,0,,,,,,0,,06-02-22,06-02-22,17:17:23,Sun Mar 06 2022 17:17:23 GMT+0100 (közép-európai téli idő),The main experiment item,yes,0,0,C:/Users/rrics/Documents/!!ResearchBMECOGSCI/gnet,0,0,0,prototype3.png,no,mono,no,18,no,black,no,no,768,1182,3.5.6,legacy,xpyriment,osweb,1.3.13,0,space,space,space,,39996,36686,39996,,2,legacy,728,1366,24,768,24,0,0,1366,1646583532805,1024,2,48000,-16,experiment,p2sarrsha2.png,0,even,Win32,168,148693,145680,167,168,397800,399309,392799,150212,392799,168,,,,,,visual_patterns,0,0,0,yes,1366
undefined,undefined,undefined,undefined,white,no,Mozilla,Netscape,"5.0 (Windows NT 10.0; Win64; x64) AppleWebKit/537.36 (KHTML, like Gecko) Chrome/99.0.4844.51 Safari/537.36",xpyriment,legacy,legacy,0,uniform,0,0,0,0,24,24,24,0,0,32,32,32,32,32,0,32,0,,,,,,0,,06-02-22,06-02-22,17:17:23,Sun Mar 06 2022 17:17:23 GMT+0100 (közép-európai téli idő),The main experiment item,yes,0,0,C:/Users/rrics/Documents/!!ResearchBMECOGSCI/gnet,0,0,0,prototype3.png,no,mono,no,18,no,black,no,no,768,1182,3.5.6,legacy,xpyriment,osweb,1.3.13,0,space,space,space,,39996,36686,39996,,2,legacy,728,1366,24,768,24,0,0,1366,1646583532805,1024,2,48000,-16,experiment,p5sarr1.png,0,even,Win32,168,148693,145680,167,168,404325,405841,399329,150212,399329,168,,,,,,visual_patterns,0,0,0,yes,1366
undefined,undefined,undefined,undefined,white,no,Mozilla,Netscape,"5.0 (Windows NT 10.0; Win64; x64) AppleWebKit/537.36 (KHTML, like Gecko) Chrome/99.0.4844.51 Safari/537.36",xpyriment,legacy,legacy,0,uniform,0,0,0,0,24,24,24,0,0,33,33,33,33,33,0,33,0,,,,,,0,,06-02-22,06-02-22,17:17:23,Sun Mar 06 2022 17:17:23 GMT+0100 (közép-európai téli idő),The main experiment item,yes,0,0,C:/Users/rrics/Documents/!!ResearchBMECOGSCI/gnet,0,0,0,prototype3.png,no,mono,no,18,no,black,no,no,768,1182,3.5.6,legacy,xpyriment,osweb,1.3.13,0,space,space,space,,39996,36686,39996,,2,legacy,728,1366,24,768,24,0,0,1366,1646583532805,1024,2,48000,-16,experiment,p3sarrshacol1.png,0,even,Win32,168,148693,145680,167,168,410866,412372,405865,150212,405865,168,,,,,,visual_patterns,0,0,0,yes,1366
undefined,undefined,undefined,undefined,white,no,Mozilla,Netscape,"5.0 (Windows NT 10.0; Win64; x64) AppleWebKit/537.36 (KHTML, like Gecko) Chrome/99.0.4844.51 Safari/537.36",xpyriment,legacy,legacy,0,uniform,0,0,0,0,24,24,24,0,0,34,34,34,34,34,0,34,0,,,,,,0,,06-02-22,06-02-22,17:17:23,Sun Mar 06 2022 17:17:23 GMT+0100 (közép-európai téli idő),The main experiment item,yes,0,0,C:/Users/rrics/Documents/!!ResearchBMECOGSCI/gnet,0,0,0,prototype3.png,no,mono,no,18,no,black,no,no,768,1182,3.5.6,legacy,xpyriment,osweb,1.3.13,0,space,space,space,,39996,36686,39996,,2,legacy,728,1366,24,768,24,0,0,1366,1646583532805,1024,2,48000,-16,experiment,prototype1.png,0,even,Win32,168,148693,145680,167,168,417398,418904,412391,150212,412391,168,,,,,,visual_patterns,0,0,0,yes,1366
undefined,undefined,undefined,undefined,white,no,Mozilla,Netscape,"5.0 (Windows NT 10.0; Win64; x64) AppleWebKit/537.36 (KHTML, like Gecko) Chrome/99.0.4844.51 Safari/537.36",xpyriment,legacy,legacy,0,uniform,0,0,0,0,24,24,24,0,0,35,35,35,35,35,0,35,0,,,,,,0,,06-02-22,06-02-22,17:17:23,Sun Mar 06 2022 17:17:23 GMT+0100 (közép-európai téli idő),The main experiment item,yes,0,0,C:/Users/rrics/Documents/!!ResearchBMECOGSCI/gnet,0,0,0,prototype3.png,no,mono,no,18,no,black,no,no,768,1182,3.5.6,legacy,xpyriment,osweb,1.3.13,0,space,space,space,,39996,36686,39996,,2,legacy,728,1366,24,768,24,0,0,1366,1646583532805,1024,2,48000,-16,experiment,p4sarrshacol1.png,0,even,Win32,168,148693,145680,167,168,423920,425435,418923,150212,418923,168,,,,,,visual_patterns,0,0,0,yes,1366
undefined,undefined,undefined,undefined,white,no,Mozilla,Netscape,"5.0 (Windows NT 10.0; Win64; x64) AppleWebKit/537.36 (KHTML, like Gecko) Chrome/99.0.4844.51 Safari/537.36",xpyriment,legacy,legacy,0,uniform,0,0,0,0,24,24,24,0,0,36,36,36,36,36,0,36,0,,,,,,0,,06-02-22,06-02-22,17:17:23,Sun Mar 06 2022 17:17:23 GMT+0100 (közép-európai téli idő),The main experiment item,yes,0,0,C:/Users/rrics/Documents/!!ResearchBMECOGSCI/gnet,0,0,0,prototype3.png,no,mono,no,18,no,black,no,no,768,1182,3.5.6,legacy,xpyriment,osweb,1.3.13,0,space,space,space,,39996,36686,39996,,2,legacy,728,1366,24,768,24,0,0,1366,1646583532805,1024,2,48000,-16,experiment,prototype3.png,0,even,Win32,168,148693,145680,167,168,430451,431967,425450,150212,425450,168,,,,,,visual_patterns,0,0,0,yes,1366
undefined,undefined,undefined,undefined,white,no,Mozilla,Netscape,"5.0 (Windows NT 10.0; Win64; x64) AppleWebKit/537.36 (KHTML, like Gecko) Chrome/99.0.4844.51 Safari/537.36",xpyriment,legacy,legacy,0,uniform,0,0,0,0,24,24,24,0,0,37,37,37,37,37,0,37,0,,,,,,0,,06-02-22,06-02-22,17:17:23,Sun Mar 06 2022 17:17:23 GMT+0100 (közép-európai téli idő),The main experiment item,yes,0,0,C:/Users/rrics/Documents/!!ResearchBMECOGSCI/gnet,0,0,0,prototype3.png,no,mono,no,18,no,black,no,no,768,1182,3.5.6,legacy,xpyriment,osweb,1.3.13,0,space,space,space,,39996,36686,39996,,2,legacy,728,1366,24,768,24,0,0,1366,1646583532805,1024,2,48000,-16,experiment,prototype3.png,0,even,Win32,168,148693,145680,167,168,436996,438499,431989,150212,431988,168,,,,,,visual_patterns,0,0,0,yes,1366
undefined,undefined,undefined,undefined,white,no,Mozilla,Netscape,"5.0 (Windows NT 10.0; Win64; x64) AppleWebKit/537.36 (KHTML, like Gecko) Chrome/99.0.4844.51 Safari/537.36",xpyriment,legacy,legacy,0,uniform,0,0,0,0,24,24,24,0,0,38,38,38,38,38,0,38,0,,,,,,0,,06-02-22,06-02-22,17:17:23,Sun Mar 06 2022 17:17:23 GMT+0100 (közép-európai téli idő),The main experiment item,yes,0,0,C:/Users/rrics/Documents/!!ResearchBMECOGSCI/gnet,0,0,0,prototype3.png,no,mono,no,18,no,black,no,no,768,1182,3.5.6,legacy,xpyriment,osweb,1.3.13,0,space,space,space,,39996,36686,39996,,2,legacy,728,1366,24,768,24,0,0,1366,1646583532805,1024,2,48000,-16,experiment,p7sarr1.png,0,even,Win32,168,148693,145680,167,168,443525,445030,438526,150212,438526,168,,,,,,visual_patterns,0,0,0,yes,1366
undefined,undefined,undefined,undefined,white,no,Mozilla,Netscape,"5.0 (Windows NT 10.0; Win64; x64) AppleWebKit/537.36 (KHTML, like Gecko) Chrome/99.0.4844.51 Safari/537.36",xpyriment,legacy,legacy,0,uniform,0,0,0,0,24,24,24,0,0,39,39,39,39,39,0,39,0,,,,,,0,,06-02-22,06-02-22,17:17:23,Sun Mar 06 2022 17:17:23 GMT+0100 (közép-európai téli idő),The main experiment item,yes,0,0,C:/Users/rrics/Documents/!!ResearchBMECOGSCI/gnet,0,0,0,prototype3.png,no,mono,no,18,no,black,no,no,768,1182,3.5.6,legacy,xpyriment,osweb,1.3.13,0,space,space,space,,39996,36686,39996,,2,legacy,728,1366,24,768,24,0,0,1366,1646583532805,1024,2,48000,-16,experiment,p1sarrsha1.png,0,even,Win32,168,148693,145680,167,168,450060,451562,445056,150212,445056,168,,,,,,visual_patterns,0,0,0,yes,1366
undefined,undefined,undefined,undefined,white,no,Mozilla,Netscape,"5.0 (Windows NT 10.0; Win64; x64) AppleWebKit/537.36 (KHTML, like Gecko) Chrome/99.0.4844.51 Safari/537.36",xpyriment,legacy,legacy,0,uniform,0,0,0,0,24,24,24,0,0,40,40,40,40,40,0,40,0,,,,,,0,,06-02-22,06-02-22,17:17:23,Sun Mar 06 2022 17:17:23 GMT+0100 (közép-európai téli idő),The main experiment item,yes,0,0,C:/Users/rrics/Documents/!!ResearchBMECOGSCI/gnet,0,0,0,prototype3.png,no,mono,no,18,no,black,no,no,768,1182,3.5.6,legacy,xpyriment,osweb,1.3.13,0,space,space,space,,39996,36686,39996,,2,legacy,728,1366,24,768,24,0,0,1366,1646583532805,1024,2,48000,-16,experiment,prototype5.png,0,even,Win32,168,148693,145680,167,168,456578,458094,451580,150212,451580,168,,,,,,visual_patterns,0,0,0,yes,1366
undefined,undefined,undefined,undefined,white,no,Mozilla,Netscape,"5.0 (Windows NT 10.0; Win64; x64) AppleWebKit/537.36 (KHTML, like Gecko) Chrome/99.0.4844.51 Safari/537.36",xpyriment,legacy,legacy,0,uniform,0,0,0,0,24,24,24,0,0,41,41,41,41,41,0,41,0,,,,,,0,,06-02-22,06-02-22,17:17:23,Sun Mar 06 2022 17:17:23 GMT+0100 (közép-európai téli idő),The main experiment item,yes,0,0,C:/Users/rrics/Documents/!!ResearchBMECOGSCI/gnet,0,0,0,prototype3.png,no,mono,no,18,no,black,no,no,768,1182,3.5.6,legacy,xpyriment,osweb,1.3.13,0,space,space,space,,39996,36686,39996,,2,legacy,728,1366,24,768,24,0,0,1366,1646583532805,1024,2,48000,-16,experiment,p3sarrshacol2.png,0,even,Win32,168,148693,145680,167,168,463110,464625,458115,150212,458115,168,,,,,,visual_patterns,0,0,0,yes,1366
undefined,undefined,undefined,undefined,white,no,Mozilla,Netscape,"5.0 (Windows NT 10.0; Win64; x64) AppleWebKit/537.36 (KHTML, like Gecko) Chrome/99.0.4844.51 Safari/537.36",xpyriment,legacy,legacy,0,uniform,0,0,0,0,24,24,24,0,0,42,42,42,42,42,0,42,0,,,,,,0,,06-02-22,06-02-22,17:17:23,Sun Mar 06 2022 17:17:23 GMT+0100 (közép-európai téli idő),The main experiment item,yes,0,0,C:/Users/rrics/Documents/!!ResearchBMECOGSCI/gnet,0,0,0,prototype3.png,no,mono,no,18,no,black,no,no,768,1182,3.5.6,legacy,xpyriment,osweb,1.3.13,0,space,space,space,,39996,36686,39996,,2,legacy,728,1366,24,768,24,0,0,1366,1646583532805,1024,2,48000,-16,experiment,p3sarrcol2.png,0,even,Win32,168,148693,145680,167,168,469641,471157,464648,150212,464648,168,,,,,,visual_patterns,0,0,0,yes,1366
undefined,undefined,undefined,undefined,white,no,Mozilla,Netscape,"5.0 (Windows NT 10.0; Win64; x64) AppleWebKit/537.36 (KHTML, like Gecko) Chrome/99.0.4844.51 Safari/537.36",xpyriment,legacy,legacy,0,uniform,0,0,0,0,24,24,24,0,0,43,43,43,43,43,0,43,0,,,,,,0,,06-02-22,06-02-22,17:17:23,Sun Mar 06 2022 17:17:23 GMT+0100 (közép-európai téli idő),The main experiment item,yes,0,0,C:/Users/rrics/Documents/!!ResearchBMECOGSCI/gnet,0,0,0,prototype3.png,no,mono,no,18,no,black,no,no,768,1182,3.5.6,legacy,xpyriment,osweb,1.3.13,0,space,space,space,,39996,36686,39996,,2,legacy,728,1366,24,768,24,0,0,1366,1646583532805,1024,2,48000,-16,experiment,p3sarr2.png,0,even,Win32,168,148693,145680,167,168,476184,477689,471180,150212,471180,168,,,,,,visual_patterns,0,0,0,yes,1366
undefined,undefined,undefined,undefined,white,no,Mozilla,Netscape,"5.0 (Windows NT 10.0; Win64; x64) AppleWebKit/537.36 (KHTML, like Gecko) Chrome/99.0.4844.51 Safari/537.36",xpyriment,legacy,legacy,0,uniform,0,0,0,0,24,24,24,0,0,44,44,44,44,44,0,44,0,,,,,,0,,06-02-22,06-02-22,17:17:23,Sun Mar 06 2022 17:17:23 GMT+0100 (közép-európai téli idő),The main experiment item,yes,0,0,C:/Users/rrics/Documents/!!ResearchBMECOGSCI/gnet,0,0,0,prototype3.png,no,mono,no,18,no,black,no,no,768,1182,3.5.6,legacy,xpyriment,osweb,1.3.13,0,space,space,space,,39996,36686,39996,,2,legacy,728,1366,24,768,24,0,0,1366,1646583532805,1024,2,48000,-16,experiment,p2sarrsha1.png,0,even,Win32,168,148693,145680,167,168,482704,484220,477710,150212,477710,168,,,,,,visual_patterns,0,0,0,yes,1366
undefined,undefined,undefined,undefined,white,no,Mozilla,Netscape,"5.0 (Windows NT 10.0; Win64; x64) AppleWebKit/537.36 (KHTML, like Gecko) Chrome/99.0.4844.51 Safari/537.36",xpyriment,legacy,legacy,0,uniform,0,0,0,0,24,24,24,0,0,45,45,45,45,45,0,45,0,,,,,,0,,06-02-22,06-02-22,17:17:23,Sun Mar 06 2022 17:17:23 GMT+0100 (közép-európai téli idő),The main experiment item,yes,0,0,C:/Users/rrics/Documents/!!ResearchBMECOGSCI/gnet,0,0,0,prototype3.png,no,mono,no,18,no,black,no,no,768,1182,3.5.6,legacy,xpyriment,osweb,1.3.13,0,space,space,space,,39996,36686,39996,,2,legacy,728,1366,24,768,24,0,0,1366,1646583532805,1024,2,48000,-16,experiment,p4sarrsha1.png,0,even,Win32,168,148693,145680,167,168,489243,490753,484244,150212,484244,168,,,,,,visual_patterns,0,0,0,yes,1366
undefined,undefined,undefined,undefined,white,no,Mozilla,Netscape,"5.0 (Windows NT 10.0; Win64; x64) AppleWebKit/537.36 (KHTML, like Gecko) Chrome/99.0.4844.51 Safari/537.36",xpyriment,legacy,legacy,0,uniform,0,0,0,0,24,24,24,0,0,46,46,46,46,46,0,46,0,,,,,,0,,06-02-22,06-02-22,17:17:23,Sun Mar 06 2022 17:17:23 GMT+0100 (közép-európai téli idő),The main experiment item,yes,0,0,C:/Users/rrics/Documents/!!ResearchBMECOGSCI/gnet,0,0,0,prototype3.png,no,mono,no,18,no,black,no,no,768,1182,3.5.6,legacy,xpyriment,osweb,1.3.13,0,space,space,space,,39996,36686,39996,,2,legacy,728,1366,24,768,24,0,0,1366,1646583532805,1024,2,48000,-16,experiment,p1sarrcol1.png,0,even,Win32,168,148693,145680,167,168,495802,497317,490804,150212,490804,168,,,,,,visual_patterns,0,0,0,yes,1366
undefined,undefined,undefined,undefined,white,no,Mozilla,Netscape,"5.0 (Windows NT 10.0; Win64; x64) AppleWebKit/537.36 (KHTML, like Gecko) Chrome/99.0.4844.51 Safari/537.36",xpyriment,legacy,legacy,0,uniform,0,0,0,0,24,24,24,0,0,47,47,47,47,47,0,47,0,,,,,,0,,06-02-22,06-02-22,17:17:23,Sun Mar 06 2022 17:17:23 GMT+0100 (közép-európai téli idő),The main experiment item,yes,0,0,C:/Users/rrics/Documents/!!ResearchBMECOGSCI/gnet,0,0,0,prototype3.png,no,mono,no,18,no,black,no,no,768,1182,3.5.6,legacy,xpyriment,osweb,1.3.13,0,space,space,space,,39996,36686,39996,,2,legacy,728,1366,24,768,24,0,0,1366,1646583532805,1024,2,48000,-16,experiment,p1sarrsha2.png,0,even,Win32,168,148693,145680,167,168,502337,503848,497342,150212,497342,168,,,,,,visual_patterns,0,0,0,yes,1366
undefined,undefined,undefined,undefined,white,no,Mozilla,Netscape,"5.0 (Windows NT 10.0; Win64; x64) AppleWebKit/537.36 (KHTML, like Gecko) Chrome/99.0.4844.51 Safari/537.36",xpyriment,legacy,legacy,0,uniform,0,0,0,0,24,24,24,0,0,48,48,48,48,48,0,48,0,,,,,,0,,06-02-22,06-02-22,17:17:23,Sun Mar 06 2022 17:17:23 GMT+0100 (közép-európai téli idő),The main experiment item,yes,0,0,C:/Users/rrics/Documents/!!ResearchBMECOGSCI/gnet,0,0,0,prototype3.png,no,mono,no,18,no,black,no,no,768,1182,3.5.6,legacy,xpyriment,osweb,1.3.13,0,space,space,space,,39996,36686,39996,,2,legacy,728,1366,24,768,24,0,0,1366,1646583532805,1024,2,48000,-16,experiment,p7sarr2.png,0,even,Win32,168,148693,145680,167,168,508864,510380,503875,150212,503875,168,,,,,,visual_patterns,0,0,0,yes,1366
undefined,undefined,undefined,undefined,white,no,Mozilla,Netscape,"5.0 (Windows NT 10.0; Win64; x64) AppleWebKit/537.36 (KHTML, like Gecko) Chrome/99.0.4844.51 Safari/537.36",xpyriment,legacy,legacy,0,uniform,0,0,0,0,24,24,24,0,0,49,49,49,49,49,0,49,0,,,,,,0,,06-02-22,06-02-22,17:17:23,Sun Mar 06 2022 17:17:23 GMT+0100 (közép-európai téli idő),The main experiment item,yes,0,0,C:/Users/rrics/Documents/!!ResearchBMECOGSCI/gnet,0,0,0,prototype3.png,no,mono,no,18,no,black,no,no,768,1182,3.5.6,legacy,xpyriment,osweb,1.3.13,0,space,space,space,,39996,36686,39996,,2,legacy,728,1366,24,768,24,0,0,1366,1646583532805,1024,2,48000,-16,experiment,p4sarr1.png,0,even,Win32,168,148693,145680,167,168,515408,516911,510402,150212,510402,168,,,,,,visual_patterns,0,0,0,yes,1366
undefined,undefined,undefined,undefined,white,no,Mozilla,Netscape,"5.0 (Windows NT 10.0; Win64; x64) AppleWebKit/537.36 (KHTML, like Gecko) Chrome/99.0.4844.51 Safari/537.36",xpyriment,legacy,legacy,0,uniform,0,0,0,0,24,24,24,0,0,50,50,50,50,50,0,50,0,,,,,,0,,06-02-22,06-02-22,17:17:23,Sun Mar 06 2022 17:17:23 GMT+0100 (közép-európai téli idő),The main experiment item,yes,0,0,C:/Users/rrics/Documents/!!ResearchBMECOGSCI/gnet,0,0,0,prototype3.png,no,mono,no,18,no,black,no,no,768,1182,3.5.6,legacy,xpyriment,osweb,1.3.13,0,space,space,space,,39996,36686,39996,,2,legacy,728,1366,24,768,24,0,0,1366,1646583532805,1024,2,48000,-16,experiment,p10sarr1.png,0,even,Win32,168,148693,145680,167,168,521937,523443,516934,150212,516934,168,,,,,,visual_patterns,0,0,0,yes,1366
undefined,undefined,undefined,undefined,white,no,Mozilla,Netscape,"5.0 (Windows NT 10.0; Win64; x64) AppleWebKit/537.36 (KHTML, like Gecko) Chrome/99.0.4844.51 Safari/537.36",xpyriment,legacy,legacy,0,uniform,0,0,0,0,24,24,24,0,0,51,51,51,51,51,0,51,0,,,,,,0,,06-02-22,06-02-22,17:17:23,Sun Mar 06 2022 17:17:23 GMT+0100 (közép-európai téli idő),The main experiment item,yes,0,0,C:/Users/rrics/Documents/!!ResearchBMECOGSCI/gnet,0,0,0,prototype3.png,no,mono,no,18,no,black,no,no,768,1182,3.5.6,legacy,xpyriment,osweb,1.3.13,0,space,space,space,,39996,36686,39996,,2,legacy,728,1366,24,768,24,0,0,1366,1646583532805,1024,2,48000,-16,experiment,prototype3.png,0,even,Win32,168,148693,145680,167,168,528462,529975,523458,150212,523458,168,,,,,,visual_patterns,0,0,0,yes,1366
undefined,undefined,undefined,undefined,white,no,Mozilla,Netscape,"5.0 (Windows NT 10.0; Win64; x64) AppleWebKit/537.36 (KHTML, like Gecko) Chrome/99.0.4844.51 Safari/537.36",xpyriment,legacy,legacy,0,uniform,0,0,0,0,24,24,24,0,0,52,52,52,52,52,0,52,0,,,,,,0,,06-02-22,06-02-22,17:17:23,Sun Mar 06 2022 17:17:23 GMT+0100 (közép-európai téli idő),The main experiment item,yes,0,0,C:/Users/rrics/Documents/!!ResearchBMECOGSCI/gnet,0,0,0,prototype3.png,no,mono,no,18,no,black,no,no,768,1182,3.5.6,legacy,xpyriment,osweb,1.3.13,0,space,space,space,,39996,36686,39996,,2,legacy,728,1366,24,768,24,0,0,1366,1646583532805,1024,2,48000,-16,experiment,p1sarr1.png,0,even,Win32,168,148693,145680,167,168,535006,536507,530003,150212,530002,168,,,,,,visual_patterns,0,0,0,yes,1366
undefined,undefined,undefined,undefined,white,no,Mozilla,Netscape,"5.0 (Windows NT 10.0; Win64; x64) AppleWebKit/537.36 (KHTML, like Gecko) Chrome/99.0.4844.51 Safari/537.36",xpyriment,legacy,legacy,0,uniform,0,0,0,0,24,24,24,0,0,53,53,53,53,53,0,53,0,,,,,,0,,06-02-22,06-02-22,17:17:23,Sun Mar 06 2022 17:17:23 GMT+0100 (közép-európai téli idő),The main experiment item,yes,0,0,C:/Users/rrics/Documents/!!ResearchBMECOGSCI/gnet,0,0,0,prototype3.png,no,mono,no,18,no,black,no,no,768,1182,3.5.6,legacy,xpyriment,osweb,1.3.13,0,space,space,space,,39996,36686,39996,,2,legacy,728,1366,24,768,24,0,0,1366,1646583532805,1024,2,48000,-16,experiment,p1sarrcol2.png,0,even,Win32,168,148693,145680,167,168,541535,543038,536531,150212,536531,168,,,,,,visual_patterns,0,0,0,yes,1366
undefined,undefined,undefined,undefined,white,no,Mozilla,Netscape,"5.0 (Windows NT 10.0; Win64; x64) AppleWebKit/537.36 (KHTML, like Gecko) Chrome/99.0.4844.51 Safari/537.36",xpyriment,legacy,legacy,0,uniform,0,0,0,0,24,24,24,0,0,54,54,54,54,54,0,54,0,,,,,,0,,06-02-22,06-02-22,17:17:23,Sun Mar 06 2022 17:17:23 GMT+0100 (közép-európai téli idő),The main experiment item,yes,0,0,C:/Users/rrics/Documents/!!ResearchBMECOGSCI/gnet,0,0,0,prototype3.png,no,mono,no,18,no,black,no,no,768,1182,3.5.6,legacy,xpyriment,osweb,1.3.13,0,space,space,space,,39996,36686,39996,,2,legacy,728,1366,24,768,24,0,0,1366,1646583532805,1024,2,48000,-16,experiment,p2sarrcol2.png,0,even,Win32,168,148693,145680,167,168,548053,549570,543058,150212,543058,168,,,,,,visual_patterns,0,0,0,yes,1366
undefined,undefined,undefined,undefined,white,no,Mozilla,Netscape,"5.0 (Windows NT 10.0; Win64; x64) AppleWebKit/537.36 (KHTML, like Gecko) Chrome/99.0.4844.51 Safari/537.36",xpyriment,legacy,legacy,0,uniform,0,0,0,0,24,24,24,0,0,55,55,55,55,55,0,55,0,,,,,,0,,06-02-22,06-02-22,17:17:23,Sun Mar 06 2022 17:17:23 GMT+0100 (közép-európai téli idő),The main experiment item,yes,0,0,C:/Users/rrics/Documents/!!ResearchBMECOGSCI/gnet,0,0,0,prototype3.png,no,mono,no,18,no,black,no,no,768,1182,3.5.6,legacy,xpyriment,osweb,1.3.13,0,space,space,space,,39996,36686,39996,,2,legacy,728,1366,24,768,24,0,0,1366,1646583532805,1024,2,48000,-16,experiment,prototype4.png,0,even,Win32,168,148693,145680,167,168,554595,556101,549590,150212,549590,168,,,,,,visual_patterns,0,0,0,yes,1366
undefined,undefined,undefined,undefined,white,no,Mozilla,Netscape,"5.0 (Windows NT 10.0; Win64; x64) AppleWebKit/537.36 (KHTML, like Gecko) Chrome/99.0.4844.51 Safari/537.36",xpyriment,legacy,legacy,0,uniform,0,0,0,0,24,24,24,0,0,56,56,56,56,56,0,56,0,,,,,,0,,06-02-22,06-02-22,17:17:23,Sun Mar 06 2022 17:17:23 GMT+0100 (közép-európai téli idő),The main experiment item,yes,0,0,C:/Users/rrics/Documents/!!ResearchBMECOGSCI/gnet,0,0,0,prototype3.png,no,mono,no,18,no,black,no,no,768,1182,3.5.6,legacy,xpyriment,osweb,1.3.13,0,space,space,space,,39996,36686,39996,,2,legacy,728,1366,24,768,24,0,0,1366,1646583532805,1024,2,48000,-16,experiment,p2sarrshacol1.png,0,even,Win32,168,148693,145680,167,168,561118,562633,556122,150212,556122,168,,,,,,visual_patterns,0,0,0,yes,1366
undefined,undefined,undefined,undefined,white,no,Mozilla,Netscape,"5.0 (Windows NT 10.0; Win64; x64) AppleWebKit/537.36 (KHTML, like Gecko) Chrome/99.0.4844.51 Safari/537.36",xpyriment,legacy,legacy,0,uniform,0,0,0,0,24,24,24,0,0,57,57,57,57,57,0,57,0,,,,,,0,,06-02-22,06-02-22,17:17:23,Sun Mar 06 2022 17:17:23 GMT+0100 (közép-európai téli idő),The main experiment item,yes,0,0,C:/Users/rrics/Documents/!!ResearchBMECOGSCI/gnet,0,0,0,prototype3.png,no,mono,no,18,no,black,no,no,768,1182,3.5.6,legacy,xpyriment,osweb,1.3.13,0,space,space,space,,39996,36686,39996,,2,legacy,728,1366,24,768,24,0,0,1366,1646583532805,1024,2,48000,-16,experiment,prototype5.png,0,even,Win32,168,148693,145680,167,168,567655,569164,562654,150212,562654,168,,,,,,visual_patterns,0,0,0,yes,1366
undefined,undefined,undefined,undefined,white,no,Mozilla,Netscape,"5.0 (Windows NT 10.0; Win64; x64) AppleWebKit/537.36 (KHTML, like Gecko) Chrome/99.0.4844.51 Safari/537.36",xpyriment,legacy,legacy,0,uniform,0,0,0,0,24,24,24,0,0,58,58,58,58,58,0,58,0,,,,,,0,,06-02-22,06-02-22,17:17:23,Sun Mar 06 2022 17:17:23 GMT+0100 (közép-európai téli idő),The main experiment item,yes,0,0,C:/Users/rrics/Documents/!!ResearchBMECOGSCI/gnet,0,0,0,prototype3.png,no,mono,no,18,no,black,no,no,768,1182,3.5.6,legacy,xpyriment,osweb,1.3.13,0,space,space,space,,39996,36686,39996,,2,legacy,728,1366,24,768,24,0,0,1366,1646583532805,1024,2,48000,-16,experiment,prototype2.png,0,even,Win32,168,148693,145680,167,168,574181,575696,569182,150212,569182,168,,,,,,visual_patterns,0,0,0,yes,1366
undefined,undefined,undefined,undefined,white,no,Mozilla,Netscape,"5.0 (Windows NT 10.0; Win64; x64) AppleWebKit/537.36 (KHTML, like Gecko) Chrome/99.0.4844.51 Safari/537.36",xpyriment,legacy,legacy,0,uniform,0,0,0,0,24,24,24,0,0,59,59,59,59,59,0,59,0,,,,,,0,,06-02-22,06-02-22,17:17:23,Sun Mar 06 2022 17:17:23 GMT+0100 (közép-európai téli idő),The main experiment item,yes,0,0,C:/Users/rrics/Documents/!!ResearchBMECOGSCI/gnet,0,0,0,prototype3.png,no,mono,no,18,no,black,no,no,768,1182,3.5.6,legacy,xpyriment,osweb,1.3.13,0,space,space,space,,39996,36686,39996,,2,legacy,728,1366,24,768,24,0,0,1366,1646583532805,1024,2,48000,-16,experiment,prototype5.png,0,even,Win32,168,148693,145680,167,168,580712,582228,575713,150212,575713,168,,,,,,visual_patterns,0,0,0,yes,1366
undefined,undefined,undefined,undefined,white,no,Mozilla,Netscape,"5.0 (Windows NT 10.0; Win64; x64) AppleWebKit/537.36 (KHTML, like Gecko) Chrome/99.0.4844.51 Safari/537.36",xpyriment,legacy,legacy,0,uniform,0,0,0,0,24,24,24,0,0,60,60,60,60,60,0,60,0,,,,,,0,,06-02-22,06-02-22,17:17:23,Sun Mar 06 2022 17:17:23 GMT+0100 (közép-európai téli idő),The main experiment item,yes,0,0,C:/Users/rrics/Documents/!!ResearchBMECOGSCI/gnet,0,0,0,prototype3.png,no,mono,no,18,no,black,no,no,768,1182,3.5.6,legacy,xpyriment,osweb,1.3.13,0,space,space,space,,39996,36686,39996,,2,legacy,728,1366,24,768,24,0,0,1366,1646583532805,1024,2,48000,-16,experiment,p1sarrshacol2.png,0,even,Win32,168,148693,145680,167,168,587244,588759,582253,150212,582253,168,,,,,,visual_patterns,0,0,0,yes,1366
undefined,undefined,undefined,undefined,white,no,Mozilla,Netscape,"5.0 (Windows NT 10.0; Win64; x64) AppleWebKit/537.36 (KHTML, like Gecko) Chrome/99.0.4844.51 Safari/537.36",xpyriment,legacy,legacy,0,uniform,0,0,0,0,24,24,24,0,0,61,61,61,61,61,0,61,0,,,,,,0,,06-02-22,06-02-22,17:17:23,Sun Mar 06 2022 17:17:23 GMT+0100 (közép-európai téli idő),The main experiment item,yes,0,0,C:/Users/rrics/Documents/!!ResearchBMECOGSCI/gnet,0,0,0,prototype3.png,no,mono,no,18,no,black,no,no,768,1182,3.5.6,legacy,xpyriment,osweb,1.3.13,0,space,space,space,,39996,36686,39996,,2,legacy,728,1366,24,768,24,0,0,1366,1646583532805,1024,2,48000,-16,experiment,p2sarrcol1.png,0,even,Win32,168,148693,145680,167,168,593783,595290,588781,150212,588781,168,,,,,,visual_patterns,0,0,0,yes,1366
undefined,undefined,undefined,undefined,white,no,Mozilla,Netscape,"5.0 (Windows NT 10.0; Win64; x64) AppleWebKit/537.36 (KHTML, like Gecko) Chrome/99.0.4844.51 Safari/537.36",xpyriment,legacy,legacy,0,uniform,0,0,0,0,24,24,24,0,0,62,62,62,62,62,0,62,0,,,,,,0,,06-02-22,06-02-22,17:17:23,Sun Mar 06 2022 17:17:23 GMT+0100 (közép-európai téli idő),The main experiment item,yes,0,0,C:/Users/rrics/Documents/!!ResearchBMECOGSCI/gnet,0,0,0,prototype3.png,no,mono,no,18,no,black,no,no,768,1182,3.5.6,legacy,xpyriment,osweb,1.3.13,0,space,space,space,,39996,36686,39996,,2,legacy,728,1366,24,768,24,0,0,1366,1646583532805,1024,2,48000,-16,experiment,p5sarr2.png,0,even,Win32,168,148693,145680,167,168,600301,601806,595299,150212,595299,168,,,,,,visual_patterns,0,0,0,yes,1366
undefined,undefined,undefined,undefined,white,no,Mozilla,Netscape,"5.0 (Windows NT 10.0; Win64; x64) AppleWebKit/537.36 (KHTML, like Gecko) Chrome/99.0.4844.51 Safari/537.36",xpyriment,legacy,legacy,0,uniform,0,0,0,0,24,24,24,0,0,63,63,63,63,63,0,63,0,,,,,,0,,06-02-22,06-02-22,17:17:23,Sun Mar 06 2022 17:17:23 GMT+0100 (közép-európai téli idő),The main experiment item,yes,0,0,C:/Users/rrics/Documents/!!ResearchBMECOGSCI/gnet,0,0,0,prototype3.png,no,mono,no,18,no,black,no,no,768,1182,3.5.6,legacy,xpyriment,osweb,1.3.13,0,space,space,space,,39996,36686,39996,,2,legacy,728,1366,24,768,24,0,0,1366,1646583532805,1024,2,48000,-16,experiment,p10sarr2.png,0,even,Win32,168,148693,145680,167,168,606821,608338,601825,150212,601825,168,,,,,,visual_patterns,0,0,0,yes,1366
undefined,undefined,undefined,undefined,white,no,Mozilla,Netscape,"5.0 (Windows NT 10.0; Win64; x64) AppleWebKit/537.36 (KHTML, like Gecko) Chrome/99.0.4844.51 Safari/537.36",xpyriment,legacy,legacy,0,uniform,0,0,0,0,24,24,24,0,0,64,64,64,64,64,0,64,0,,,,,,0,,06-02-22,06-02-22,17:17:23,Sun Mar 06 2022 17:17:23 GMT+0100 (közép-európai téli idő),The main experiment item,yes,0,0,C:/Users/rrics/Documents/!!ResearchBMECOGSCI/gnet,0,0,0,prototype3.png,no,mono,no,18,no,black,no,no,768,1182,3.5.6,legacy,xpyriment,osweb,1.3.13,0,space,space,space,,39996,36686,39996,,2,legacy,728,1366,24,768,24,0,0,1366,1646583532805,1024,2,48000,-16,experiment,prototype1.png,0,even,Win32,168,148693,145680,167,168,613354,614869,608354,150212,608354,168,,,,,,visual_patterns,0,0,0,yes,1366
undefined,undefined,undefined,undefined,white,no,Mozilla,Netscape,"5.0 (Windows NT 10.0; Win64; x64) AppleWebKit/537.36 (KHTML, like Gecko) Chrome/99.0.4844.51 Safari/537.36",xpyriment,legacy,legacy,0,uniform,0,0,0,0,24,24,24,0,0,65,65,65,65,65,0,65,0,,,,,,0,,06-02-22,06-02-22,17:17:23,Sun Mar 06 2022 17:17:23 GMT+0100 (közép-európai téli idő),The main experiment item,yes,0,0,C:/Users/rrics/Documents/!!ResearchBMECOGSCI/gnet,0,0,0,prototype3.png,no,mono,no,18,no,black,no,no,768,1182,3.5.6,legacy,xpyriment,osweb,1.3.13,0,space,space,space,,39996,36686,39996,,2,legacy,728,1366,24,768,24,0,0,1366,1646583532805,1024,2,48000,-16,experiment,prototype4.png,0,even,Win32,168,148693,145680,167,168,619894,621401,614888,150212,614888,168,,,,,,visual_patterns,0,0,0,yes,1366
undefined,undefined,undefined,undefined,white,no,Mozilla,Netscape,"5.0 (Windows NT 10.0; Win64; x64) AppleWebKit/537.36 (KHTML, like Gecko) Chrome/99.0.4844.51 Safari/537.36",xpyriment,legacy,legacy,0,uniform,0,0,0,0,24,24,24,0,0,66,66,66,66,66,0,66,0,,,,,,0,,06-02-22,06-02-22,17:17:23,Sun Mar 06 2022 17:17:23 GMT+0100 (közép-európai téli idő),The main experiment item,yes,0,0,C:/Users/rrics/Documents/!!ResearchBMECOGSCI/gnet,0,0,0,prototype3.png,no,mono,no,18,no,black,no,no,768,1182,3.5.6,legacy,xpyriment,osweb,1.3.13,0,space,space,space,,39996,36686,39996,,2,legacy,728,1366,24,768,24,0,0,1366,1646583532805,1024,2,48000,-16,experiment,p2sarrshacol2.png,0,even,Win32,168,148693,145680,167,168,626417,627932,621422,150212,621422,168,,,,,,visual_patterns,0,0,0,yes,1366
undefined,undefined,undefined,undefined,white,no,Mozilla,Netscape,"5.0 (Windows NT 10.0; Win64; x64) AppleWebKit/537.36 (KHTML, like Gecko) Chrome/99.0.4844.51 Safari/537.36",xpyriment,legacy,legacy,0,uniform,0,0,0,0,24,24,24,0,0,67,67,67,67,67,0,67,0,,,,,,0,,06-02-22,06-02-22,17:17:23,Sun Mar 06 2022 17:17:23 GMT+0100 (közép-európai téli idő),The main experiment item,yes,0,0,C:/Users/rrics/Documents/!!ResearchBMECOGSCI/gnet,0,0,0,prototype3.png,no,mono,no,18,no,black,no,no,768,1182,3.5.6,legacy,xpyriment,osweb,1.3.13,0,space,space,space,,39996,36686,39996,,2,legacy,728,1366,24,768,24,0,0,1366,1646583532805,1024,2,48000,-16,experiment,p1sarr2.png,0,even,Win32,168,148693,145680,167,168,632957,634464,627955,150212,627954,168,,,,,,visual_patterns,0,0,0,yes,1366
undefined,undefined,undefined,undefined,white,no,Mozilla,Netscape,"5.0 (Windows NT 10.0; Win64; x64) AppleWebKit/537.36 (KHTML, like Gecko) Chrome/99.0.4844.51 Safari/537.36",xpyriment,legacy,legacy,0,uniform,0,0,0,0,24,24,24,0,0,68,68,68,68,68,0,68,0,,,,,,0,,06-02-22,06-02-22,17:17:23,Sun Mar 06 2022 17:17:23 GMT+0100 (közép-európai téli idő),The main experiment item,yes,0,0,C:/Users/rrics/Documents/!!ResearchBMECOGSCI/gnet,0,0,0,prototype3.png,no,mono,no,18,no,black,no,no,768,1182,3.5.6,legacy,xpyriment,osweb,1.3.13,0,space,space,space,,39996,36686,39996,,2,legacy,728,1366,24,768,24,0,0,1366,1646583532805,1024,2,48000,-16,experiment,p6sarr2.png,0,even,Win32,168,148693,145680,167,168,639480,640996,634485,150212,634485,168,,,,,,visual_patterns,0,0,0,yes,1366
undefined,undefined,undefined,undefined,white,no,Mozilla,Netscape,"5.0 (Windows NT 10.0; Win64; x64) AppleWebKit/537.36 (KHTML, like Gecko) Chrome/99.0.4844.51 Safari/537.36",xpyriment,legacy,legacy,0,uniform,0,0,0,0,24,24,24,0,0,69,69,69,69,69,0,69,0,,,,,,0,,06-02-22,06-02-22,17:17:23,Sun Mar 06 2022 17:17:23 GMT+0100 (közép-európai téli idő),The main experiment item,yes,0,0,C:/Users/rrics/Documents/!!ResearchBMECOGSCI/gnet,0,0,0,prototype3.png,no,mono,no,18,no,black,no,no,768,1182,3.5.6,legacy,xpyriment,osweb,1.3.13,0,space,space,space,,39996,36686,39996,,2,legacy,728,1366,24,768,24,0,0,1366,1646583532805,1024,2,48000,-16,experiment,prototype2.png,0,even,Win32,168,148693,145680,167,168,646011,647527,641012,150212,641012,168,,,,,,visual_patterns,0,0,0,yes,1366
undefined,undefined,undefined,undefined,white,no,Mozilla,Netscape,"5.0 (Windows NT 10.0; Win64; x64) AppleWebKit/537.36 (KHTML, like Gecko) Chrome/99.0.4844.51 Safari/537.36",xpyriment,legacy,legacy,0,uniform,0,0,0,0,24,24,24,0,0,70,70,70,70,70,0,70,0,,,,,,0,,06-02-22,06-02-22,17:17:23,Sun Mar 06 2022 17:17:23 GMT+0100 (közép-európai téli idő),The main experiment item,yes,0,0,C:/Users/rrics/Documents/!!ResearchBMECOGSCI/gnet,0,0,0,prototype3.png,no,mono,no,18,no,black,no,no,768,1182,3.5.6,legacy,xpyriment,osweb,1.3.13,0,space,space,space,,39996,36686,39996,,2,legacy,728,1366,24,768,24,0,0,1366,1646583532805,1024,2,48000,-16,experiment,p1sarrshacol1.png,0,even,Win32,168,148693,145680,167,168,652543,654059,647551,150212,647551,168,,,,,,visual_patterns,0,0,0,yes,1366
undefined,undefined,undefined,undefined,white,no,Mozilla,Netscape,"5.0 (Windows NT 10.0; Win64; x64) AppleWebKit/537.36 (KHTML, like Gecko) Chrome/99.0.4844.51 Safari/537.36",xpyriment,legacy,legacy,0,uniform,0,0,0,0,24,24,24,0,0,71,71,71,71,71,0,71,0,,,,,,0,,06-02-22,06-02-22,17:17:23,Sun Mar 06 2022 17:17:23 GMT+0100 (közép-európai téli idő),The main experiment item,yes,0,0,C:/Users/rrics/Documents/!!ResearchBMECOGSCI/gnet,0,0,0,prototype3.png,no,mono,no,18,no,black,no,no,768,1182,3.5.6,legacy,xpyriment,osweb,1.3.13,0,space,space,space,,39996,36686,39996,,2,legacy,728,1366,24,768,24,0,0,1366,1646583532805,1024,2,48000,-16,experiment,prototype1.png,0,even,Win32,168,148693,145680,167,168,659109,660624,654108,150212,654108,168,,,,,,visual_patterns,0,0,0,yes,1366
undefined,undefined,undefined,undefined,white,no,Mozilla,Netscape,"5.0 (Windows NT 10.0; Win64; x64) AppleWebKit/537.36 (KHTML, like Gecko) Chrome/99.0.4844.51 Safari/537.36",xpyriment,legacy,legacy,0,uniform,0,0,0,0,24,24,24,0,0,72,72,72,72,72,0,72,0,,,,,,0,,06-02-22,06-02-22,17:17:23,Sun Mar 06 2022 17:17:23 GMT+0100 (közép-európai téli idő),The main experiment item,yes,0,0,C:/Users/rrics/Documents/!!ResearchBMECOGSCI/gnet,0,0,0,prototype3.png,no,mono,no,18,no,black,no,no,768,1182,3.5.6,legacy,xpyriment,osweb,1.3.13,0,space,space,space,,39996,36686,39996,,2,legacy,728,1366,24,768,24,0,0,1366,1646583532805,1024,2,48000,-16,experiment,prototype5.png,0,even,Win32,168,148693,145680,167,168,665640,667155,660641,150212,660641,168,,,,,,visual_patterns,0,0,0,yes,1366
undefined,undefined,undefined,undefined,white,no,Mozilla,Netscape,"5.0 (Windows NT 10.0; Win64; x64) AppleWebKit/537.36 (KHTML, like Gecko) Chrome/99.0.4844.51 Safari/537.36",xpyriment,legacy,legacy,0,uniform,0,0,0,0,24,24,24,0,0,73,73,73,73,73,0,73,0,,,,,,0,,06-02-22,06-02-22,17:17:23,Sun Mar 06 2022 17:17:23 GMT+0100 (közép-európai téli idő),The main experiment item,yes,0,0,C:/Users/rrics/Documents/!!ResearchBMECOGSCI/gnet,0,0,0,prototype3.png,no,mono,no,18,no,black,no,no,768,1182,3.5.6,legacy,xpyriment,osweb,1.3.13,0,space,space,space,,39996,36686,39996,,2,legacy,728,1366,24,768,24,0,0,1366,1646583532805,1024,2,48000,-16,experiment,prototype3.png,0,even,Win32,168,148693,145680,167,168,672171,673687,667173,150212,667173,168,,,,,,visual_patterns,0,0,0,yes,1366
undefined,undefined,undefined,undefined,white,no,Mozilla,Netscape,"5.0 (Windows NT 10.0; Win64; x64) AppleWebKit/537.36 (KHTML, like Gecko) Chrome/99.0.4844.51 Safari/537.36",xpyriment,legacy,legacy,0,uniform,0,0,0,0,24,24,24,0,0,74,74,74,74,74,0,74,0,,,,,,0,,06-02-22,06-02-22,17:17:23,Sun Mar 06 2022 17:17:23 GMT+0100 (közép-európai téli idő),The main experiment item,yes,0,0,C:/Users/rrics/Documents/!!ResearchBMECOGSCI/gnet,0,0,0,prototype3.png,no,mono,no,18,no,black,no,no,768,1182,3.5.6,legacy,xpyriment,osweb,1.3.13,0,space,space,space,,39996,36686,39996,,2,legacy,728,1366,24,768,24,0,0,1366,1646583532805,1024,2,48000,-16,experiment,prototype2.png,0,even,Win32,168,148693,145680,167,168,678703,680219,673703,150212,673703,168,,,,,,visual_patterns,0,0,0,yes,1366
undefined,undefined,undefined,undefined,white,no,Mozilla,Netscape,"5.0 (Windows NT 10.0; Win64; x64) AppleWebKit/537.36 (KHTML, like Gecko) Chrome/99.0.4844.51 Safari/537.36",xpyriment,legacy,legacy,0,uniform,0,0,0,0,24,24,24,0,0,74,74,74,74,74,0,74,0,0,0,0,0,0,0,0,06-02-22,06-02-22,17:17:23,Sun Mar 06 2022 17:17:23 GMT+0100 (közép-európai téli idő),The main experiment item,yes,0,0,C:/Users/rrics/Documents/!!ResearchBMECOGSCI/gnet,0,0,0,prototype3.png,no,mono,no,18,no,black,no,no,768,1182,3.5.6,legacy,xpyriment,osweb,1.3.13,0,right,space,space,right,26579,36686,39996,26579,2,legacy,728,1366,24,768,24,0,0,1366,1646583532805,1024,2,48000,-16,experiment,p5sarrsha3.png,0,even,Win32,168,148693,145680,167,168,678703,680219,673703,150212,673703,168,709851,711361,706854,680227,706854,visual_patterns,0,0,0,yes,1366
undefined,undefined,undefined,undefined,white,no,Mozilla,Netscape,"5.0 (Windows NT 10.0; Win64; x64) AppleWebKit/537.36 (KHTML, like Gecko) Chrome/99.0.4844.51 Safari/537.36",xpyriment,legacy,legacy,0,uniform,0,0,0,0,24,24,24,0,0,74,74,74,74,74,0,74,0,1,1,1,1,1,0,1,06-02-22,06-02-22,17:17:23,Sun Mar 06 2022 17:17:23 GMT+0100 (közép-európai téli idő),The main experiment item,yes,0,0,C:/Users/rrics/Documents/!!ResearchBMECOGSCI/gnet,0,0,0,prototype3.png,no,mono,no,18,no,black,no,no,768,1182,3.5.6,legacy,xpyriment,osweb,1.3.13,0,right,space,space,right,26579,36686,39996,26579,2,legacy,728,1366,24,768,24,0,0,1366,1646583532805,1024,2,48000,-16,experiment,p2sarrshacol1.png,0,even,Win32,168,148693,145680,167,168,678703,680219,673703,150212,673703,168,714410,715926,711410,680227,711410,visual_patterns,0,0,0,yes,1366
undefined,undefined,undefined,undefined,white,no,Mozilla,Netscape,"5.0 (Windows NT 10.0; Win64; x64) AppleWebKit/537.36 (KHTML, like Gecko) Chrome/99.0.4844.51 Safari/537.36",xpyriment,legacy,legacy,0,uniform,0,0,0,0,24,24,24,0,0,74,74,74,74,74,0,74,0,2,2,2,2,2,0,2,06-02-22,06-02-22,17:17:23,Sun Mar 06 2022 17:17:23 GMT+0100 (közép-európai téli idő),The main experiment item,yes,0,0,C:/Users/rrics/Documents/!!ResearchBMECOGSCI/gnet,0,0,0,prototype3.png,no,mono,no,18,no,black,no,no,768,1182,3.5.6,legacy,xpyriment,osweb,1.3.13,0,right,space,space,right,26579,36686,39996,26579,2,legacy,728,1366,24,768,24,0,0,1366,1646583532805,1024,2,48000,-16,experiment,p4sarr4.png,0,even,Win32,168,148693,145680,167,168,678703,680219,673703,150212,673703,168,718952,720458,715958,680227,715958,visual_patterns,0,0,0,yes,1366
undefined,undefined,undefined,undefined,white,no,Mozilla,Netscape,"5.0 (Windows NT 10.0; Win64; x64) AppleWebKit/537.36 (KHTML, like Gecko) Chrome/99.0.4844.51 Safari/537.36",xpyriment,legacy,legacy,0,uniform,0,0,0,0,24,24,24,0,0,74,74,74,74,74,0,74,0,3,3,3,3,3,0,3,06-02-22,06-02-22,17:17:23,Sun Mar 06 2022 17:17:23 GMT+0100 (közép-európai téli idő),The main experiment item,yes,0,0,C:/Users/rrics/Documents/!!ResearchBMECOGSCI/gnet,0,0,0,prototype3.png,no,mono,no,18,no,black,no,no,768,1182,3.5.6,legacy,xpyriment,osweb,1.3.13,0,right,space,space,right,26579,36686,39996,26579,2,legacy,728,1366,24,768,24,0,0,1366,1646583532805,1024,2,48000,-16,experiment,p5sarrsha2.png,0,even,Win32,168,148693,145680,167,168,678703,680219,673703,150212,673703,168,723484,724990,720477,680227,720477,visual_patterns,0,0,0,yes,1366
undefined,undefined,undefined,undefined,white,no,Mozilla,Netscape,"5.0 (Windows NT 10.0; Win64; x64) AppleWebKit/537.36 (KHTML, like Gecko) Chrome/99.0.4844.51 Safari/537.36",xpyriment,legacy,legacy,0,uniform,0,0,0,0,24,24,24,0,0,74,74,74,74,74,0,74,0,4,4,4,4,4,0,4,06-02-22,06-02-22,17:17:23,Sun Mar 06 2022 17:17:23 GMT+0100 (közép-európai téli idő),The main experiment item,yes,0,0,C:/Users/rrics/Documents/!!ResearchBMECOGSCI/gnet,0,0,0,prototype3.png,no,mono,no,18,no,black,no,no,768,1182,3.5.6,legacy,xpyriment,osweb,1.3.13,0,right,space,space,right,26579,36686,39996,26579,2,legacy,728,1366,24,768,24,0,0,1366,1646583532805,1024,2,48000,-16,experiment,p7sarr2.png,0,even,Win32,168,148693,145680,167,168,678703,680219,673703,150212,673703,168,728014,729523,725009,680227,725009,visual_patterns,0,0,0,yes,1366
undefined,undefined,undefined,undefined,white,no,Mozilla,Netscape,"5.0 (Windows NT 10.0; Win64; x64) AppleWebKit/537.36 (KHTML, like Gecko) Chrome/99.0.4844.51 Safari/537.36",xpyriment,legacy,legacy,0,uniform,0,0,0,0,24,24,24,0,0,74,74,74,74,74,0,74,0,5,5,5,5,5,0,5,06-02-22,06-02-22,17:17:23,Sun Mar 06 2022 17:17:23 GMT+0100 (közép-európai téli idő),The main experiment item,yes,0,0,C:/Users/rrics/Documents/!!ResearchBMECOGSCI/gnet,0,0,0,prototype3.png,no,mono,no,18,no,black,no,no,768,1182,3.5.6,legacy,xpyriment,osweb,1.3.13,0,right,space,space,right,26579,36686,39996,26579,2,legacy,728,1366,24,768,24,0,0,1366,1646583532805,1024,2,48000,-16,experiment,p1sarrsha4.png,0,even,Win32,168,148693,145680,167,168,678703,680219,673703,150212,673703,168,732549,734055,729554,680227,729554,visual_patterns,0,0,0,yes,1366
undefined,undefined,undefined,undefined,white,no,Mozilla,Netscape,"5.0 (Windows NT 10.0; Win64; x64) AppleWebKit/537.36 (KHTML, like Gecko) Chrome/99.0.4844.51 Safari/537.36",xpyriment,legacy,legacy,0,uniform,0,0,0,0,24,24,24,0,0,74,74,74,74,74,0,74,0,6,6,6,6,6,0,6,06-02-22,06-02-22,17:17:23,Sun Mar 06 2022 17:17:23 GMT+0100 (közép-európai téli idő),The main experiment item,yes,0,0,C:/Users/rrics/Documents/!!ResearchBMECOGSCI/gnet,0,0,0,prototype3.png,no,mono,no,18,no,black,no,no,768,1182,3.5.6,legacy,xpyriment,osweb,1.3.13,0,right,space,space,right,26579,36686,39996,26579,2,legacy,728,1366,24,768,24,0,0,1366,1646583532805,1024,2,48000,-16,experiment,p3sarrcol2.png,0,even,Win32,168,148693,145680,167,168,678703,680219,673703,150212,673703,168,737098,738612,734099,680227,734099,visual_patterns,0,0,0,yes,1366
undefined,undefined,undefined,undefined,white,no,Mozilla,Netscape,"5.0 (Windows NT 10.0; Win64; x64) AppleWebKit/537.36 (KHTML, like Gecko) Chrome/99.0.4844.51 Safari/537.36",xpyriment,legacy,legacy,0,uniform,0,0,0,0,24,24,24,0,0,74,74,74,74,74,0,74,0,7,7,7,7,7,0,7,06-02-22,06-02-22,17:17:23,Sun Mar 06 2022 17:17:23 GMT+0100 (közép-európai téli idő),The main experiment item,yes,0,0,C:/Users/rrics/Documents/!!ResearchBMECOGSCI/gnet,0,0,0,prototype3.png,no,mono,no,18,no,black,no,no,768,1182,3.5.6,legacy,xpyriment,osweb,1.3.13,0,right,space,space,right,26579,36686,39996,26579,2,legacy,728,1366,24,768,24,0,0,1366,1646583532805,1024,2,48000,-16,experiment,p3sarrcol3.png,0,even,Win32,168,148693,145680,167,168,678703,680219,673703,150212,673703,168,741636,743152,738638,680227,738638,visual_patterns,0,0,0,yes,1366
undefined,undefined,undefined,undefined,white,no,Mozilla,Netscape,"5.0 (Windows NT 10.0; Win64; x64) AppleWebKit/537.36 (KHTML, like Gecko) Chrome/99.0.4844.51 Safari/537.36",xpyriment,legacy,legacy,0,uniform,0,0,0,0,24,24,24,0,0,74,74,74,74,74,0,74,0,8,8,8,8,8,0,8,06-02-22,06-02-22,17:17:23,Sun Mar 06 2022 17:17:23 GMT+0100 (közép-európai téli idő),The main experiment item,yes,0,0,C:/Users/rrics/Documents/!!ResearchBMECOGSCI/gnet,0,0,0,prototype3.png,no,mono,no,18,no,black,no,no,768,1182,3.5.6,legacy,xpyriment,osweb,1.3.13,0,right,space,space,right,26579,36686,39996,26579,2,legacy,728,1366,24,768,24,0,0,1366,1646583532805,1024,2,48000,-16,experiment,p1sarrsha1.png,0,even,Win32,168,148693,145680,167,168,678703,680219,673703,150212,673703,168,746179,747684,743172,680227,743172,visual_patterns,0,0,0,yes,1366
undefined,undefined,undefined,undefined,white,no,Mozilla,Netscape,"5.0 (Windows NT 10.0; Win64; x64) AppleWebKit/537.36 (KHTML, like Gecko) Chrome/99.0.4844.51 Safari/537.36",xpyriment,legacy,legacy,0,uniform,0,0,0,0,24,24,24,0,0,74,74,74,74,74,0,74,0,9,9,9,9,9,0,9,06-02-22,06-02-22,17:17:23,Sun Mar 06 2022 17:17:23 GMT+0100 (közép-európai téli idő),The main experiment item,yes,0,0,C:/Users/rrics/Documents/!!ResearchBMECOGSCI/gnet,0,0,0,prototype3.png,no,mono,no,18,no,black,no,no,768,1182,3.5.6,legacy,xpyriment,osweb,1.3.13,0,right,space,space,right,26579,36686,39996,26579,2,legacy,728,1366,24,768,24,0,0,1366,1646583532805,1024,2,48000,-16,experiment,p4sarr1.png,0,even,Win32,168,148693,145680,167,168,678703,680219,673703,150212,673703,168,750710,752217,747709,680227,747709,visual_patterns,0,0,0,yes,1366
undefined,undefined,undefined,undefined,white,no,Mozilla,Netscape,"5.0 (Windows NT 10.0; Win64; x64) AppleWebKit/537.36 (KHTML, like Gecko) Chrome/99.0.4844.51 Safari/537.36",xpyriment,legacy,legacy,0,uniform,0,0,0,0,24,24,24,0,0,74,74,74,74,74,0,74,0,10,10,10,10,10,0,10,06-02-22,06-02-22,17:17:23,Sun Mar 06 2022 17:17:23 GMT+0100 (közép-európai téli idő),The main experiment item,yes,0,0,C:/Users/rrics/Documents/!!ResearchBMECOGSCI/gnet,0,0,0,prototype3.png,no,mono,no,18,no,black,no,no,768,1182,3.5.6,legacy,xpyriment,osweb,1.3.13,0,right,space,space,right,26579,36686,39996,26579,2,legacy,728,1366,24,768,24,0,0,1366,1646583532805,1024,2,48000,-16,experiment,p9sarr2.png,0,even,Win32,168,148693,145680,167,168,678703,680219,673703,150212,673703,168,755247,756749,752241,680227,752241,visual_patterns,0,0,0,yes,1366
undefined,undefined,undefined,undefined,white,no,Mozilla,Netscape,"5.0 (Windows NT 10.0; Win64; x64) AppleWebKit/537.36 (KHTML, like Gecko) Chrome/99.0.4844.51 Safari/537.36",xpyriment,legacy,legacy,0,uniform,0,0,0,0,24,24,24,0,0,74,74,74,74,74,0,74,0,11,11,11,11,11,0,11,06-02-22,06-02-22,17:17:23,Sun Mar 06 2022 17:17:23 GMT+0100 (közép-európai téli idő),The main experiment item,yes,0,0,C:/Users/rrics/Documents/!!ResearchBMECOGSCI/gnet,0,0,0,prototype3.png,no,mono,no,18,no,black,no,no,768,1182,3.5.6,legacy,xpyriment,osweb,1.3.13,0,right,space,space,right,26579,36686,39996,26579,2,legacy,728,1366,24,768,24,0,0,1366,1646583532805,1024,2,48000,-16,experiment,p1sarr2.png,0,even,Win32,168,148693,145680,167,168,678703,680219,673703,150212,673703,168,759808,761314,756800,680227,756800,visual_patterns,0,0,0,yes,1366
undefined,undefined,undefined,undefined,white,no,Mozilla,Netscape,"5.0 (Windows NT 10.0; Win64; x64) AppleWebKit/537.36 (KHTML, like Gecko) Chrome/99.0.4844.51 Safari/537.36",xpyriment,legacy,legacy,0,uniform,0,0,0,0,24,24,24,0,0,74,74,74,74,74,0,74,0,12,12,12,12,12,0,12,06-02-22,06-02-22,17:17:23,Sun Mar 06 2022 17:17:23 GMT+0100 (közép-európai téli idő),The main experiment item,yes,0,0,C:/Users/rrics/Documents/!!ResearchBMECOGSCI/gnet,0,0,0,prototype3.png,no,mono,no,18,no,black,no,no,768,1182,3.5.6,legacy,xpyriment,osweb,1.3.13,0,right,space,space,right,26579,36686,39996,26579,2,legacy,728,1366,24,768,24,0,0,1366,1646583532805,1024,2,48000,-16,experiment,p3sarrcol4.png,0,even,Win32,168,148693,145680,167,168,678703,680219,673703,150212,673703,168,764339,765846,761339,680227,761339,visual_patterns,0,0,0,yes,1366
undefined,undefined,undefined,undefined,white,no,Mozilla,Netscape,"5.0 (Windows NT 10.0; Win64; x64) AppleWebKit/537.36 (KHTML, like Gecko) Chrome/99.0.4844.51 Safari/537.36",xpyriment,legacy,legacy,0,uniform,0,0,0,0,24,24,24,0,0,74,74,74,74,74,0,74,0,13,13,13,13,13,0,13,06-02-22,06-02-22,17:17:23,Sun Mar 06 2022 17:17:23 GMT+0100 (közép-európai téli idő),The main experiment item,yes,0,0,C:/Users/rrics/Documents/!!ResearchBMECOGSCI/gnet,0,0,0,prototype3.png,no,mono,no,18,no,black,no,no,768,1182,3.5.6,legacy,xpyriment,osweb,1.3.13,0,right,space,space,right,26579,36686,39996,26579,2,legacy,728,1366,24,768,24,0,0,1366,1646583532805,1024,2,48000,-16,experiment,p2sarrshacol2.png,0,even,Win32,168,148693,145680,167,168,678703,680219,673703,150212,673703,168,768874,770379,765868,680227,765868,visual_patterns,0,0,0,yes,1366
undefined,undefined,undefined,undefined,white,no,Mozilla,Netscape,"5.0 (Windows NT 10.0; Win64; x64) AppleWebKit/537.36 (KHTML, like Gecko) Chrome/99.0.4844.51 Safari/537.36",xpyriment,legacy,legacy,0,uniform,0,0,0,0,24,24,24,0,0,74,74,74,74,74,0,74,0,14,14,14,14,14,0,14,06-02-22,06-02-22,17:17:23,Sun Mar 06 2022 17:17:23 GMT+0100 (közép-európai téli idő),The main experiment item,yes,0,0,C:/Users/rrics/Documents/!!ResearchBMECOGSCI/gnet,0,0,0,prototype3.png,no,mono,no,18,no,black,no,no,768,1182,3.5.6,legacy,xpyriment,osweb,1.3.13,0,right,space,space,right,26579,36686,39996,26579,2,legacy,728,1366,24,768,24,0,0,1366,1646583532805,1024,2,48000,-16,experiment,p6sarr1.png,0,even,Win32,168,148693,145680,167,168,678703,680219,673703,150212,673703,168,773404,774911,770403,680227,770403,visual_patterns,0,0,0,yes,1366
undefined,undefined,undefined,undefined,white,no,Mozilla,Netscape,"5.0 (Windows NT 10.0; Win64; x64) AppleWebKit/537.36 (KHTML, like Gecko) Chrome/99.0.4844.51 Safari/537.36",xpyriment,legacy,legacy,0,uniform,0,0,0,0,24,24,24,0,0,74,74,74,74,74,0,74,0,15,15,15,15,15,0,15,06-02-22,06-02-22,17:17:23,Sun Mar 06 2022 17:17:23 GMT+0100 (közép-európai téli idő),The main experiment item,yes,0,0,C:/Users/rrics/Documents/!!ResearchBMECOGSCI/gnet,0,0,0,prototype3.png,no,mono,no,18,no,black,no,no,768,1182,3.5.6,legacy,xpyriment,osweb,1.3.13,0,right,space,space,right,26579,36686,39996,26579,2,legacy,728,1366,24,768,24,0,0,1366,1646583532805,1024,2,48000,-16,experiment,p4sarrshacol3.png,0,even,Win32,168,148693,145680,167,168,678703,680219,673703,150212,673703,168,777932,779443,774935,680227,774935,visual_patterns,0,0,0,yes,1366
undefined,undefined,undefined,undefined,white,no,Mozilla,Netscape,"5.0 (Windows NT 10.0; Win64; x64) AppleWebKit/537.36 (KHTML, like Gecko) Chrome/99.0.4844.51 Safari/537.36",xpyriment,legacy,legacy,0,uniform,0,0,0,0,24,24,24,0,0,74,74,74,74,74,0,74,0,16,16,16,16,16,0,16,06-02-22,06-02-22,17:17:23,Sun Mar 06 2022 17:17:23 GMT+0100 (közép-európai téli idő),The main experiment item,yes,0,0,C:/Users/rrics/Documents/!!ResearchBMECOGSCI/gnet,0,0,0,prototype3.png,no,mono,no,18,no,black,no,no,768,1182,3.5.6,legacy,xpyriment,osweb,1.3.13,0,right,space,space,right,26579,36686,39996,26579,2,legacy,728,1366,24,768,24,0,0,1366,1646583532805,1024,2,48000,-16,experiment,p4sarrshacol4.png,0,even,Win32,168,148693,145680,167,168,678703,680219,673703,150212,673703,168,782493,784008,779502,680227,779502,visual_patterns,0,0,0,yes,1366
undefined,undefined,undefined,undefined,white,no,Mozilla,Netscape,"5.0 (Windows NT 10.0; Win64; x64) AppleWebKit/537.36 (KHTML, like Gecko) Chrome/99.0.4844.51 Safari/537.36",xpyriment,legacy,legacy,0,uniform,0,0,0,0,24,24,24,0,0,74,74,74,74,74,0,74,0,17,17,17,17,17,0,17,06-02-22,06-02-22,17:17:23,Sun Mar 06 2022 17:17:23 GMT+0100 (közép-európai téli idő),The main experiment item,yes,0,0,C:/Users/rrics/Documents/!!ResearchBMECOGSCI/gnet,0,0,0,prototype3.png,no,mono,no,18,no,black,no,no,768,1182,3.5.6,legacy,xpyriment,osweb,1.3.13,0,right,space,space,right,26579,36686,39996,26579,2,legacy,728,1366,24,768,24,0,0,1366,1646583532805,1024,2,48000,-16,experiment,p2sarrcol1.png,0,even,Win32,168,148693,145680,167,168,678703,680219,673703,150212,673703,168,787034,788540,784029,680227,784028,visual_patterns,0,0,0,yes,1366
undefined,undefined,undefined,undefined,white,no,Mozilla,Netscape,"5.0 (Windows NT 10.0; Win64; x64) AppleWebKit/537.36 (KHTML, like Gecko) Chrome/99.0.4844.51 Safari/537.36",xpyriment,legacy,legacy,0,uniform,0,0,0,0,24,24,24,0,0,74,74,74,74,74,0,74,0,18,18,18,18,18,0,18,06-02-22,06-02-22,17:17:23,Sun Mar 06 2022 17:17:23 GMT+0100 (közép-európai téli idő),The main experiment item,yes,0,0,C:/Users/rrics/Documents/!!ResearchBMECOGSCI/gnet,0,0,0,prototype3.png,no,mono,no,18,no,black,no,no,768,1182,3.5.6,legacy,xpyriment,osweb,1.3.13,0,right,space,space,right,26579,36686,39996,26579,2,legacy,728,1366,24,768,24,0,0,1366,1646583532805,1024,2,48000,-16,experiment,p1sarr4.png,0,even,Win32,168,148693,145680,167,168,678703,680219,673703,150212,673703,168,791557,793072,788565,680227,788565,visual_patterns,0,0,0,yes,1366
undefined,undefined,undefined,undefined,white,no,Mozilla,Netscape,"5.0 (Windows NT 10.0; Win64; x64) AppleWebKit/537.36 (KHTML, like Gecko) Chrome/99.0.4844.51 Safari/537.36",xpyriment,legacy,legacy,0,uniform,0,0,0,0,24,24,24,0,0,74,74,74,74,74,0,74,0,19,19,19,19,19,0,19,06-02-22,06-02-22,17:17:23,Sun Mar 06 2022 17:17:23 GMT+0100 (közép-európai téli idő),The main experiment item,yes,0,0,C:/Users/rrics/Documents/!!ResearchBMECOGSCI/gnet,0,0,0,prototype3.png,no,mono,no,18,no,black,no,no,768,1182,3.5.6,legacy,xpyriment,osweb,1.3.13,0,right,space,space,right,26579,36686,39996,26579,2,legacy,728,1366,24,768,24,0,0,1366,1646583532805,1024,2,48000,-16,experiment,p10sarr1.png,0,even,Win32,168,148693,145680,167,168,678703,680219,673703,150212,673703,168,796098,797605,793094,680227,793094,visual_patterns,0,0,0,yes,1366
undefined,undefined,undefined,undefined,white,no,Mozilla,Netscape,"5.0 (Windows NT 10.0; Win64; x64) AppleWebKit/537.36 (KHTML, like Gecko) Chrome/99.0.4844.51 Safari/537.36",xpyriment,legacy,legacy,0,uniform,0,0,0,0,24,24,24,0,0,74,74,74,74,74,0,74,0,20,20,20,20,20,0,20,06-02-22,06-02-22,17:17:23,Sun Mar 06 2022 17:17:23 GMT+0100 (közép-európai téli idő),The main experiment item,yes,0,0,C:/Users/rrics/Documents/!!ResearchBMECOGSCI/gnet,0,0,0,prototype3.png,no,mono,no,18,no,black,no,no,768,1182,3.5.6,legacy,xpyriment,osweb,1.3.13,0,right,space,space,right,26579,36686,39996,26579,2,legacy,728,1366,24,768,24,0,0,1366,1646583532805,1024,2,48000,-16,experiment,p8sarr3.png,0,even,Win32,168,148693,145680,167,168,678703,680219,673703,150212,673703,168,800627,802137,797629,680227,797629,visual_patterns,0,0,0,yes,1366
undefined,undefined,undefined,undefined,white,no,Mozilla,Netscape,"5.0 (Windows NT 10.0; Win64; x64) AppleWebKit/537.36 (KHTML, like Gecko) Chrome/99.0.4844.51 Safari/537.36",xpyriment,legacy,legacy,0,uniform,0,0,0,0,24,24,24,0,0,74,74,74,74,74,0,74,0,21,21,21,21,21,0,21,06-02-22,06-02-22,17:17:23,Sun Mar 06 2022 17:17:23 GMT+0100 (közép-európai téli idő),The main experiment item,yes,0,0,C:/Users/rrics/Documents/!!ResearchBMECOGSCI/gnet,0,0,0,prototype3.png,no,mono,no,18,no,black,no,no,768,1182,3.5.6,legacy,xpyriment,osweb,1.3.13,0,right,space,space,right,26579,36686,39996,26579,2,legacy,728,1366,24,768,24,0,0,1366,1646583532805,1024,2,48000,-16,experiment,p9sarr4.png,0,even,Win32,168,148693,145680,167,168,678703,680219,673703,150212,673703,168,805187,806702,802189,680227,802188,visual_patterns,0,0,0,yes,1366
undefined,undefined,undefined,undefined,white,no,Mozilla,Netscape,"5.0 (Windows NT 10.0; Win64; x64) AppleWebKit/537.36 (KHTML, like Gecko) Chrome/99.0.4844.51 Safari/537.36",xpyriment,legacy,legacy,0,uniform,0,0,0,0,24,24,24,0,0,74,74,74,74,74,0,74,0,22,22,22,22,22,0,22,06-02-22,06-02-22,17:17:23,Sun Mar 06 2022 17:17:23 GMT+0100 (közép-európai téli idő),The main experiment item,yes,0,0,C:/Users/rrics/Documents/!!ResearchBMECOGSCI/gnet,0,0,0,prototype3.png,no,mono,no,18,no,black,no,no,768,1182,3.5.6,legacy,xpyriment,osweb,1.3.13,0,right,space,space,right,26579,36686,39996,26579,2,legacy,728,1366,24,768,24,0,0,1366,1646583532805,1024,2,48000,-16,experiment,p5sarrcol2.png,0,even,Win32,168,148693,145680,167,168,678703,680219,673703,150212,673703,168,809728,811234,806725,680227,806725,visual_patterns,0,0,0,yes,1366
undefined,undefined,undefined,undefined,white,no,Mozilla,Netscape,"5.0 (Windows NT 10.0; Win64; x64) AppleWebKit/537.36 (KHTML, like Gecko) Chrome/99.0.4844.51 Safari/537.36",xpyriment,legacy,legacy,0,uniform,0,0,0,0,24,24,24,0,0,74,74,74,74,74,0,74,0,23,23,23,23,23,0,23,06-02-22,06-02-22,17:17:23,Sun Mar 06 2022 17:17:23 GMT+0100 (közép-európai téli idő),The main experiment item,yes,0,0,C:/Users/rrics/Documents/!!ResearchBMECOGSCI/gnet,0,0,0,prototype3.png,no,mono,no,18,no,black,no,no,768,1182,3.5.6,legacy,xpyriment,osweb,1.3.13,0,right,space,space,right,26579,36686,39996,26579,2,legacy,728,1366,24,768,24,0,0,1366,1646583532805,1024,2,48000,-16,experiment,p7sarr4.png,0,even,Win32,168,148693,145680,167,168,678703,680219,673703,150212,673703,168,814244,815750,811244,680227,811244,visual_patterns,0,0,0,yes,1366
undefined,undefined,undefined,undefined,white,no,Mozilla,Netscape,"5.0 (Windows NT 10.0; Win64; x64) AppleWebKit/537.36 (KHTML, like Gecko) Chrome/99.0.4844.51 Safari/537.36",xpyriment,legacy,legacy,0,uniform,0,0,0,0,24,24,24,0,0,74,74,74,74,74,0,74,0,24,24,24,24,24,0,24,06-02-22,06-02-22,17:17:23,Sun Mar 06 2022 17:17:23 GMT+0100 (közép-európai téli idő),The main experiment item,yes,0,0,C:/Users/rrics/Documents/!!ResearchBMECOGSCI/gnet,0,0,0,prototype3.png,no,mono,no,18,no,black,no,no,768,1182,3.5.6,legacy,xpyriment,osweb,1.3.13,0,right,space,space,right,26579,36686,39996,26579,2,legacy,728,1366,24,768,24,0,0,1366,1646583532805,1024,2,48000,-16,experiment,p3sarrsha3.png,0,even,Win32,168,148693,145680,167,168,678703,680219,673703,150212,673703,168,818777,820282,815775,680227,815775,visual_patterns,0,0,0,yes,1366
undefined,undefined,undefined,undefined,white,no,Mozilla,Netscape,"5.0 (Windows NT 10.0; Win64; x64) AppleWebKit/537.36 (KHTML, like Gecko) Chrome/99.0.4844.51 Safari/537.36",xpyriment,legacy,legacy,0,uniform,0,0,0,0,24,24,24,0,0,74,74,74,74,74,0,74,0,25,25,25,25,25,0,25,06-02-22,06-02-22,17:17:23,Sun Mar 06 2022 17:17:23 GMT+0100 (közép-európai téli idő),The main experiment item,yes,0,0,C:/Users/rrics/Documents/!!ResearchBMECOGSCI/gnet,0,0,0,prototype3.png,no,mono,no,18,no,black,no,no,768,1182,3.5.6,legacy,xpyriment,osweb,1.3.13,0,right,space,space,right,26579,36686,39996,26579,2,legacy,728,1366,24,768,24,0,0,1366,1646583532805,1024,2,48000,-16,experiment,p8sarr4.png,0,even,Win32,168,148693,145680,167,168,678703,680219,673703,150212,673703,168,823307,824814,820309,680227,820309,visual_patterns,0,0,0,yes,1366
undefined,undefined,undefined,undefined,white,no,Mozilla,Netscape,"5.0 (Windows NT 10.0; Win64; x64) AppleWebKit/537.36 (KHTML, like Gecko) Chrome/99.0.4844.51 Safari/537.36",xpyriment,legacy,legacy,0,uniform,0,0,0,0,24,24,24,0,0,74,74,74,74,74,0,74,0,26,26,26,26,26,0,26,06-02-22,06-02-22,17:17:23,Sun Mar 06 2022 17:17:23 GMT+0100 (közép-európai téli idő),The main experiment item,yes,0,0,C:/Users/rrics/Documents/!!ResearchBMECOGSCI/gnet,0,0,0,prototype3.png,no,mono,no,18,no,black,no,no,768,1182,3.5.6,legacy,xpyriment,osweb,1.3.13,0,right,space,space,right,26579,36686,39996,26579,2,legacy,728,1366,24,768,24,0,0,1366,1646583532805,1024,2,48000,-16,experiment,p2sarrshacol4.png,0,even,Win32,168,148693,145680,167,168,678703,680219,673703,150212,673703,168,827873,829380,824871,680227,824871,visual_patterns,0,0,0,yes,1366
undefined,undefined,undefined,undefined,white,no,Mozilla,Netscape,"5.0 (Windows NT 10.0; Win64; x64) AppleWebKit/537.36 (KHTML, like Gecko) Chrome/99.0.4844.51 Safari/537.36",xpyriment,legacy,legacy,0,uniform,0,0,0,0,24,24,24,0,0,74,74,74,74,74,0,74,0,27,27,27,27,27,0,27,06-02-22,06-02-22,17:17:23,Sun Mar 06 2022 17:17:23 GMT+0100 (közép-európai téli idő),The main experiment item,yes,0,0,C:/Users/rrics/Documents/!!ResearchBMECOGSCI/gnet,0,0,0,prototype3.png,no,mono,no,18,no,black,no,no,768,1182,3.5.6,legacy,xpyriment,osweb,1.3.13,0,right,space,space,right,26579,36686,39996,26579,2,legacy,728,1366,24,768,24,0,0,1366,1646583532805,1024,2,48000,-16,experiment,p4sarrshacol1.png,0,even,Win32,168,148693,145680,167,168,678703,680219,673703,150212,673703,168,832405,833912,829401,680227,829401,visual_patterns,0,0,0,yes,1366
undefined,undefined,undefined,undefined,white,no,Mozilla,Netscape,"5.0 (Windows NT 10.0; Win64; x64) AppleWebKit/537.36 (KHTML, like Gecko) Chrome/99.0.4844.51 Safari/537.36",xpyriment,legacy,legacy,0,uniform,0,0,0,0,24,24,24,0,0,74,74,74,74,74,0,74,0,28,28,28,28,28,0,28,06-02-22,06-02-22,17:17:23,Sun Mar 06 2022 17:17:23 GMT+0100 (közép-európai téli idő),The main experiment item,yes,0,0,C:/Users/rrics/Documents/!!ResearchBMECOGSCI/gnet,0,0,0,prototype3.png,no,mono,no,18,no,black,no,no,768,1182,3.5.6,legacy,xpyriment,osweb,1.3.13,0,right,space,space,right,26579,36686,39996,26579,2,legacy,728,1366,24,768,24,0,0,1366,1646583532805,1024,2,48000,-16,experiment,p1sarrshacol3.png,0,even,Win32,168,148693,145680,167,168,678703,680219,673703,150212,673703,168,836939,838444,833938,680227,833938,visual_patterns,0,0,0,yes,1366
undefined,undefined,undefined,undefined,white,no,Mozilla,Netscape,"5.0 (Windows NT 10.0; Win64; x64) AppleWebKit/537.36 (KHTML, like Gecko) Chrome/99.0.4844.51 Safari/537.36",xpyriment,legacy,legacy,0,uniform,0,0,0,0,24,24,24,0,0,74,74,74,74,74,0,74,0,29,29,29,29,29,0,29,06-02-22,06-02-22,17:17:23,Sun Mar 06 2022 17:17:23 GMT+0100 (közép-európai téli idő),The main experiment item,yes,0,0,C:/Users/rrics/Documents/!!ResearchBMECOGSCI/gnet,0,0,0,prototype3.png,no,mono,no,18,no,black,no,no,768,1182,3.5.6,legacy,xpyriment,osweb,1.3.13,0,right,space,space,right,26579,36686,39996,26579,2,legacy,728,1366,24,768,24,0,0,1366,1646583532805,1024,2,48000,-16,experiment,p2sarrsha1.png,0,even,Win32,168,148693,145680,167,168,678703,680219,673703,150212,673703,168,841469,842976,838465,680227,838465,visual_patterns,0,0,0,yes,1366
undefined,undefined,undefined,undefined,white,no,Mozilla,Netscape,"5.0 (Windows NT 10.0; Win64; x64) AppleWebKit/537.36 (KHTML, like Gecko) Chrome/99.0.4844.51 Safari/537.36",xpyriment,legacy,legacy,0,uniform,0,0,0,0,24,24,24,0,0,74,74,74,74,74,0,74,0,30,30,30,30,30,0,30,06-02-22,06-02-22,17:17:23,Sun Mar 06 2022 17:17:23 GMT+0100 (közép-európai téli idő),The main experiment item,yes,0,0,C:/Users/rrics/Documents/!!ResearchBMECOGSCI/gnet,0,0,0,prototype3.png,no,mono,no,18,no,black,no,no,768,1182,3.5.6,legacy,xpyriment,osweb,1.3.13,0,right,space,space,right,26579,36686,39996,26579,2,legacy,728,1366,24,768,24,0,0,1366,1646583532805,1024,2,48000,-16,experiment,p3sarr2.png,0,even,Win32,168,148693,145680,167,168,678703,680219,673703,150212,673703,168,846002,847508,842997,680227,842997,visual_patterns,0,0,0,yes,1366
undefined,undefined,undefined,undefined,white,no,Mozilla,Netscape,"5.0 (Windows NT 10.0; Win64; x64) AppleWebKit/537.36 (KHTML, like Gecko) Chrome/99.0.4844.51 Safari/537.36",xpyriment,legacy,legacy,0,uniform,0,0,0,0,24,24,24,0,0,74,74,74,74,74,0,74,0,31,31,31,31,31,0,31,06-02-22,06-02-22,17:17:23,Sun Mar 06 2022 17:17:23 GMT+0100 (közép-európai téli idő),The main experiment item,yes,0,0,C:/Users/rrics/Documents/!!ResearchBMECOGSCI/gnet,0,0,0,prototype3.png,no,mono,no,18,no,black,no,no,768,1182,3.5.6,legacy,xpyriment,osweb,1.3.13,0,right,space,space,right,26579,36686,39996,26579,2,legacy,728,1366,24,768,24,0,0,1366,1646583532805,1024,2,48000,-16,experiment,p3sarrshacol3.png,0,even,Win32,168,148693,145680,167,168,678703,680219,673703,150212,673703,168,850534,852040,847542,680227,847542,visual_patterns,0,0,0,yes,1366
undefined,undefined,undefined,undefined,white,no,Mozilla,Netscape,"5.0 (Windows NT 10.0; Win64; x64) AppleWebKit/537.36 (KHTML, like Gecko) Chrome/99.0.4844.51 Safari/537.36",xpyriment,legacy,legacy,0,uniform,0,0,0,0,24,24,24,0,0,74,74,74,74,74,0,74,0,32,32,32,32,32,0,32,06-02-22,06-02-22,17:17:23,Sun Mar 06 2022 17:17:23 GMT+0100 (közép-európai téli idő),The main experiment item,yes,0,0,C:/Users/rrics/Documents/!!ResearchBMECOGSCI/gnet,0,0,0,prototype3.png,no,mono,no,18,no,black,no,no,768,1182,3.5.6,legacy,xpyriment,osweb,1.3.13,0,right,space,space,right,26579,36686,39996,26579,2,legacy,728,1366,24,768,24,0,0,1366,1646583532805,1024,2,48000,-16,experiment,p2sarrcol4.png,0,even,Win32,168,148693,145680,167,168,678703,680219,673703,150212,673703,168,855067,856573,852065,680227,852065,visual_patterns,0,0,0,yes,1366
undefined,undefined,undefined,undefined,white,no,Mozilla,Netscape,"5.0 (Windows NT 10.0; Win64; x64) AppleWebKit/537.36 (KHTML, like Gecko) Chrome/99.0.4844.51 Safari/537.36",xpyriment,legacy,legacy,0,uniform,0,0,0,0,24,24,24,0,0,74,74,74,74,74,0,74,0,33,33,33,33,33,0,33,06-02-22,06-02-22,17:17:23,Sun Mar 06 2022 17:17:23 GMT+0100 (közép-európai téli idő),The main experiment item,yes,0,0,C:/Users/rrics/Documents/!!ResearchBMECOGSCI/gnet,0,0,0,prototype3.png,no,mono,no,18,no,black,no,no,768,1182,3.5.6,legacy,xpyriment,osweb,1.3.13,0,right,space,space,right,26579,36686,39996,26579,2,legacy,728,1366,24,768,24,0,0,1366,1646583532805,1024,2,48000,-16,experiment,p5sarrcol1.png,0,even,Win32,168,148693,145680,167,168,678703,680219,673703,150212,673703,168,859599,861105,856593,680227,856593,visual_patterns,0,0,0,yes,1366
undefined,undefined,undefined,undefined,white,no,Mozilla,Netscape,"5.0 (Windows NT 10.0; Win64; x64) AppleWebKit/537.36 (KHTML, like Gecko) Chrome/99.0.4844.51 Safari/537.36",xpyriment,legacy,legacy,0,uniform,0,0,0,0,24,24,24,0,0,74,74,74,74,74,0,74,0,34,34,34,34,34,0,34,06-02-22,06-02-22,17:17:23,Sun Mar 06 2022 17:17:23 GMT+0100 (közép-európai téli idő),The main experiment item,yes,0,0,C:/Users/rrics/Documents/!!ResearchBMECOGSCI/gnet,0,0,0,prototype3.png,no,mono,no,18,no,black,no,no,768,1182,3.5.6,legacy,xpyriment,osweb,1.3.13,0,right,space,space,right,26579,36686,39996,26579,2,legacy,728,1366,24,768,24,0,0,1366,1646583532805,1024,2,48000,-16,experiment,p8sarr2.png,0,even,Win32,168,148693,145680,167,168,678703,680219,673703,150212,673703,168,864134,865637,861128,680227,861128,visual_patterns,0,0,0,yes,1366
undefined,undefined,undefined,undefined,white,no,Mozilla,Netscape,"5.0 (Windows NT 10.0; Win64; x64) AppleWebKit/537.36 (KHTML, like Gecko) Chrome/99.0.4844.51 Safari/537.36",xpyriment,legacy,legacy,0,uniform,0,0,0,0,24,24,24,0,0,74,74,74,74,74,0,74,0,35,35,35,35,35,0,35,06-02-22,06-02-22,17:17:23,Sun Mar 06 2022 17:17:23 GMT+0100 (közép-európai téli idő),The main experiment item,yes,0,0,C:/Users/rrics/Documents/!!ResearchBMECOGSCI/gnet,0,0,0,prototype3.png,no,mono,no,18,no,black,no,no,768,1182,3.5.6,legacy,xpyriment,osweb,1.3.13,0,right,space,space,right,26579,36686,39996,26579,2,legacy,728,1366,24,768,24,0,0,1366,1646583532805,1024,2,48000,-16,experiment,p5sarr3.png,0,even,Win32,168,148693,145680,167,168,678703,680219,673703,150212,673703,168,868662,870169,865662,680227,865662,visual_patterns,0,0,0,yes,1366
undefined,undefined,undefined,undefined,white,no,Mozilla,Netscape,"5.0 (Windows NT 10.0; Win64; x64) AppleWebKit/537.36 (KHTML, like Gecko) Chrome/99.0.4844.51 Safari/537.36",xpyriment,legacy,legacy,0,uniform,0,0,0,0,24,24,24,0,0,74,74,74,74,74,0,74,0,36,36,36,36,36,0,36,06-02-22,06-02-22,17:17:23,Sun Mar 06 2022 17:17:23 GMT+0100 (közép-európai téli idő),The main experiment item,yes,0,0,C:/Users/rrics/Documents/!!ResearchBMECOGSCI/gnet,0,0,0,prototype3.png,no,mono,no,18,no,black,no,no,768,1182,3.5.6,legacy,xpyriment,osweb,1.3.13,0,right,space,space,right,26579,36686,39996,26579,2,legacy,728,1366,24,768,24,0,0,1366,1646583532805,1024,2,48000,-16,experiment,p7sarr1.png,0,even,Win32,168,148693,145680,167,168,678703,680219,673703,150212,673703,168,873227,874734,870227,680227,870227,visual_patterns,0,0,0,yes,1366
undefined,undefined,undefined,undefined,white,no,Mozilla,Netscape,"5.0 (Windows NT 10.0; Win64; x64) AppleWebKit/537.36 (KHTML, like Gecko) Chrome/99.0.4844.51 Safari/537.36",xpyriment,legacy,legacy,0,uniform,0,0,0,0,24,24,24,0,0,74,74,74,74,74,0,74,0,37,37,37,37,37,0,37,06-02-22,06-02-22,17:17:23,Sun Mar 06 2022 17:17:23 GMT+0100 (közép-európai téli idő),The main experiment item,yes,0,0,C:/Users/rrics/Documents/!!ResearchBMECOGSCI/gnet,0,0,0,prototype3.png,no,mono,no,18,no,black,no,no,768,1182,3.5.6,legacy,xpyriment,osweb,1.3.13,0,right,space,space,right,26579,36686,39996,26579,2,legacy,728,1366,24,768,24,0,0,1366,1646583532805,1024,2,48000,-16,experiment,p1sarrcol4.png,0,even,Win32,168,148693,145680,167,168,678703,680219,673703,150212,673703,168,877760,879266,874761,680227,874761,visual_patterns,0,0,0,yes,1366
undefined,undefined,undefined,undefined,white,no,Mozilla,Netscape,"5.0 (Windows NT 10.0; Win64; x64) AppleWebKit/537.36 (KHTML, like Gecko) Chrome/99.0.4844.51 Safari/537.36",xpyriment,legacy,legacy,0,uniform,0,0,0,0,24,24,24,0,0,74,74,74,74,74,0,74,0,38,38,38,38,38,0,38,06-02-22,06-02-22,17:17:23,Sun Mar 06 2022 17:17:23 GMT+0100 (közép-európai téli idő),The main experiment item,yes,0,0,C:/Users/rrics/Documents/!!ResearchBMECOGSCI/gnet,0,0,0,prototype3.png,no,mono,no,18,no,black,no,no,768,1182,3.5.6,legacy,xpyriment,osweb,1.3.13,0,right,space,space,right,26579,36686,39996,26579,2,legacy,728,1366,24,768,24,0,0,1366,1646583532805,1024,2,48000,-16,experiment,p3sarrsha4.png,0,even,Win32,168,148693,145680,167,168,678703,680219,673703,150212,673703,168,882293,883799,879292,680227,879291,visual_patterns,0,0,0,yes,1366
undefined,undefined,undefined,undefined,white,no,Mozilla,Netscape,"5.0 (Windows NT 10.0; Win64; x64) AppleWebKit/537.36 (KHTML, like Gecko) Chrome/99.0.4844.51 Safari/537.36",xpyriment,legacy,legacy,0,uniform,0,0,0,0,24,24,24,0,0,74,74,74,74,74,0,74,0,39,39,39,39,39,0,39,06-02-22,06-02-22,17:17:23,Sun Mar 06 2022 17:17:23 GMT+0100 (közép-európai téli idő),The main experiment item,yes,0,0,C:/Users/rrics/Documents/!!ResearchBMECOGSCI/gnet,0,0,0,prototype3.png,no,mono,no,18,no,black,no,no,768,1182,3.5.6,legacy,xpyriment,osweb,1.3.13,0,right,space,space,right,26579,36686,39996,26579,2,legacy,728,1366,24,768,24,0,0,1366,1646583532805,1024,2,48000,-16,experiment,p3sarr1.png,0,even,Win32,168,148693,145680,167,168,678703,680219,673703,150212,673703,168,886824,888331,883819,680227,883819,visual_patterns,0,0,0,yes,1366
undefined,undefined,undefined,undefined,white,no,Mozilla,Netscape,"5.0 (Windows NT 10.0; Win64; x64) AppleWebKit/537.36 (KHTML, like Gecko) Chrome/99.0.4844.51 Safari/537.36",xpyriment,legacy,legacy,0,uniform,0,0,0,0,24,24,24,0,0,74,74,74,74,74,0,74,0,40,40,40,40,40,0,40,06-02-22,06-02-22,17:17:23,Sun Mar 06 2022 17:17:23 GMT+0100 (közép-európai téli idő),The main experiment item,yes,0,0,C:/Users/rrics/Documents/!!ResearchBMECOGSCI/gnet,0,0,0,prototype3.png,no,mono,no,18,no,black,no,no,768,1182,3.5.6,legacy,xpyriment,osweb,1.3.13,0,right,space,space,right,26579,36686,39996,26579,2,legacy,728,1366,24,768,24,0,0,1366,1646583532805,1024,2,48000,-16,experiment,p2sarrsha3.png,0,even,Win32,168,148693,145680,167,168,678703,680219,673703,150212,673703,168,891356,892863,888358,680227,888358,visual_patterns,0,0,0,yes,1366
undefined,undefined,undefined,undefined,white,no,Mozilla,Netscape,"5.0 (Windows NT 10.0; Win64; x64) AppleWebKit/537.36 (KHTML, like Gecko) Chrome/99.0.4844.51 Safari/537.36",xpyriment,legacy,legacy,0,uniform,0,0,0,0,24,24,24,0,0,74,74,74,74,74,0,74,0,41,41,41,41,41,0,41,06-02-22,06-02-22,17:17:23,Sun Mar 06 2022 17:17:23 GMT+0100 (közép-európai téli idő),The main experiment item,yes,0,0,C:/Users/rrics/Documents/!!ResearchBMECOGSCI/gnet,0,0,0,prototype3.png,no,mono,no,18,no,black,no,no,768,1182,3.5.6,legacy,xpyriment,osweb,1.3.13,0,right,space,space,right,26579,36686,39996,26579,2,legacy,728,1366,24,768,24,0,0,1366,1646583532805,1024,2,48000,-16,experiment,p9sarr3.png,0,even,Win32,168,148693,145680,167,168,678703,680219,673703,150212,673703,168,895913,897429,892910,680227,892910,visual_patterns,0,0,0,yes,1366
undefined,undefined,undefined,undefined,white,no,Mozilla,Netscape,"5.0 (Windows NT 10.0; Win64; x64) AppleWebKit/537.36 (KHTML, like Gecko) Chrome/99.0.4844.51 Safari/537.36",xpyriment,legacy,legacy,0,uniform,0,0,0,0,24,24,24,0,0,74,74,74,74,74,0,74,0,42,42,42,42,42,0,42,06-02-22,06-02-22,17:17:23,Sun Mar 06 2022 17:17:23 GMT+0100 (közép-európai téli idő),The main experiment item,yes,0,0,C:/Users/rrics/Documents/!!ResearchBMECOGSCI/gnet,0,0,0,prototype3.png,no,mono,no,18,no,black,no,no,768,1182,3.5.6,legacy,xpyriment,osweb,1.3.13,0,right,space,space,right,26579,36686,39996,26579,2,legacy,728,1366,24,768,24,0,0,1366,1646583532805,1024,2,48000,-16,experiment,p10sarr4.png,0,even,Win32,168,148693,145680,167,168,678703,680219,673703,150212,673703,168,900455,901961,897452,680227,897452,visual_patterns,0,0,0,yes,1366
undefined,undefined,undefined,undefined,white,no,Mozilla,Netscape,"5.0 (Windows NT 10.0; Win64; x64) AppleWebKit/537.36 (KHTML, like Gecko) Chrome/99.0.4844.51 Safari/537.36",xpyriment,legacy,legacy,0,uniform,0,0,0,0,24,24,24,0,0,74,74,74,74,74,0,74,0,43,43,43,43,43,0,43,06-02-22,06-02-22,17:17:23,Sun Mar 06 2022 17:17:23 GMT+0100 (közép-európai téli idő),The main experiment item,yes,0,0,C:/Users/rrics/Documents/!!ResearchBMECOGSCI/gnet,0,0,0,prototype3.png,no,mono,no,18,no,black,no,no,768,1182,3.5.6,legacy,xpyriment,osweb,1.3.13,0,right,space,space,right,26579,36686,39996,26579,2,legacy,728,1366,24,768,24,0,0,1366,1646583532805,1024,2,48000,-16,experiment,p4sarrcol1.png,0,even,Win32,168,148693,145680,167,168,678703,680219,673703,150212,673703,168,904985,906493,901983,680227,901982,visual_patterns,0,0,0,yes,1366
undefined,undefined,undefined,undefined,white,no,Mozilla,Netscape,"5.0 (Windows NT 10.0; Win64; x64) AppleWebKit/537.36 (KHTML, like Gecko) Chrome/99.0.4844.51 Safari/537.36",xpyriment,legacy,legacy,0,uniform,0,0,0,0,24,24,24,0,0,74,74,74,74,74,0,74,0,44,44,44,44,44,0,44,06-02-22,06-02-22,17:17:23,Sun Mar 06 2022 17:17:23 GMT+0100 (közép-európai téli idő),The main experiment item,yes,0,0,C:/Users/rrics/Documents/!!ResearchBMECOGSCI/gnet,0,0,0,prototype3.png,no,mono,no,18,no,black,no,no,768,1182,3.5.6,legacy,xpyriment,osweb,1.3.13,0,right,space,space,right,26579,36686,39996,26579,2,legacy,728,1366,24,768,24,0,0,1366,1646583532805,1024,2,48000,-16,experiment,p5sarrshacol4.png,0,even,Win32,168,148693,145680,167,168,678703,680219,673703,150212,673703,168,909518,911025,906518,680227,906518,visual_patterns,0,0,0,yes,1366
undefined,undefined,undefined,undefined,white,no,Mozilla,Netscape,"5.0 (Windows NT 10.0; Win64; x64) AppleWebKit/537.36 (KHTML, like Gecko) Chrome/99.0.4844.51 Safari/537.36",xpyriment,legacy,legacy,0,uniform,0,0,0,0,24,24,24,0,0,74,74,74,74,74,0,74,0,45,45,45,45,45,0,45,06-02-22,06-02-22,17:17:23,Sun Mar 06 2022 17:17:23 GMT+0100 (közép-európai téli idő),The main experiment item,yes,0,0,C:/Users/rrics/Documents/!!ResearchBMECOGSCI/gnet,0,0,0,prototype3.png,no,mono,no,18,no,black,no,no,768,1182,3.5.6,legacy,xpyriment,osweb,1.3.13,0,right,space,space,right,26579,36686,39996,26579,2,legacy,728,1366,24,768,24,0,0,1366,1646583532805,1024,2,48000,-16,experiment,p3sarr3.png,0,even,Win32,168,148693,145680,167,168,678703,680219,673703,150212,673703,168,914051,915557,911053,680227,911053,visual_patterns,0,0,0,yes,1366
undefined,undefined,undefined,undefined,white,no,Mozilla,Netscape,"5.0 (Windows NT 10.0; Win64; x64) AppleWebKit/537.36 (KHTML, like Gecko) Chrome/99.0.4844.51 Safari/537.36",xpyriment,legacy,legacy,0,uniform,0,0,0,0,24,24,24,0,0,74,74,74,74,74,0,74,0,46,46,46,46,46,0,46,06-02-22,06-02-22,17:17:23,Sun Mar 06 2022 17:17:23 GMT+0100 (közép-európai téli idő),The main experiment item,yes,0,0,C:/Users/rrics/Documents/!!ResearchBMECOGSCI/gnet,0,0,0,prototype3.png,no,mono,no,18,no,black,no,no,768,1182,3.5.6,legacy,xpyriment,osweb,1.3.13,0,right,space,space,right,26579,36686,39996,26579,2,legacy,728,1366,24,768,24,0,0,1366,1646583532805,1024,2,48000,-16,experiment,p2sarr3.png,0,even,Win32,168,148693,145680,167,168,678703,680219,673703,150212,673703,168,918584,920089,915586,680227,915586,visual_patterns,0,0,0,yes,1366
undefined,undefined,undefined,undefined,white,no,Mozilla,Netscape,"5.0 (Windows NT 10.0; Win64; x64) AppleWebKit/537.36 (KHTML, like Gecko) Chrome/99.0.4844.51 Safari/537.36",xpyriment,legacy,legacy,0,uniform,0,0,0,0,24,24,24,0,0,74,74,74,74,74,0,74,0,47,47,47,47,47,0,47,06-02-22,06-02-22,17:17:23,Sun Mar 06 2022 17:17:23 GMT+0100 (közép-európai téli idő),The main experiment item,yes,0,0,C:/Users/rrics/Documents/!!ResearchBMECOGSCI/gnet,0,0,0,prototype3.png,no,mono,no,18,no,black,no,no,768,1182,3.5.6,legacy,xpyriment,osweb,1.3.13,0,right,space,space,right,26579,36686,39996,26579,2,legacy,728,1366,24,768,24,0,0,1366,1646583532805,1024,2,48000,-16,experiment,p4sarr2.png,0,even,Win32,168,148693,145680,167,168,678703,680219,673703,150212,673703,168,923115,924621,920109,680227,920109,visual_patterns,0,0,0,yes,1366
undefined,undefined,undefined,undefined,white,no,Mozilla,Netscape,"5.0 (Windows NT 10.0; Win64; x64) AppleWebKit/537.36 (KHTML, like Gecko) Chrome/99.0.4844.51 Safari/537.36",xpyriment,legacy,legacy,0,uniform,0,0,0,0,24,24,24,0,0,74,74,74,74,74,0,74,0,48,48,48,48,48,0,48,06-02-22,06-02-22,17:17:23,Sun Mar 06 2022 17:17:23 GMT+0100 (közép-európai téli idő),The main experiment item,yes,0,0,C:/Users/rrics/Documents/!!ResearchBMECOGSCI/gnet,0,0,0,prototype3.png,no,mono,no,18,no,black,no,no,768,1182,3.5.6,legacy,xpyriment,osweb,1.3.13,0,right,space,space,right,26579,36686,39996,26579,2,legacy,728,1366,24,768,24,0,0,1366,1646583532805,1024,2,48000,-16,experiment,p2sarrshacol3.png,0,even,Win32,168,148693,145680,167,168,678703,680219,673703,150212,673703,168,927647,929154,924646,680227,924646,visual_patterns,0,0,0,yes,1366
