acc,accuracy,average_response_time,avg_rt,background,bidi,browser_codename,browser_name,browser_version,canvas_backend,clock_backend,color_backend,compensation,coordinates,count_end,count_experiment,count_osweb,count_prestudy,count_prestudy_isi,count_prestudy_sequence,count_prestudy_stimpres,count_start,count_study,count_study_coroutines,count_study_isi,count_study_logger,count_study_response,count_study_sequence,count_study_start,count_study_stimpres,count_test,count_test_coroutines,count_test_isi,count_test_logger,count_test_response,count_test_sequence,count_test_start,count_test_stimpres,date_startdate,date_startdateUTC,date_starttime,datetime,description,disable_garbage_collection,experiment_debug,experiment_parameters,experiment_path,experiment_pilot,experiment_taskname,experiment_taskversion,fampict,font_bold,font_family,font_italic,font_size,font_underline,foreground,form_clicks,fullscreen,height,jatosStudyResultId,jatosVersion,keyboard_backend,mouse_backend,opensesame_codename,opensesame_version,repeat_cycle,response,response_start,response_study_start,response_test_start,response_time,response_time_start,response_time_study_start,response_time_test_start,round_decimals,sampler_backend,screen_availableHeight,screen_availableWidth,screen_colorDepth,screen_height,screen_pixelDepth,screen_screenX,screen_screenY,screen_width,sessionid,sound_buf_size,sound_channels,sound_freq,sound_sample_size,start,stim,subject_nr,subject_parity,system_os,time_prestudy,time_prestudy_isi,time_prestudy_stimpres,time_start,time_study,time_study_isi,time_study_logger,time_study_response,time_study_start,time_study_stimpres,time_test,time_test_isi,time_test_logger,time_test_response,time_test_start,time_test_stimpres,title,total_correct,total_response_time,total_responses,uniform_coordinates,width
undefined,undefined,undefined,undefined,white,no,Mozilla,Netscape,"5.0 (Windows NT 10.0; Win64; x64) AppleWebKit/537.36 (KHTML, like Gecko) Chrome/98.0.4758.102 Safari/537.36 OPR/84.0.4316.21",xpyriment,legacy,legacy,0,uniform,0,0,0,0,24,24,24,0,0,0,0,0,0,0,0,0,0,,,,,,0,,06-02-22,06-02-22,17:57:57,Sun Mar 06 2022 17:57:57 GMT+0100 (közép-európai téli idő),The main experiment item,yes,0,0,C:/Users/rrics/Documents/!!ResearchBMECOGSCI/gnet,0,0,0,prototype5.png,no,mono,no,18,no,black,no,no,768,1183,3.5.6,legacy,xpyriment,osweb,1.3.13,0,space,space,space,,26929,22252,26929,,2,legacy,824,1536,24,864,24,-1,-1,1536,1646585899616,1024,2,48000,-16,experiment,p6sarr1.png,1,odd,Win32,265,134359,131344,264,265,167843,169360,162839,135878,162839,265,,,,,,visual_patterns,0,0,0,yes,1366
undefined,undefined,undefined,undefined,white,no,Mozilla,Netscape,"5.0 (Windows NT 10.0; Win64; x64) AppleWebKit/537.36 (KHTML, like Gecko) Chrome/98.0.4758.102 Safari/537.36 OPR/84.0.4316.21",xpyriment,legacy,legacy,0,uniform,0,0,0,0,24,24,24,0,0,1,1,1,1,1,0,1,0,,,,,,0,,06-02-22,06-02-22,17:57:57,Sun Mar 06 2022 17:57:57 GMT+0100 (közép-európai téli idő),The main experiment item,yes,0,0,C:/Users/rrics/Documents/!!ResearchBMECOGSCI/gnet,0,0,0,prototype5.png,no,mono,no,18,no,black,no,no,768,1183,3.5.6,legacy,xpyriment,osweb,1.3.13,0,space,space,space,,26929,22252,26929,,2,legacy,824,1536,24,864,24,-1,-1,1536,1646585899616,1024,2,48000,-16,experiment,prototype3.png,1,odd,Win32,265,134359,131344,264,265,174406,175910,169403,135878,169403,265,,,,,,visual_patterns,0,0,0,yes,1366
undefined,undefined,undefined,undefined,white,no,Mozilla,Netscape,"5.0 (Windows NT 10.0; Win64; x64) AppleWebKit/537.36 (KHTML, like Gecko) Chrome/98.0.4758.102 Safari/537.36 OPR/84.0.4316.21",xpyriment,legacy,legacy,0,uniform,0,0,0,0,24,24,24,0,0,2,2,2,2,2,0,2,0,,,,,,0,,06-02-22,06-02-22,17:57:57,Sun Mar 06 2022 17:57:57 GMT+0100 (közép-európai téli idő),The main experiment item,yes,0,0,C:/Users/rrics/Documents/!!ResearchBMECOGSCI/gnet,0,0,0,prototype5.png,no,mono,no,18,no,black,no,no,768,1183,3.5.6,legacy,xpyriment,osweb,1.3.13,0,space,space,space,,26929,22252,26929,,2,legacy,824,1536,24,864,24,-1,-1,1536,1646585899616,1024,2,48000,-16,experiment,p3sarr1.png,1,odd,Win32,265,134359,131344,264,265,180927,182444,175930,135878,175930,265,,,,,,visual_patterns,0,0,0,yes,1366
undefined,undefined,undefined,undefined,white,no,Mozilla,Netscape,"5.0 (Windows NT 10.0; Win64; x64) AppleWebKit/537.36 (KHTML, like Gecko) Chrome/98.0.4758.102 Safari/537.36 OPR/84.0.4316.21",xpyriment,legacy,legacy,0,uniform,0,0,0,0,24,24,24,0,0,3,3,3,3,3,0,3,0,,,,,,0,,06-02-22,06-02-22,17:57:57,Sun Mar 06 2022 17:57:57 GMT+0100 (közép-európai téli idő),The main experiment item,yes,0,0,C:/Users/rrics/Documents/!!ResearchBMECOGSCI/gnet,0,0,0,prototype5.png,no,mono,no,18,no,black,no,no,768,1183,3.5.6,legacy,xpyriment,osweb,1.3.13,0,space,space,space,,26929,22252,26929,,2,legacy,824,1536,24,864,24,-1,-1,1536,1646585899616,1024,2,48000,-16,experiment,p9sarr2.png,1,odd,Win32,265,134359,131344,264,265,187460,188961,182462,135878,182462,265,,,,,,visual_patterns,0,0,0,yes,1366
undefined,undefined,undefined,undefined,white,no,Mozilla,Netscape,"5.0 (Windows NT 10.0; Win64; x64) AppleWebKit/537.36 (KHTML, like Gecko) Chrome/98.0.4758.102 Safari/537.36 OPR/84.0.4316.21",xpyriment,legacy,legacy,0,uniform,0,0,0,0,24,24,24,0,0,4,4,4,4,4,0,4,0,,,,,,0,,06-02-22,06-02-22,17:57:57,Sun Mar 06 2022 17:57:57 GMT+0100 (közép-európai téli idő),The main experiment item,yes,0,0,C:/Users/rrics/Documents/!!ResearchBMECOGSCI/gnet,0,0,0,prototype5.png,no,mono,no,18,no,black,no,no,768,1183,3.5.6,legacy,xpyriment,osweb,1.3.13,0,space,space,space,,26929,22252,26929,,2,legacy,824,1536,24,864,24,-1,-1,1536,1646585899616,1024,2,48000,-16,experiment,p4sarr2.png,1,odd,Win32,265,134359,131344,264,265,193982,195494,188979,135878,188978,265,,,,,,visual_patterns,0,0,0,yes,1366
undefined,undefined,undefined,undefined,white,no,Mozilla,Netscape,"5.0 (Windows NT 10.0; Win64; x64) AppleWebKit/537.36 (KHTML, like Gecko) Chrome/98.0.4758.102 Safari/537.36 OPR/84.0.4316.21",xpyriment,legacy,legacy,0,uniform,0,0,0,0,24,24,24,0,0,5,5,5,5,5,0,5,0,,,,,,0,,06-02-22,06-02-22,17:57:57,Sun Mar 06 2022 17:57:57 GMT+0100 (közép-európai téli idő),The main experiment item,yes,0,0,C:/Users/rrics/Documents/!!ResearchBMECOGSCI/gnet,0,0,0,prototype5.png,no,mono,no,18,no,black,no,no,768,1183,3.5.6,legacy,xpyriment,osweb,1.3.13,0,space,space,space,,26929,22252,26929,,2,legacy,824,1536,24,864,24,-1,-1,1536,1646585899616,1024,2,48000,-16,experiment,p4sarrshacol2.png,1,odd,Win32,265,134359,131344,264,265,200509,202011,195512,135878,195512,265,,,,,,visual_patterns,0,0,0,yes,1366
undefined,undefined,undefined,undefined,white,no,Mozilla,Netscape,"5.0 (Windows NT 10.0; Win64; x64) AppleWebKit/537.36 (KHTML, like Gecko) Chrome/98.0.4758.102 Safari/537.36 OPR/84.0.4316.21",xpyriment,legacy,legacy,0,uniform,0,0,0,0,24,24,24,0,0,6,6,6,6,6,0,6,0,,,,,,0,,06-02-22,06-02-22,17:57:57,Sun Mar 06 2022 17:57:57 GMT+0100 (közép-európai téli idő),The main experiment item,yes,0,0,C:/Users/rrics/Documents/!!ResearchBMECOGSCI/gnet,0,0,0,prototype5.png,no,mono,no,18,no,black,no,no,768,1183,3.5.6,legacy,xpyriment,osweb,1.3.13,0,space,space,space,,26929,22252,26929,,2,legacy,824,1536,24,864,24,-1,-1,1536,1646585899616,1024,2,48000,-16,experiment,p5sarrsha2.png,1,odd,Win32,265,134359,131344,264,265,207026,208529,202030,135878,202030,265,,,,,,visual_patterns,0,0,0,yes,1366
undefined,undefined,undefined,undefined,white,no,Mozilla,Netscape,"5.0 (Windows NT 10.0; Win64; x64) AppleWebKit/537.36 (KHTML, like Gecko) Chrome/98.0.4758.102 Safari/537.36 OPR/84.0.4316.21",xpyriment,legacy,legacy,0,uniform,0,0,0,0,24,24,24,0,0,7,7,7,7,7,0,7,0,,,,,,0,,06-02-22,06-02-22,17:57:57,Sun Mar 06 2022 17:57:57 GMT+0100 (közép-európai téli idő),The main experiment item,yes,0,0,C:/Users/rrics/Documents/!!ResearchBMECOGSCI/gnet,0,0,0,prototype5.png,no,mono,no,18,no,black,no,no,768,1183,3.5.6,legacy,xpyriment,osweb,1.3.13,0,space,space,space,,26929,22252,26929,,2,legacy,824,1536,24,864,24,-1,-1,1536,1646585899616,1024,2,48000,-16,experiment,p2sarr1.png,1,odd,Win32,265,134359,131344,264,265,213545,215062,208545,135878,208545,265,,,,,,visual_patterns,0,0,0,yes,1366
undefined,undefined,undefined,undefined,white,no,Mozilla,Netscape,"5.0 (Windows NT 10.0; Win64; x64) AppleWebKit/537.36 (KHTML, like Gecko) Chrome/98.0.4758.102 Safari/537.36 OPR/84.0.4316.21",xpyriment,legacy,legacy,0,uniform,0,0,0,0,24,24,24,0,0,8,8,8,8,8,0,8,0,,,,,,0,,06-02-22,06-02-22,17:57:57,Sun Mar 06 2022 17:57:57 GMT+0100 (közép-európai téli idő),The main experiment item,yes,0,0,C:/Users/rrics/Documents/!!ResearchBMECOGSCI/gnet,0,0,0,prototype5.png,no,mono,no,18,no,black,no,no,768,1183,3.5.6,legacy,xpyriment,osweb,1.3.13,0,space,space,space,,26929,22252,26929,,2,legacy,824,1536,24,864,24,-1,-1,1536,1646585899616,1024,2,48000,-16,experiment,prototype4.png,1,odd,Win32,265,134359,131344,264,265,220077,221579,215076,135878,215076,265,,,,,,visual_patterns,0,0,0,yes,1366
undefined,undefined,undefined,undefined,white,no,Mozilla,Netscape,"5.0 (Windows NT 10.0; Win64; x64) AppleWebKit/537.36 (KHTML, like Gecko) Chrome/98.0.4758.102 Safari/537.36 OPR/84.0.4316.21",xpyriment,legacy,legacy,0,uniform,0,0,0,0,24,24,24,0,0,9,9,9,9,9,0,9,0,,,,,,0,,06-02-22,06-02-22,17:57:57,Sun Mar 06 2022 17:57:57 GMT+0100 (közép-európai téli idő),The main experiment item,yes,0,0,C:/Users/rrics/Documents/!!ResearchBMECOGSCI/gnet,0,0,0,prototype5.png,no,mono,no,18,no,black,no,no,768,1183,3.5.6,legacy,xpyriment,osweb,1.3.13,0,space,space,space,,26929,22252,26929,,2,legacy,824,1536,24,864,24,-1,-1,1536,1646585899616,1024,2,48000,-16,experiment,p5sarrsha1.png,1,odd,Win32,265,134359,131344,264,265,226595,228099,221599,135878,221599,265,,,,,,visual_patterns,0,0,0,yes,1366
undefined,undefined,undefined,undefined,white,no,Mozilla,Netscape,"5.0 (Windows NT 10.0; Win64; x64) AppleWebKit/537.36 (KHTML, like Gecko) Chrome/98.0.4758.102 Safari/537.36 OPR/84.0.4316.21",xpyriment,legacy,legacy,0,uniform,0,0,0,0,24,24,24,0,0,10,10,10,10,10,0,10,0,,,,,,0,,06-02-22,06-02-22,17:57:57,Sun Mar 06 2022 17:57:57 GMT+0100 (közép-európai téli idő),The main experiment item,yes,0,0,C:/Users/rrics/Documents/!!ResearchBMECOGSCI/gnet,0,0,0,prototype5.png,no,mono,no,18,no,black,no,no,768,1183,3.5.6,legacy,xpyriment,osweb,1.3.13,0,space,space,space,,26929,22252,26929,,2,legacy,824,1536,24,864,24,-1,-1,1536,1646585899616,1024,2,48000,-16,experiment,p5sarrcol1.png,1,odd,Win32,265,134359,131344,264,265,233118,234630,228117,135878,228117,265,,,,,,visual_patterns,0,0,0,yes,1366
undefined,undefined,undefined,undefined,white,no,Mozilla,Netscape,"5.0 (Windows NT 10.0; Win64; x64) AppleWebKit/537.36 (KHTML, like Gecko) Chrome/98.0.4758.102 Safari/537.36 OPR/84.0.4316.21",xpyriment,legacy,legacy,0,uniform,0,0,0,0,24,24,24,0,0,11,11,11,11,11,0,11,0,,,,,,0,,06-02-22,06-02-22,17:57:57,Sun Mar 06 2022 17:57:57 GMT+0100 (közép-európai téli idő),The main experiment item,yes,0,0,C:/Users/rrics/Documents/!!ResearchBMECOGSCI/gnet,0,0,0,prototype5.png,no,mono,no,18,no,black,no,no,768,1183,3.5.6,legacy,xpyriment,osweb,1.3.13,0,space,space,space,,26929,22252,26929,,2,legacy,824,1536,24,864,24,-1,-1,1536,1646585899616,1024,2,48000,-16,experiment,p8sarr2.png,1,odd,Win32,265,134359,131344,264,265,239653,241164,234649,135878,234649,265,,,,,,visual_patterns,0,0,0,yes,1366
undefined,undefined,undefined,undefined,white,no,Mozilla,Netscape,"5.0 (Windows NT 10.0; Win64; x64) AppleWebKit/537.36 (KHTML, like Gecko) Chrome/98.0.4758.102 Safari/537.36 OPR/84.0.4316.21",xpyriment,legacy,legacy,0,uniform,0,0,0,0,24,24,24,0,0,12,12,12,12,12,0,12,0,,,,,,0,,06-02-22,06-02-22,17:57:57,Sun Mar 06 2022 17:57:57 GMT+0100 (közép-európai téli idő),The main experiment item,yes,0,0,C:/Users/rrics/Documents/!!ResearchBMECOGSCI/gnet,0,0,0,prototype5.png,no,mono,no,18,no,black,no,no,768,1183,3.5.6,legacy,xpyriment,osweb,1.3.13,0,space,space,space,,26929,22252,26929,,2,legacy,824,1536,24,864,24,-1,-1,1536,1646585899616,1024,2,48000,-16,experiment,p5sarrshacol2.png,1,odd,Win32,265,134359,131344,264,265,246180,247697,241181,135878,241181,265,,,,,,visual_patterns,0,0,0,yes,1366
undefined,undefined,undefined,undefined,white,no,Mozilla,Netscape,"5.0 (Windows NT 10.0; Win64; x64) AppleWebKit/537.36 (KHTML, like Gecko) Chrome/98.0.4758.102 Safari/537.36 OPR/84.0.4316.21",xpyriment,legacy,legacy,0,uniform,0,0,0,0,24,24,24,0,0,13,13,13,13,13,0,13,0,,,,,,0,,06-02-22,06-02-22,17:57:57,Sun Mar 06 2022 17:57:57 GMT+0100 (közép-európai téli idő),The main experiment item,yes,0,0,C:/Users/rrics/Documents/!!ResearchBMECOGSCI/gnet,0,0,0,prototype5.png,no,mono,no,18,no,black,no,no,768,1183,3.5.6,legacy,xpyriment,osweb,1.3.13,0,space,space,space,,26929,22252,26929,,2,legacy,824,1536,24,864,24,-1,-1,1536,1646585899616,1024,2,48000,-16,experiment,p8sarr1.png,1,odd,Win32,265,134359,131344,264,265,252719,254230,247720,135878,247720,265,,,,,,visual_patterns,0,0,0,yes,1366
undefined,undefined,undefined,undefined,white,no,Mozilla,Netscape,"5.0 (Windows NT 10.0; Win64; x64) AppleWebKit/537.36 (KHTML, like Gecko) Chrome/98.0.4758.102 Safari/537.36 OPR/84.0.4316.21",xpyriment,legacy,legacy,0,uniform,0,0,0,0,24,24,24,0,0,14,14,14,14,14,0,14,0,,,,,,0,,06-02-22,06-02-22,17:57:57,Sun Mar 06 2022 17:57:57 GMT+0100 (közép-európai téli idő),The main experiment item,yes,0,0,C:/Users/rrics/Documents/!!ResearchBMECOGSCI/gnet,0,0,0,prototype5.png,no,mono,no,18,no,black,no,no,768,1183,3.5.6,legacy,xpyriment,osweb,1.3.13,0,space,space,space,,26929,22252,26929,,2,legacy,824,1536,24,864,24,-1,-1,1536,1646585899616,1024,2,48000,-16,experiment,p3sarrcol1.png,1,odd,Win32,265,134359,131344,264,265,259248,260764,254249,135878,254249,265,,,,,,visual_patterns,0,0,0,yes,1366
undefined,undefined,undefined,undefined,white,no,Mozilla,Netscape,"5.0 (Windows NT 10.0; Win64; x64) AppleWebKit/537.36 (KHTML, like Gecko) Chrome/98.0.4758.102 Safari/537.36 OPR/84.0.4316.21",xpyriment,legacy,legacy,0,uniform,0,0,0,0,24,24,24,0,0,15,15,15,15,15,0,15,0,,,,,,0,,06-02-22,06-02-22,17:57:57,Sun Mar 06 2022 17:57:57 GMT+0100 (közép-európai téli idő),The main experiment item,yes,0,0,C:/Users/rrics/Documents/!!ResearchBMECOGSCI/gnet,0,0,0,prototype5.png,no,mono,no,18,no,black,no,no,768,1183,3.5.6,legacy,xpyriment,osweb,1.3.13,0,space,space,space,,26929,22252,26929,,2,legacy,824,1536,24,864,24,-1,-1,1536,1646585899616,1024,2,48000,-16,experiment,prototype1.png,1,odd,Win32,265,134359,131344,264,265,265785,267301,260782,135878,260782,265,,,,,,visual_patterns,0,0,0,yes,1366
undefined,undefined,undefined,undefined,white,no,Mozilla,Netscape,"5.0 (Windows NT 10.0; Win64; x64) AppleWebKit/537.36 (KHTML, like Gecko) Chrome/98.0.4758.102 Safari/537.36 OPR/84.0.4316.21",xpyriment,legacy,legacy,0,uniform,0,0,0,0,24,24,24,0,0,16,16,16,16,16,0,16,0,,,,,,0,,06-02-22,06-02-22,17:57:57,Sun Mar 06 2022 17:57:57 GMT+0100 (közép-európai téli idő),The main experiment item,yes,0,0,C:/Users/rrics/Documents/!!ResearchBMECOGSCI/gnet,0,0,0,prototype5.png,no,mono,no,18,no,black,no,no,768,1183,3.5.6,legacy,xpyriment,osweb,1.3.13,0,space,space,space,,26929,22252,26929,,2,legacy,824,1536,24,864,24,-1,-1,1536,1646585899616,1024,2,48000,-16,experiment,p2sarr2.png,1,odd,Win32,265,134359,131344,264,265,272321,273832,267319,135878,267319,265,,,,,,visual_patterns,0,0,0,yes,1366
undefined,undefined,undefined,undefined,white,no,Mozilla,Netscape,"5.0 (Windows NT 10.0; Win64; x64) AppleWebKit/537.36 (KHTML, like Gecko) Chrome/98.0.4758.102 Safari/537.36 OPR/84.0.4316.21",xpyriment,legacy,legacy,0,uniform,0,0,0,0,24,24,24,0,0,17,17,17,17,17,0,17,0,,,,,,0,,06-02-22,06-02-22,17:57:57,Sun Mar 06 2022 17:57:57 GMT+0100 (közép-európai téli idő),The main experiment item,yes,0,0,C:/Users/rrics/Documents/!!ResearchBMECOGSCI/gnet,0,0,0,prototype5.png,no,mono,no,18,no,black,no,no,768,1183,3.5.6,legacy,xpyriment,osweb,1.3.13,0,space,space,space,,26929,22252,26929,,2,legacy,824,1536,24,864,24,-1,-1,1536,1646585899616,1024,2,48000,-16,experiment,p3sarrsha2.png,1,odd,Win32,265,134359,131344,264,265,278849,280365,273852,135878,273852,265,,,,,,visual_patterns,0,0,0,yes,1366
undefined,undefined,undefined,undefined,white,no,Mozilla,Netscape,"5.0 (Windows NT 10.0; Win64; x64) AppleWebKit/537.36 (KHTML, like Gecko) Chrome/98.0.4758.102 Safari/537.36 OPR/84.0.4316.21",xpyriment,legacy,legacy,0,uniform,0,0,0,0,24,24,24,0,0,18,18,18,18,18,0,18,0,,,,,,0,,06-02-22,06-02-22,17:57:57,Sun Mar 06 2022 17:57:57 GMT+0100 (közép-európai téli idő),The main experiment item,yes,0,0,C:/Users/rrics/Documents/!!ResearchBMECOGSCI/gnet,0,0,0,prototype5.png,no,mono,no,18,no,black,no,no,768,1183,3.5.6,legacy,xpyriment,osweb,1.3.13,0,space,space,space,,26929,22252,26929,,2,legacy,824,1536,24,864,24,-1,-1,1536,1646585899616,1024,2,48000,-16,experiment,prototype4.png,1,odd,Win32,265,134359,131344,264,265,285378,286882,280378,135878,280377,265,,,,,,visual_patterns,0,0,0,yes,1366
undefined,undefined,undefined,undefined,white,no,Mozilla,Netscape,"5.0 (Windows NT 10.0; Win64; x64) AppleWebKit/537.36 (KHTML, like Gecko) Chrome/98.0.4758.102 Safari/537.36 OPR/84.0.4316.21",xpyriment,legacy,legacy,0,uniform,0,0,0,0,24,24,24,0,0,19,19,19,19,19,0,19,0,,,,,,0,,06-02-22,06-02-22,17:57:57,Sun Mar 06 2022 17:57:57 GMT+0100 (közép-európai téli idő),The main experiment item,yes,0,0,C:/Users/rrics/Documents/!!ResearchBMECOGSCI/gnet,0,0,0,prototype5.png,no,mono,no,18,no,black,no,no,768,1183,3.5.6,legacy,xpyriment,osweb,1.3.13,0,space,space,space,,26929,22252,26929,,2,legacy,824,1536,24,864,24,-1,-1,1536,1646585899616,1024,2,48000,-16,experiment,p3sarrsha1.png,1,odd,Win32,265,134359,131344,264,265,291899,293416,286900,135878,286900,265,,,,,,visual_patterns,0,0,0,yes,1366
undefined,undefined,undefined,undefined,white,no,Mozilla,Netscape,"5.0 (Windows NT 10.0; Win64; x64) AppleWebKit/537.36 (KHTML, like Gecko) Chrome/98.0.4758.102 Safari/537.36 OPR/84.0.4316.21",xpyriment,legacy,legacy,0,uniform,0,0,0,0,24,24,24,0,0,20,20,20,20,20,0,20,0,,,,,,0,,06-02-22,06-02-22,17:57:57,Sun Mar 06 2022 17:57:57 GMT+0100 (közép-európai téli idő),The main experiment item,yes,0,0,C:/Users/rrics/Documents/!!ResearchBMECOGSCI/gnet,0,0,0,prototype5.png,no,mono,no,18,no,black,no,no,768,1183,3.5.6,legacy,xpyriment,osweb,1.3.13,0,space,space,space,,26929,22252,26929,,2,legacy,824,1536,24,864,24,-1,-1,1536,1646585899616,1024,2,48000,-16,experiment,prototype2.png,1,odd,Win32,265,134359,131344,264,265,298433,299949,293431,135878,293431,265,,,,,,visual_patterns,0,0,0,yes,1366
undefined,undefined,undefined,undefined,white,no,Mozilla,Netscape,"5.0 (Windows NT 10.0; Win64; x64) AppleWebKit/537.36 (KHTML, like Gecko) Chrome/98.0.4758.102 Safari/537.36 OPR/84.0.4316.21",xpyriment,legacy,legacy,0,uniform,0,0,0,0,24,24,24,0,0,21,21,21,21,21,0,21,0,,,,,,0,,06-02-22,06-02-22,17:57:57,Sun Mar 06 2022 17:57:57 GMT+0100 (közép-európai téli idő),The main experiment item,yes,0,0,C:/Users/rrics/Documents/!!ResearchBMECOGSCI/gnet,0,0,0,prototype5.png,no,mono,no,18,no,black,no,no,768,1183,3.5.6,legacy,xpyriment,osweb,1.3.13,0,space,space,space,,26929,22252,26929,,2,legacy,824,1536,24,864,24,-1,-1,1536,1646585899616,1024,2,48000,-16,experiment,p4sarrcol2.png,1,odd,Win32,265,134359,131344,264,265,304963,306466,299964,135878,299964,265,,,,,,visual_patterns,0,0,0,yes,1366
undefined,undefined,undefined,undefined,white,no,Mozilla,Netscape,"5.0 (Windows NT 10.0; Win64; x64) AppleWebKit/537.36 (KHTML, like Gecko) Chrome/98.0.4758.102 Safari/537.36 OPR/84.0.4316.21",xpyriment,legacy,legacy,0,uniform,0,0,0,0,24,24,24,0,0,22,22,22,22,22,0,22,0,,,,,,0,,06-02-22,06-02-22,17:57:57,Sun Mar 06 2022 17:57:57 GMT+0100 (közép-európai téli idő),The main experiment item,yes,0,0,C:/Users/rrics/Documents/!!ResearchBMECOGSCI/gnet,0,0,0,prototype5.png,no,mono,no,18,no,black,no,no,768,1183,3.5.6,legacy,xpyriment,osweb,1.3.13,0,space,space,space,,26929,22252,26929,,2,legacy,824,1536,24,864,24,-1,-1,1536,1646585899616,1024,2,48000,-16,experiment,p5sarrshacol1.png,1,odd,Win32,265,134359,131344,264,265,311483,313000,306481,135878,306481,265,,,,,,visual_patterns,0,0,0,yes,1366
undefined,undefined,undefined,undefined,white,no,Mozilla,Netscape,"5.0 (Windows NT 10.0; Win64; x64) AppleWebKit/537.36 (KHTML, like Gecko) Chrome/98.0.4758.102 Safari/537.36 OPR/84.0.4316.21",xpyriment,legacy,legacy,0,uniform,0,0,0,0,24,24,24,0,0,23,23,23,23,23,0,23,0,,,,,,0,,06-02-22,06-02-22,17:57:57,Sun Mar 06 2022 17:57:57 GMT+0100 (közép-európai téli idő),The main experiment item,yes,0,0,C:/Users/rrics/Documents/!!ResearchBMECOGSCI/gnet,0,0,0,prototype5.png,no,mono,no,18,no,black,no,no,768,1183,3.5.6,legacy,xpyriment,osweb,1.3.13,0,space,space,space,,26929,22252,26929,,2,legacy,824,1536,24,864,24,-1,-1,1536,1646585899616,1024,2,48000,-16,experiment,prototype2.png,1,odd,Win32,265,134359,131344,264,265,318018,319534,313014,135878,313014,265,,,,,,visual_patterns,0,0,0,yes,1366
undefined,undefined,undefined,undefined,white,no,Mozilla,Netscape,"5.0 (Windows NT 10.0; Win64; x64) AppleWebKit/537.36 (KHTML, like Gecko) Chrome/98.0.4758.102 Safari/537.36 OPR/84.0.4316.21",xpyriment,legacy,legacy,0,uniform,0,0,0,0,24,24,24,0,0,24,24,24,24,24,0,24,0,,,,,,0,,06-02-22,06-02-22,17:57:57,Sun Mar 06 2022 17:57:57 GMT+0100 (közép-európai téli idő),The main experiment item,yes,0,0,C:/Users/rrics/Documents/!!ResearchBMECOGSCI/gnet,0,0,0,prototype5.png,no,mono,no,18,no,black,no,no,768,1183,3.5.6,legacy,xpyriment,osweb,1.3.13,0,space,space,space,,26929,22252,26929,,2,legacy,824,1536,24,864,24,-1,-1,1536,1646585899616,1024,2,48000,-16,experiment,p4sarrsha2.png,1,odd,Win32,265,134359,131344,264,265,324549,326050,319551,135878,319551,265,,,,,,visual_patterns,0,0,0,yes,1366
undefined,undefined,undefined,undefined,white,no,Mozilla,Netscape,"5.0 (Windows NT 10.0; Win64; x64) AppleWebKit/537.36 (KHTML, like Gecko) Chrome/98.0.4758.102 Safari/537.36 OPR/84.0.4316.21",xpyriment,legacy,legacy,0,uniform,0,0,0,0,24,24,24,0,0,25,25,25,25,25,0,25,0,,,,,,0,,06-02-22,06-02-22,17:57:57,Sun Mar 06 2022 17:57:57 GMT+0100 (közép-európai téli idő),The main experiment item,yes,0,0,C:/Users/rrics/Documents/!!ResearchBMECOGSCI/gnet,0,0,0,prototype5.png,no,mono,no,18,no,black,no,no,768,1183,3.5.6,legacy,xpyriment,osweb,1.3.13,0,space,space,space,,26929,22252,26929,,2,legacy,824,1536,24,864,24,-1,-1,1536,1646585899616,1024,2,48000,-16,experiment,p9sarr1.png,1,odd,Win32,265,134359,131344,264,265,331072,332584,326070,135878,326070,265,,,,,,visual_patterns,0,0,0,yes,1366
undefined,undefined,undefined,undefined,white,no,Mozilla,Netscape,"5.0 (Windows NT 10.0; Win64; x64) AppleWebKit/537.36 (KHTML, like Gecko) Chrome/98.0.4758.102 Safari/537.36 OPR/84.0.4316.21",xpyriment,legacy,legacy,0,uniform,0,0,0,0,24,24,24,0,0,26,26,26,26,26,0,26,0,,,,,,0,,06-02-22,06-02-22,17:57:57,Sun Mar 06 2022 17:57:57 GMT+0100 (közép-európai téli idő),The main experiment item,yes,0,0,C:/Users/rrics/Documents/!!ResearchBMECOGSCI/gnet,0,0,0,prototype5.png,no,mono,no,18,no,black,no,no,768,1183,3.5.6,legacy,xpyriment,osweb,1.3.13,0,space,space,space,,26929,22252,26929,,2,legacy,824,1536,24,864,24,-1,-1,1536,1646585899616,1024,2,48000,-16,experiment,prototype1.png,1,odd,Win32,265,134359,131344,264,265,337602,339117,332599,135878,332599,265,,,,,,visual_patterns,0,0,0,yes,1366
undefined,undefined,undefined,undefined,white,no,Mozilla,Netscape,"5.0 (Windows NT 10.0; Win64; x64) AppleWebKit/537.36 (KHTML, like Gecko) Chrome/98.0.4758.102 Safari/537.36 OPR/84.0.4316.21",xpyriment,legacy,legacy,0,uniform,0,0,0,0,24,24,24,0,0,27,27,27,27,27,0,27,0,,,,,,0,,06-02-22,06-02-22,17:57:57,Sun Mar 06 2022 17:57:57 GMT+0100 (közép-európai téli idő),The main experiment item,yes,0,0,C:/Users/rrics/Documents/!!ResearchBMECOGSCI/gnet,0,0,0,prototype5.png,no,mono,no,18,no,black,no,no,768,1183,3.5.6,legacy,xpyriment,osweb,1.3.13,0,space,space,space,,26929,22252,26929,,2,legacy,824,1536,24,864,24,-1,-1,1536,1646585899616,1024,2,48000,-16,experiment,p4sarrcol1.png,1,odd,Win32,265,134359,131344,264,265,344135,345654,339133,135878,339133,265,,,,,,visual_patterns,0,0,0,yes,1366
undefined,undefined,undefined,undefined,white,no,Mozilla,Netscape,"5.0 (Windows NT 10.0; Win64; x64) AppleWebKit/537.36 (KHTML, like Gecko) Chrome/98.0.4758.102 Safari/537.36 OPR/84.0.4316.21",xpyriment,legacy,legacy,0,uniform,0,0,0,0,24,24,24,0,0,28,28,28,28,28,0,28,0,,,,,,0,,06-02-22,06-02-22,17:57:57,Sun Mar 06 2022 17:57:57 GMT+0100 (közép-európai téli idő),The main experiment item,yes,0,0,C:/Users/rrics/Documents/!!ResearchBMECOGSCI/gnet,0,0,0,prototype5.png,no,mono,no,18,no,black,no,no,768,1183,3.5.6,legacy,xpyriment,osweb,1.3.13,0,space,space,space,,26929,22252,26929,,2,legacy,824,1536,24,864,24,-1,-1,1536,1646585899616,1024,2,48000,-16,experiment,prototype4.png,1,odd,Win32,265,134359,131344,264,265,350692,352202,345688,135878,345688,265,,,,,,visual_patterns,0,0,0,yes,1366
undefined,undefined,undefined,undefined,white,no,Mozilla,Netscape,"5.0 (Windows NT 10.0; Win64; x64) AppleWebKit/537.36 (KHTML, like Gecko) Chrome/98.0.4758.102 Safari/537.36 OPR/84.0.4316.21",xpyriment,legacy,legacy,0,uniform,0,0,0,0,24,24,24,0,0,29,29,29,29,29,0,29,0,,,,,,0,,06-02-22,06-02-22,17:57:57,Sun Mar 06 2022 17:57:57 GMT+0100 (közép-európai téli idő),The main experiment item,yes,0,0,C:/Users/rrics/Documents/!!ResearchBMECOGSCI/gnet,0,0,0,prototype5.png,no,mono,no,18,no,black,no,no,768,1183,3.5.6,legacy,xpyriment,osweb,1.3.13,0,space,space,space,,26929,22252,26929,,2,legacy,824,1536,24,864,24,-1,-1,1536,1646585899616,1024,2,48000,-16,experiment,prototype5.png,1,odd,Win32,265,134359,131344,264,265,357217,358718,352217,135878,352217,265,,,,,,visual_patterns,0,0,0,yes,1366
undefined,undefined,undefined,undefined,white,no,Mozilla,Netscape,"5.0 (Windows NT 10.0; Win64; x64) AppleWebKit/537.36 (KHTML, like Gecko) Chrome/98.0.4758.102 Safari/537.36 OPR/84.0.4316.21",xpyriment,legacy,legacy,0,uniform,0,0,0,0,24,24,24,0,0,30,30,30,30,30,0,30,0,,,,,,0,,06-02-22,06-02-22,17:57:57,Sun Mar 06 2022 17:57:57 GMT+0100 (közép-európai téli idő),The main experiment item,yes,0,0,C:/Users/rrics/Documents/!!ResearchBMECOGSCI/gnet,0,0,0,prototype5.png,no,mono,no,18,no,black,no,no,768,1183,3.5.6,legacy,xpyriment,osweb,1.3.13,0,space,space,space,,26929,22252,26929,,2,legacy,824,1536,24,864,24,-1,-1,1536,1646585899616,1024,2,48000,-16,experiment,p5sarrcol2.png,1,odd,Win32,265,134359,131344,264,265,363733,365236,358732,135878,358732,265,,,,,,visual_patterns,0,0,0,yes,1366
undefined,undefined,undefined,undefined,white,no,Mozilla,Netscape,"5.0 (Windows NT 10.0; Win64; x64) AppleWebKit/537.36 (KHTML, like Gecko) Chrome/98.0.4758.102 Safari/537.36 OPR/84.0.4316.21",xpyriment,legacy,legacy,0,uniform,0,0,0,0,24,24,24,0,0,31,31,31,31,31,0,31,0,,,,,,0,,06-02-22,06-02-22,17:57:57,Sun Mar 06 2022 17:57:57 GMT+0100 (közép-európai téli idő),The main experiment item,yes,0,0,C:/Users/rrics/Documents/!!ResearchBMECOGSCI/gnet,0,0,0,prototype5.png,no,mono,no,18,no,black,no,no,768,1183,3.5.6,legacy,xpyriment,osweb,1.3.13,0,space,space,space,,26929,22252,26929,,2,legacy,824,1536,24,864,24,-1,-1,1536,1646585899616,1024,2,48000,-16,experiment,p2sarrsha2.png,1,odd,Win32,265,134359,131344,264,265,370257,371769,365258,135878,365258,265,,,,,,visual_patterns,0,0,0,yes,1366
undefined,undefined,undefined,undefined,white,no,Mozilla,Netscape,"5.0 (Windows NT 10.0; Win64; x64) AppleWebKit/537.36 (KHTML, like Gecko) Chrome/98.0.4758.102 Safari/537.36 OPR/84.0.4316.21",xpyriment,legacy,legacy,0,uniform,0,0,0,0,24,24,24,0,0,32,32,32,32,32,0,32,0,,,,,,0,,06-02-22,06-02-22,17:57:57,Sun Mar 06 2022 17:57:57 GMT+0100 (közép-európai téli idő),The main experiment item,yes,0,0,C:/Users/rrics/Documents/!!ResearchBMECOGSCI/gnet,0,0,0,prototype5.png,no,mono,no,18,no,black,no,no,768,1183,3.5.6,legacy,xpyriment,osweb,1.3.13,0,space,space,space,,26929,22252,26929,,2,legacy,824,1536,24,864,24,-1,-1,1536,1646585899616,1024,2,48000,-16,experiment,p5sarr1.png,1,odd,Win32,265,134359,131344,264,265,376783,378286,371782,135878,371782,265,,,,,,visual_patterns,0,0,0,yes,1366
undefined,undefined,undefined,undefined,white,no,Mozilla,Netscape,"5.0 (Windows NT 10.0; Win64; x64) AppleWebKit/537.36 (KHTML, like Gecko) Chrome/98.0.4758.102 Safari/537.36 OPR/84.0.4316.21",xpyriment,legacy,legacy,0,uniform,0,0,0,0,24,24,24,0,0,33,33,33,33,33,0,33,0,,,,,,0,,06-02-22,06-02-22,17:57:57,Sun Mar 06 2022 17:57:57 GMT+0100 (közép-európai téli idő),The main experiment item,yes,0,0,C:/Users/rrics/Documents/!!ResearchBMECOGSCI/gnet,0,0,0,prototype5.png,no,mono,no,18,no,black,no,no,768,1183,3.5.6,legacy,xpyriment,osweb,1.3.13,0,space,space,space,,26929,22252,26929,,2,legacy,824,1536,24,864,24,-1,-1,1536,1646585899616,1024,2,48000,-16,experiment,p3sarrshacol1.png,1,odd,Win32,265,134359,131344,264,265,383325,384837,378327,135878,378327,265,,,,,,visual_patterns,0,0,0,yes,1366
undefined,undefined,undefined,undefined,white,no,Mozilla,Netscape,"5.0 (Windows NT 10.0; Win64; x64) AppleWebKit/537.36 (KHTML, like Gecko) Chrome/98.0.4758.102 Safari/537.36 OPR/84.0.4316.21",xpyriment,legacy,legacy,0,uniform,0,0,0,0,24,24,24,0,0,34,34,34,34,34,0,34,0,,,,,,0,,06-02-22,06-02-22,17:57:57,Sun Mar 06 2022 17:57:57 GMT+0100 (közép-európai téli idő),The main experiment item,yes,0,0,C:/Users/rrics/Documents/!!ResearchBMECOGSCI/gnet,0,0,0,prototype5.png,no,mono,no,18,no,black,no,no,768,1183,3.5.6,legacy,xpyriment,osweb,1.3.13,0,space,space,space,,26929,22252,26929,,2,legacy,824,1536,24,864,24,-1,-1,1536,1646585899616,1024,2,48000,-16,experiment,prototype1.png,1,odd,Win32,265,134359,131344,264,265,389853,391354,384852,135878,384852,265,,,,,,visual_patterns,0,0,0,yes,1366
undefined,undefined,undefined,undefined,white,no,Mozilla,Netscape,"5.0 (Windows NT 10.0; Win64; x64) AppleWebKit/537.36 (KHTML, like Gecko) Chrome/98.0.4758.102 Safari/537.36 OPR/84.0.4316.21",xpyriment,legacy,legacy,0,uniform,0,0,0,0,24,24,24,0,0,35,35,35,35,35,0,35,0,,,,,,0,,06-02-22,06-02-22,17:57:57,Sun Mar 06 2022 17:57:57 GMT+0100 (közép-európai téli idő),The main experiment item,yes,0,0,C:/Users/rrics/Documents/!!ResearchBMECOGSCI/gnet,0,0,0,prototype5.png,no,mono,no,18,no,black,no,no,768,1183,3.5.6,legacy,xpyriment,osweb,1.3.13,0,space,space,space,,26929,22252,26929,,2,legacy,824,1536,24,864,24,-1,-1,1536,1646585899616,1024,2,48000,-16,experiment,p4sarrshacol1.png,1,odd,Win32,265,134359,131344,264,265,396370,397887,391368,135878,391368,265,,,,,,visual_patterns,0,0,0,yes,1366
undefined,undefined,undefined,undefined,white,no,Mozilla,Netscape,"5.0 (Windows NT 10.0; Win64; x64) AppleWebKit/537.36 (KHTML, like Gecko) Chrome/98.0.4758.102 Safari/537.36 OPR/84.0.4316.21",xpyriment,legacy,legacy,0,uniform,0,0,0,0,24,24,24,0,0,36,36,36,36,36,0,36,0,,,,,,0,,06-02-22,06-02-22,17:57:57,Sun Mar 06 2022 17:57:57 GMT+0100 (közép-európai téli idő),The main experiment item,yes,0,0,C:/Users/rrics/Documents/!!ResearchBMECOGSCI/gnet,0,0,0,prototype5.png,no,mono,no,18,no,black,no,no,768,1183,3.5.6,legacy,xpyriment,osweb,1.3.13,0,space,space,space,,26929,22252,26929,,2,legacy,824,1536,24,864,24,-1,-1,1536,1646585899616,1024,2,48000,-16,experiment,prototype3.png,1,odd,Win32,265,134359,131344,264,265,402904,404421,397900,135878,397900,265,,,,,,visual_patterns,0,0,0,yes,1366
undefined,undefined,undefined,undefined,white,no,Mozilla,Netscape,"5.0 (Windows NT 10.0; Win64; x64) AppleWebKit/537.36 (KHTML, like Gecko) Chrome/98.0.4758.102 Safari/537.36 OPR/84.0.4316.21",xpyriment,legacy,legacy,0,uniform,0,0,0,0,24,24,24,0,0,37,37,37,37,37,0,37,0,,,,,,0,,06-02-22,06-02-22,17:57:57,Sun Mar 06 2022 17:57:57 GMT+0100 (közép-európai téli idő),The main experiment item,yes,0,0,C:/Users/rrics/Documents/!!ResearchBMECOGSCI/gnet,0,0,0,prototype5.png,no,mono,no,18,no,black,no,no,768,1183,3.5.6,legacy,xpyriment,osweb,1.3.13,0,space,space,space,,26929,22252,26929,,2,legacy,824,1536,24,864,24,-1,-1,1536,1646585899616,1024,2,48000,-16,experiment,prototype3.png,1,odd,Win32,265,134359,131344,264,265,409438,410954,404437,135878,404437,265,,,,,,visual_patterns,0,0,0,yes,1366
undefined,undefined,undefined,undefined,white,no,Mozilla,Netscape,"5.0 (Windows NT 10.0; Win64; x64) AppleWebKit/537.36 (KHTML, like Gecko) Chrome/98.0.4758.102 Safari/537.36 OPR/84.0.4316.21",xpyriment,legacy,legacy,0,uniform,0,0,0,0,24,24,24,0,0,38,38,38,38,38,0,38,0,,,,,,0,,06-02-22,06-02-22,17:57:57,Sun Mar 06 2022 17:57:57 GMT+0100 (közép-európai téli idő),The main experiment item,yes,0,0,C:/Users/rrics/Documents/!!ResearchBMECOGSCI/gnet,0,0,0,prototype5.png,no,mono,no,18,no,black,no,no,768,1183,3.5.6,legacy,xpyriment,osweb,1.3.13,0,space,space,space,,26929,22252,26929,,2,legacy,824,1536,24,864,24,-1,-1,1536,1646585899616,1024,2,48000,-16,experiment,p7sarr1.png,1,odd,Win32,265,134359,131344,264,265,415988,417505,410990,135878,410990,265,,,,,,visual_patterns,0,0,0,yes,1366
undefined,undefined,undefined,undefined,white,no,Mozilla,Netscape,"5.0 (Windows NT 10.0; Win64; x64) AppleWebKit/537.36 (KHTML, like Gecko) Chrome/98.0.4758.102 Safari/537.36 OPR/84.0.4316.21",xpyriment,legacy,legacy,0,uniform,0,0,0,0,24,24,24,0,0,39,39,39,39,39,0,39,0,,,,,,0,,06-02-22,06-02-22,17:57:57,Sun Mar 06 2022 17:57:57 GMT+0100 (közép-európai téli idő),The main experiment item,yes,0,0,C:/Users/rrics/Documents/!!ResearchBMECOGSCI/gnet,0,0,0,prototype5.png,no,mono,no,18,no,black,no,no,768,1183,3.5.6,legacy,xpyriment,osweb,1.3.13,0,space,space,space,,26929,22252,26929,,2,legacy,824,1536,24,864,24,-1,-1,1536,1646585899616,1024,2,48000,-16,experiment,p1sarrsha1.png,1,odd,Win32,265,134359,131344,264,265,422519,424022,417521,135878,417521,265,,,,,,visual_patterns,0,0,0,yes,1366
undefined,undefined,undefined,undefined,white,no,Mozilla,Netscape,"5.0 (Windows NT 10.0; Win64; x64) AppleWebKit/537.36 (KHTML, like Gecko) Chrome/98.0.4758.102 Safari/537.36 OPR/84.0.4316.21",xpyriment,legacy,legacy,0,uniform,0,0,0,0,24,24,24,0,0,40,40,40,40,40,0,40,0,,,,,,0,,06-02-22,06-02-22,17:57:57,Sun Mar 06 2022 17:57:57 GMT+0100 (közép-európai téli idő),The main experiment item,yes,0,0,C:/Users/rrics/Documents/!!ResearchBMECOGSCI/gnet,0,0,0,prototype5.png,no,mono,no,18,no,black,no,no,768,1183,3.5.6,legacy,xpyriment,osweb,1.3.13,0,space,space,space,,26929,22252,26929,,2,legacy,824,1536,24,864,24,-1,-1,1536,1646585899616,1024,2,48000,-16,experiment,prototype5.png,1,odd,Win32,265,134359,131344,264,265,429039,430555,424036,135878,424036,265,,,,,,visual_patterns,0,0,0,yes,1366
undefined,undefined,undefined,undefined,white,no,Mozilla,Netscape,"5.0 (Windows NT 10.0; Win64; x64) AppleWebKit/537.36 (KHTML, like Gecko) Chrome/98.0.4758.102 Safari/537.36 OPR/84.0.4316.21",xpyriment,legacy,legacy,0,uniform,0,0,0,0,24,24,24,0,0,41,41,41,41,41,0,41,0,,,,,,0,,06-02-22,06-02-22,17:57:57,Sun Mar 06 2022 17:57:57 GMT+0100 (közép-európai téli idő),The main experiment item,yes,0,0,C:/Users/rrics/Documents/!!ResearchBMECOGSCI/gnet,0,0,0,prototype5.png,no,mono,no,18,no,black,no,no,768,1183,3.5.6,legacy,xpyriment,osweb,1.3.13,0,space,space,space,,26929,22252,26929,,2,legacy,824,1536,24,864,24,-1,-1,1536,1646585899616,1024,2,48000,-16,experiment,p3sarrshacol2.png,1,odd,Win32,265,134359,131344,264,265,435572,437089,430574,135878,430574,265,,,,,,visual_patterns,0,0,0,yes,1366
undefined,undefined,undefined,undefined,white,no,Mozilla,Netscape,"5.0 (Windows NT 10.0; Win64; x64) AppleWebKit/537.36 (KHTML, like Gecko) Chrome/98.0.4758.102 Safari/537.36 OPR/84.0.4316.21",xpyriment,legacy,legacy,0,uniform,0,0,0,0,24,24,24,0,0,42,42,42,42,42,0,42,0,,,,,,0,,06-02-22,06-02-22,17:57:57,Sun Mar 06 2022 17:57:57 GMT+0100 (közép-európai téli idő),The main experiment item,yes,0,0,C:/Users/rrics/Documents/!!ResearchBMECOGSCI/gnet,0,0,0,prototype5.png,no,mono,no,18,no,black,no,no,768,1183,3.5.6,legacy,xpyriment,osweb,1.3.13,0,space,space,space,,26929,22252,26929,,2,legacy,824,1536,24,864,24,-1,-1,1536,1646585899616,1024,2,48000,-16,experiment,p3sarrcol2.png,1,odd,Win32,265,134359,131344,264,265,442106,443623,437106,135878,437106,265,,,,,,visual_patterns,0,0,0,yes,1366
undefined,undefined,undefined,undefined,white,no,Mozilla,Netscape,"5.0 (Windows NT 10.0; Win64; x64) AppleWebKit/537.36 (KHTML, like Gecko) Chrome/98.0.4758.102 Safari/537.36 OPR/84.0.4316.21",xpyriment,legacy,legacy,0,uniform,0,0,0,0,24,24,24,0,0,43,43,43,43,43,0,43,0,,,,,,0,,06-02-22,06-02-22,17:57:57,Sun Mar 06 2022 17:57:57 GMT+0100 (közép-európai téli idő),The main experiment item,yes,0,0,C:/Users/rrics/Documents/!!ResearchBMECOGSCI/gnet,0,0,0,prototype5.png,no,mono,no,18,no,black,no,no,768,1183,3.5.6,legacy,xpyriment,osweb,1.3.13,0,space,space,space,,26929,22252,26929,,2,legacy,824,1536,24,864,24,-1,-1,1536,1646585899616,1024,2,48000,-16,experiment,p3sarr2.png,1,odd,Win32,265,134359,131344,264,265,448639,450140,443643,135878,443643,265,,,,,,visual_patterns,0,0,0,yes,1366
undefined,undefined,undefined,undefined,white,no,Mozilla,Netscape,"5.0 (Windows NT 10.0; Win64; x64) AppleWebKit/537.36 (KHTML, like Gecko) Chrome/98.0.4758.102 Safari/537.36 OPR/84.0.4316.21",xpyriment,legacy,legacy,0,uniform,0,0,0,0,24,24,24,0,0,44,44,44,44,44,0,44,0,,,,,,0,,06-02-22,06-02-22,17:57:57,Sun Mar 06 2022 17:57:57 GMT+0100 (közép-európai téli idő),The main experiment item,yes,0,0,C:/Users/rrics/Documents/!!ResearchBMECOGSCI/gnet,0,0,0,prototype5.png,no,mono,no,18,no,black,no,no,768,1183,3.5.6,legacy,xpyriment,osweb,1.3.13,0,space,space,space,,26929,22252,26929,,2,legacy,824,1536,24,864,24,-1,-1,1536,1646585899616,1024,2,48000,-16,experiment,p2sarrsha1.png,1,odd,Win32,265,134359,131344,264,265,455154,456656,450157,135878,450157,265,,,,,,visual_patterns,0,0,0,yes,1366
undefined,undefined,undefined,undefined,white,no,Mozilla,Netscape,"5.0 (Windows NT 10.0; Win64; x64) AppleWebKit/537.36 (KHTML, like Gecko) Chrome/98.0.4758.102 Safari/537.36 OPR/84.0.4316.21",xpyriment,legacy,legacy,0,uniform,0,0,0,0,24,24,24,0,0,45,45,45,45,45,0,45,0,,,,,,0,,06-02-22,06-02-22,17:57:57,Sun Mar 06 2022 17:57:57 GMT+0100 (közép-európai téli idő),The main experiment item,yes,0,0,C:/Users/rrics/Documents/!!ResearchBMECOGSCI/gnet,0,0,0,prototype5.png,no,mono,no,18,no,black,no,no,768,1183,3.5.6,legacy,xpyriment,osweb,1.3.13,0,space,space,space,,26929,22252,26929,,2,legacy,824,1536,24,864,24,-1,-1,1536,1646585899616,1024,2,48000,-16,experiment,p4sarrsha1.png,1,odd,Win32,265,134359,131344,264,265,461673,463174,456675,135878,456675,265,,,,,,visual_patterns,0,0,0,yes,1366
undefined,undefined,undefined,undefined,white,no,Mozilla,Netscape,"5.0 (Windows NT 10.0; Win64; x64) AppleWebKit/537.36 (KHTML, like Gecko) Chrome/98.0.4758.102 Safari/537.36 OPR/84.0.4316.21",xpyriment,legacy,legacy,0,uniform,0,0,0,0,24,24,24,0,0,46,46,46,46,46,0,46,0,,,,,,0,,06-02-22,06-02-22,17:57:57,Sun Mar 06 2022 17:57:57 GMT+0100 (közép-európai téli idő),The main experiment item,yes,0,0,C:/Users/rrics/Documents/!!ResearchBMECOGSCI/gnet,0,0,0,prototype5.png,no,mono,no,18,no,black,no,no,768,1183,3.5.6,legacy,xpyriment,osweb,1.3.13,0,space,space,space,,26929,22252,26929,,2,legacy,824,1536,24,864,24,-1,-1,1536,1646585899616,1024,2,48000,-16,experiment,p1sarrcol1.png,1,odd,Win32,265,134359,131344,264,265,468190,469707,463187,135878,463187,265,,,,,,visual_patterns,0,0,0,yes,1366
undefined,undefined,undefined,undefined,white,no,Mozilla,Netscape,"5.0 (Windows NT 10.0; Win64; x64) AppleWebKit/537.36 (KHTML, like Gecko) Chrome/98.0.4758.102 Safari/537.36 OPR/84.0.4316.21",xpyriment,legacy,legacy,0,uniform,0,0,0,0,24,24,24,0,0,47,47,47,47,47,0,47,0,,,,,,0,,06-02-22,06-02-22,17:57:57,Sun Mar 06 2022 17:57:57 GMT+0100 (közép-európai téli idő),The main experiment item,yes,0,0,C:/Users/rrics/Documents/!!ResearchBMECOGSCI/gnet,0,0,0,prototype5.png,no,mono,no,18,no,black,no,no,768,1183,3.5.6,legacy,xpyriment,osweb,1.3.13,0,space,space,space,,26929,22252,26929,,2,legacy,824,1536,24,864,24,-1,-1,1536,1646585899616,1024,2,48000,-16,experiment,p1sarrsha2.png,1,odd,Win32,265,134359,131344,264,265,474721,476224,469723,135878,469723,265,,,,,,visual_patterns,0,0,0,yes,1366
undefined,undefined,undefined,undefined,white,no,Mozilla,Netscape,"5.0 (Windows NT 10.0; Win64; x64) AppleWebKit/537.36 (KHTML, like Gecko) Chrome/98.0.4758.102 Safari/537.36 OPR/84.0.4316.21",xpyriment,legacy,legacy,0,uniform,0,0,0,0,24,24,24,0,0,48,48,48,48,48,0,48,0,,,,,,0,,06-02-22,06-02-22,17:57:57,Sun Mar 06 2022 17:57:57 GMT+0100 (közép-európai téli idő),The main experiment item,yes,0,0,C:/Users/rrics/Documents/!!ResearchBMECOGSCI/gnet,0,0,0,prototype5.png,no,mono,no,18,no,black,no,no,768,1183,3.5.6,legacy,xpyriment,osweb,1.3.13,0,space,space,space,,26929,22252,26929,,2,legacy,824,1536,24,864,24,-1,-1,1536,1646585899616,1024,2,48000,-16,experiment,p7sarr2.png,1,odd,Win32,265,134359,131344,264,265,481261,482774,476264,135878,476263,265,,,,,,visual_patterns,0,0,0,yes,1366
undefined,undefined,undefined,undefined,white,no,Mozilla,Netscape,"5.0 (Windows NT 10.0; Win64; x64) AppleWebKit/537.36 (KHTML, like Gecko) Chrome/98.0.4758.102 Safari/537.36 OPR/84.0.4316.21",xpyriment,legacy,legacy,0,uniform,0,0,0,0,24,24,24,0,0,49,49,49,49,49,0,49,0,,,,,,0,,06-02-22,06-02-22,17:57:57,Sun Mar 06 2022 17:57:57 GMT+0100 (közép-európai téli idő),The main experiment item,yes,0,0,C:/Users/rrics/Documents/!!ResearchBMECOGSCI/gnet,0,0,0,prototype5.png,no,mono,no,18,no,black,no,no,768,1183,3.5.6,legacy,xpyriment,osweb,1.3.13,0,space,space,space,,26929,22252,26929,,2,legacy,824,1536,24,864,24,-1,-1,1536,1646585899616,1024,2,48000,-16,experiment,p4sarr1.png,1,odd,Win32,265,134359,131344,264,265,487791,489308,482790,135878,482790,265,,,,,,visual_patterns,0,0,0,yes,1366
undefined,undefined,undefined,undefined,white,no,Mozilla,Netscape,"5.0 (Windows NT 10.0; Win64; x64) AppleWebKit/537.36 (KHTML, like Gecko) Chrome/98.0.4758.102 Safari/537.36 OPR/84.0.4316.21",xpyriment,legacy,legacy,0,uniform,0,0,0,0,24,24,24,0,0,50,50,50,50,50,0,50,0,,,,,,0,,06-02-22,06-02-22,17:57:57,Sun Mar 06 2022 17:57:57 GMT+0100 (közép-európai téli idő),The main experiment item,yes,0,0,C:/Users/rrics/Documents/!!ResearchBMECOGSCI/gnet,0,0,0,prototype5.png,no,mono,no,18,no,black,no,no,768,1183,3.5.6,legacy,xpyriment,osweb,1.3.13,0,space,space,space,,26929,22252,26929,,2,legacy,824,1536,24,864,24,-1,-1,1536,1646585899616,1024,2,48000,-16,experiment,p10sarr1.png,1,odd,Win32,265,134359,131344,264,265,494321,495825,489320,135878,489320,265,,,,,,visual_patterns,0,0,0,yes,1366
undefined,undefined,undefined,undefined,white,no,Mozilla,Netscape,"5.0 (Windows NT 10.0; Win64; x64) AppleWebKit/537.36 (KHTML, like Gecko) Chrome/98.0.4758.102 Safari/537.36 OPR/84.0.4316.21",xpyriment,legacy,legacy,0,uniform,0,0,0,0,24,24,24,0,0,51,51,51,51,51,0,51,0,,,,,,0,,06-02-22,06-02-22,17:57:57,Sun Mar 06 2022 17:57:57 GMT+0100 (közép-európai téli idő),The main experiment item,yes,0,0,C:/Users/rrics/Documents/!!ResearchBMECOGSCI/gnet,0,0,0,prototype5.png,no,mono,no,18,no,black,no,no,768,1183,3.5.6,legacy,xpyriment,osweb,1.3.13,0,space,space,space,,26929,22252,26929,,2,legacy,824,1536,24,864,24,-1,-1,1536,1646585899616,1024,2,48000,-16,experiment,prototype3.png,1,odd,Win32,265,134359,131344,264,265,500842,502362,495839,135878,495839,265,,,,,,visual_patterns,0,0,0,yes,1366
undefined,undefined,undefined,undefined,white,no,Mozilla,Netscape,"5.0 (Windows NT 10.0; Win64; x64) AppleWebKit/537.36 (KHTML, like Gecko) Chrome/98.0.4758.102 Safari/537.36 OPR/84.0.4316.21",xpyriment,legacy,legacy,0,uniform,0,0,0,0,24,24,24,0,0,52,52,52,52,52,0,52,0,,,,,,0,,06-02-22,06-02-22,17:57:57,Sun Mar 06 2022 17:57:57 GMT+0100 (közép-európai téli idő),The main experiment item,yes,0,0,C:/Users/rrics/Documents/!!ResearchBMECOGSCI/gnet,0,0,0,prototype5.png,no,mono,no,18,no,black,no,no,768,1183,3.5.6,legacy,xpyriment,osweb,1.3.13,0,space,space,space,,26929,22252,26929,,2,legacy,824,1536,24,864,24,-1,-1,1536,1646585899616,1024,2,48000,-16,experiment,p1sarr1.png,1,odd,Win32,265,134359,131344,264,265,507381,508892,502383,135878,502383,265,,,,,,visual_patterns,0,0,0,yes,1366
undefined,undefined,undefined,undefined,white,no,Mozilla,Netscape,"5.0 (Windows NT 10.0; Win64; x64) AppleWebKit/537.36 (KHTML, like Gecko) Chrome/98.0.4758.102 Safari/537.36 OPR/84.0.4316.21",xpyriment,legacy,legacy,0,uniform,0,0,0,0,24,24,24,0,0,53,53,53,53,53,0,53,0,,,,,,0,,06-02-22,06-02-22,17:57:57,Sun Mar 06 2022 17:57:57 GMT+0100 (közép-európai téli idő),The main experiment item,yes,0,0,C:/Users/rrics/Documents/!!ResearchBMECOGSCI/gnet,0,0,0,prototype5.png,no,mono,no,18,no,black,no,no,768,1183,3.5.6,legacy,xpyriment,osweb,1.3.13,0,space,space,space,,26929,22252,26929,,2,legacy,824,1536,24,864,24,-1,-1,1536,1646585899616,1024,2,48000,-16,experiment,p1sarrcol2.png,1,odd,Win32,265,134359,131344,264,265,513917,515426,508913,135878,508913,265,,,,,,visual_patterns,0,0,0,yes,1366
undefined,undefined,undefined,undefined,white,no,Mozilla,Netscape,"5.0 (Windows NT 10.0; Win64; x64) AppleWebKit/537.36 (KHTML, like Gecko) Chrome/98.0.4758.102 Safari/537.36 OPR/84.0.4316.21",xpyriment,legacy,legacy,0,uniform,0,0,0,0,24,24,24,0,0,54,54,54,54,54,0,54,0,,,,,,0,,06-02-22,06-02-22,17:57:57,Sun Mar 06 2022 17:57:57 GMT+0100 (közép-európai téli idő),The main experiment item,yes,0,0,C:/Users/rrics/Documents/!!ResearchBMECOGSCI/gnet,0,0,0,prototype5.png,no,mono,no,18,no,black,no,no,768,1183,3.5.6,legacy,xpyriment,osweb,1.3.13,0,space,space,space,,26929,22252,26929,,2,legacy,824,1536,24,864,24,-1,-1,1536,1646585899616,1024,2,48000,-16,experiment,p2sarrcol2.png,1,odd,Win32,265,134359,131344,264,265,520440,521943,515447,135878,515447,265,,,,,,visual_patterns,0,0,0,yes,1366
undefined,undefined,undefined,undefined,white,no,Mozilla,Netscape,"5.0 (Windows NT 10.0; Win64; x64) AppleWebKit/537.36 (KHTML, like Gecko) Chrome/98.0.4758.102 Safari/537.36 OPR/84.0.4316.21",xpyriment,legacy,legacy,0,uniform,0,0,0,0,24,24,24,0,0,55,55,55,55,55,0,55,0,,,,,,0,,06-02-22,06-02-22,17:57:57,Sun Mar 06 2022 17:57:57 GMT+0100 (közép-európai téli idő),The main experiment item,yes,0,0,C:/Users/rrics/Documents/!!ResearchBMECOGSCI/gnet,0,0,0,prototype5.png,no,mono,no,18,no,black,no,no,768,1183,3.5.6,legacy,xpyriment,osweb,1.3.13,0,space,space,space,,26929,22252,26929,,2,legacy,824,1536,24,864,24,-1,-1,1536,1646585899616,1024,2,48000,-16,experiment,prototype4.png,1,odd,Win32,265,134359,131344,264,265,526956,528461,521957,135878,521957,265,,,,,,visual_patterns,0,0,0,yes,1366
undefined,undefined,undefined,undefined,white,no,Mozilla,Netscape,"5.0 (Windows NT 10.0; Win64; x64) AppleWebKit/537.36 (KHTML, like Gecko) Chrome/98.0.4758.102 Safari/537.36 OPR/84.0.4316.21",xpyriment,legacy,legacy,0,uniform,0,0,0,0,24,24,24,0,0,56,56,56,56,56,0,56,0,,,,,,0,,06-02-22,06-02-22,17:57:57,Sun Mar 06 2022 17:57:57 GMT+0100 (közép-európai téli idő),The main experiment item,yes,0,0,C:/Users/rrics/Documents/!!ResearchBMECOGSCI/gnet,0,0,0,prototype5.png,no,mono,no,18,no,black,no,no,768,1183,3.5.6,legacy,xpyriment,osweb,1.3.13,0,space,space,space,,26929,22252,26929,,2,legacy,824,1536,24,864,24,-1,-1,1536,1646585899616,1024,2,48000,-16,experiment,p2sarrshacol1.png,1,odd,Win32,265,134359,131344,264,265,533475,534977,528475,135878,528475,265,,,,,,visual_patterns,0,0,0,yes,1366
undefined,undefined,undefined,undefined,white,no,Mozilla,Netscape,"5.0 (Windows NT 10.0; Win64; x64) AppleWebKit/537.36 (KHTML, like Gecko) Chrome/98.0.4758.102 Safari/537.36 OPR/84.0.4316.21",xpyriment,legacy,legacy,0,uniform,0,0,0,0,24,24,24,0,0,57,57,57,57,57,0,57,0,,,,,,0,,06-02-22,06-02-22,17:57:57,Sun Mar 06 2022 17:57:57 GMT+0100 (közép-európai téli idő),The main experiment item,yes,0,0,C:/Users/rrics/Documents/!!ResearchBMECOGSCI/gnet,0,0,0,prototype5.png,no,mono,no,18,no,black,no,no,768,1183,3.5.6,legacy,xpyriment,osweb,1.3.13,0,space,space,space,,26929,22252,26929,,2,legacy,824,1536,24,864,24,-1,-1,1536,1646585899616,1024,2,48000,-16,experiment,prototype5.png,1,odd,Win32,265,134359,131344,264,265,539998,541510,534995,135878,534995,265,,,,,,visual_patterns,0,0,0,yes,1366
undefined,undefined,undefined,undefined,white,no,Mozilla,Netscape,"5.0 (Windows NT 10.0; Win64; x64) AppleWebKit/537.36 (KHTML, like Gecko) Chrome/98.0.4758.102 Safari/537.36 OPR/84.0.4316.21",xpyriment,legacy,legacy,0,uniform,0,0,0,0,24,24,24,0,0,58,58,58,58,58,0,58,0,,,,,,0,,06-02-22,06-02-22,17:57:57,Sun Mar 06 2022 17:57:57 GMT+0100 (közép-európai téli idő),The main experiment item,yes,0,0,C:/Users/rrics/Documents/!!ResearchBMECOGSCI/gnet,0,0,0,prototype5.png,no,mono,no,18,no,black,no,no,768,1183,3.5.6,legacy,xpyriment,osweb,1.3.13,0,space,space,space,,26929,22252,26929,,2,legacy,824,1536,24,864,24,-1,-1,1536,1646585899616,1024,2,48000,-16,experiment,prototype2.png,1,odd,Win32,265,134359,131344,264,265,546528,548044,541533,135878,541533,265,,,,,,visual_patterns,0,0,0,yes,1366
undefined,undefined,undefined,undefined,white,no,Mozilla,Netscape,"5.0 (Windows NT 10.0; Win64; x64) AppleWebKit/537.36 (KHTML, like Gecko) Chrome/98.0.4758.102 Safari/537.36 OPR/84.0.4316.21",xpyriment,legacy,legacy,0,uniform,0,0,0,0,24,24,24,0,0,59,59,59,59,59,0,59,0,,,,,,0,,06-02-22,06-02-22,17:57:57,Sun Mar 06 2022 17:57:57 GMT+0100 (közép-európai téli idő),The main experiment item,yes,0,0,C:/Users/rrics/Documents/!!ResearchBMECOGSCI/gnet,0,0,0,prototype5.png,no,mono,no,18,no,black,no,no,768,1183,3.5.6,legacy,xpyriment,osweb,1.3.13,0,space,space,space,,26929,22252,26929,,2,legacy,824,1536,24,864,24,-1,-1,1536,1646585899616,1024,2,48000,-16,experiment,prototype5.png,1,odd,Win32,265,134359,131344,264,265,553061,554577,548058,135878,548058,265,,,,,,visual_patterns,0,0,0,yes,1366
undefined,undefined,undefined,undefined,white,no,Mozilla,Netscape,"5.0 (Windows NT 10.0; Win64; x64) AppleWebKit/537.36 (KHTML, like Gecko) Chrome/98.0.4758.102 Safari/537.36 OPR/84.0.4316.21",xpyriment,legacy,legacy,0,uniform,0,0,0,0,24,24,24,0,0,60,60,60,60,60,0,60,0,,,,,,0,,06-02-22,06-02-22,17:57:57,Sun Mar 06 2022 17:57:57 GMT+0100 (közép-európai téli idő),The main experiment item,yes,0,0,C:/Users/rrics/Documents/!!ResearchBMECOGSCI/gnet,0,0,0,prototype5.png,no,mono,no,18,no,black,no,no,768,1183,3.5.6,legacy,xpyriment,osweb,1.3.13,0,space,space,space,,26929,22252,26929,,2,legacy,824,1536,24,864,24,-1,-1,1536,1646585899616,1024,2,48000,-16,experiment,p1sarrshacol2.png,1,odd,Win32,265,134359,131344,264,265,559592,561094,554595,135878,554595,265,,,,,,visual_patterns,0,0,0,yes,1366
undefined,undefined,undefined,undefined,white,no,Mozilla,Netscape,"5.0 (Windows NT 10.0; Win64; x64) AppleWebKit/537.36 (KHTML, like Gecko) Chrome/98.0.4758.102 Safari/537.36 OPR/84.0.4316.21",xpyriment,legacy,legacy,0,uniform,0,0,0,0,24,24,24,0,0,61,61,61,61,61,0,61,0,,,,,,0,,06-02-22,06-02-22,17:57:57,Sun Mar 06 2022 17:57:57 GMT+0100 (közép-európai téli idő),The main experiment item,yes,0,0,C:/Users/rrics/Documents/!!ResearchBMECOGSCI/gnet,0,0,0,prototype5.png,no,mono,no,18,no,black,no,no,768,1183,3.5.6,legacy,xpyriment,osweb,1.3.13,0,space,space,space,,26929,22252,26929,,2,legacy,824,1536,24,864,24,-1,-1,1536,1646585899616,1024,2,48000,-16,experiment,p2sarrcol1.png,1,odd,Win32,265,134359,131344,264,265,566108,567612,561107,135878,561106,265,,,,,,visual_patterns,0,0,0,yes,1366
undefined,undefined,undefined,undefined,white,no,Mozilla,Netscape,"5.0 (Windows NT 10.0; Win64; x64) AppleWebKit/537.36 (KHTML, like Gecko) Chrome/98.0.4758.102 Safari/537.36 OPR/84.0.4316.21",xpyriment,legacy,legacy,0,uniform,0,0,0,0,24,24,24,0,0,62,62,62,62,62,0,62,0,,,,,,0,,06-02-22,06-02-22,17:57:57,Sun Mar 06 2022 17:57:57 GMT+0100 (közép-európai téli idő),The main experiment item,yes,0,0,C:/Users/rrics/Documents/!!ResearchBMECOGSCI/gnet,0,0,0,prototype5.png,no,mono,no,18,no,black,no,no,768,1183,3.5.6,legacy,xpyriment,osweb,1.3.13,0,space,space,space,,26929,22252,26929,,2,legacy,824,1536,24,864,24,-1,-1,1536,1646585899616,1024,2,48000,-16,experiment,p5sarr2.png,1,odd,Win32,265,134359,131344,264,265,572626,574128,567629,135878,567629,265,,,,,,visual_patterns,0,0,0,yes,1366
undefined,undefined,undefined,undefined,white,no,Mozilla,Netscape,"5.0 (Windows NT 10.0; Win64; x64) AppleWebKit/537.36 (KHTML, like Gecko) Chrome/98.0.4758.102 Safari/537.36 OPR/84.0.4316.21",xpyriment,legacy,legacy,0,uniform,0,0,0,0,24,24,24,0,0,63,63,63,63,63,0,63,0,,,,,,0,,06-02-22,06-02-22,17:57:57,Sun Mar 06 2022 17:57:57 GMT+0100 (közép-európai téli idő),The main experiment item,yes,0,0,C:/Users/rrics/Documents/!!ResearchBMECOGSCI/gnet,0,0,0,prototype5.png,no,mono,no,18,no,black,no,no,768,1183,3.5.6,legacy,xpyriment,osweb,1.3.13,0,space,space,space,,26929,22252,26929,,2,legacy,824,1536,24,864,24,-1,-1,1536,1646585899616,1024,2,48000,-16,experiment,p10sarr2.png,1,odd,Win32,265,134359,131344,264,265,579142,580645,574146,135878,574146,265,,,,,,visual_patterns,0,0,0,yes,1366
undefined,undefined,undefined,undefined,white,no,Mozilla,Netscape,"5.0 (Windows NT 10.0; Win64; x64) AppleWebKit/537.36 (KHTML, like Gecko) Chrome/98.0.4758.102 Safari/537.36 OPR/84.0.4316.21",xpyriment,legacy,legacy,0,uniform,0,0,0,0,24,24,24,0,0,64,64,64,64,64,0,64,0,,,,,,0,,06-02-22,06-02-22,17:57:57,Sun Mar 06 2022 17:57:57 GMT+0100 (közép-európai téli idő),The main experiment item,yes,0,0,C:/Users/rrics/Documents/!!ResearchBMECOGSCI/gnet,0,0,0,prototype5.png,no,mono,no,18,no,black,no,no,768,1183,3.5.6,legacy,xpyriment,osweb,1.3.13,0,space,space,space,,26929,22252,26929,,2,legacy,824,1536,24,864,24,-1,-1,1536,1646585899616,1024,2,48000,-16,experiment,prototype1.png,1,odd,Win32,265,134359,131344,264,265,585659,587163,580656,135878,580656,265,,,,,,visual_patterns,0,0,0,yes,1366
undefined,undefined,undefined,undefined,white,no,Mozilla,Netscape,"5.0 (Windows NT 10.0; Win64; x64) AppleWebKit/537.36 (KHTML, like Gecko) Chrome/98.0.4758.102 Safari/537.36 OPR/84.0.4316.21",xpyriment,legacy,legacy,0,uniform,0,0,0,0,24,24,24,0,0,65,65,65,65,65,0,65,0,,,,,,0,,06-02-22,06-02-22,17:57:57,Sun Mar 06 2022 17:57:57 GMT+0100 (közép-európai téli idő),The main experiment item,yes,0,0,C:/Users/rrics/Documents/!!ResearchBMECOGSCI/gnet,0,0,0,prototype5.png,no,mono,no,18,no,black,no,no,768,1183,3.5.6,legacy,xpyriment,osweb,1.3.13,0,space,space,space,,26929,22252,26929,,2,legacy,824,1536,24,864,24,-1,-1,1536,1646585899616,1024,2,48000,-16,experiment,prototype4.png,1,odd,Win32,265,134359,131344,264,265,592177,593680,587177,135878,587177,265,,,,,,visual_patterns,0,0,0,yes,1366
undefined,undefined,undefined,undefined,white,no,Mozilla,Netscape,"5.0 (Windows NT 10.0; Win64; x64) AppleWebKit/537.36 (KHTML, like Gecko) Chrome/98.0.4758.102 Safari/537.36 OPR/84.0.4316.21",xpyriment,legacy,legacy,0,uniform,0,0,0,0,24,24,24,0,0,66,66,66,66,66,0,66,0,,,,,,0,,06-02-22,06-02-22,17:57:57,Sun Mar 06 2022 17:57:57 GMT+0100 (közép-európai téli idő),The main experiment item,yes,0,0,C:/Users/rrics/Documents/!!ResearchBMECOGSCI/gnet,0,0,0,prototype5.png,no,mono,no,18,no,black,no,no,768,1183,3.5.6,legacy,xpyriment,osweb,1.3.13,0,space,space,space,,26929,22252,26929,,2,legacy,824,1536,24,864,24,-1,-1,1536,1646585899616,1024,2,48000,-16,experiment,p2sarrshacol2.png,1,odd,Win32,265,134359,131344,264,265,598695,600196,593694,135878,593694,265,,,,,,visual_patterns,0,0,0,yes,1366
undefined,undefined,undefined,undefined,white,no,Mozilla,Netscape,"5.0 (Windows NT 10.0; Win64; x64) AppleWebKit/537.36 (KHTML, like Gecko) Chrome/98.0.4758.102 Safari/537.36 OPR/84.0.4316.21",xpyriment,legacy,legacy,0,uniform,0,0,0,0,24,24,24,0,0,67,67,67,67,67,0,67,0,,,,,,0,,06-02-22,06-02-22,17:57:57,Sun Mar 06 2022 17:57:57 GMT+0100 (közép-európai téli idő),The main experiment item,yes,0,0,C:/Users/rrics/Documents/!!ResearchBMECOGSCI/gnet,0,0,0,prototype5.png,no,mono,no,18,no,black,no,no,768,1183,3.5.6,legacy,xpyriment,osweb,1.3.13,0,space,space,space,,26929,22252,26929,,2,legacy,824,1536,24,864,24,-1,-1,1536,1646585899616,1024,2,48000,-16,experiment,p1sarr2.png,1,odd,Win32,265,134359,131344,264,265,605214,606734,600217,135878,600217,265,,,,,,visual_patterns,0,0,0,yes,1366
undefined,undefined,undefined,undefined,white,no,Mozilla,Netscape,"5.0 (Windows NT 10.0; Win64; x64) AppleWebKit/537.36 (KHTML, like Gecko) Chrome/98.0.4758.102 Safari/537.36 OPR/84.0.4316.21",xpyriment,legacy,legacy,0,uniform,0,0,0,0,24,24,24,0,0,68,68,68,68,68,0,68,0,,,,,,0,,06-02-22,06-02-22,17:57:57,Sun Mar 06 2022 17:57:57 GMT+0100 (közép-európai téli idő),The main experiment item,yes,0,0,C:/Users/rrics/Documents/!!ResearchBMECOGSCI/gnet,0,0,0,prototype5.png,no,mono,no,18,no,black,no,no,768,1183,3.5.6,legacy,xpyriment,osweb,1.3.13,0,space,space,space,,26929,22252,26929,,2,legacy,824,1536,24,864,24,-1,-1,1536,1646585899616,1024,2,48000,-16,experiment,p6sarr2.png,1,odd,Win32,265,134359,131344,264,265,611777,613280,606778,135878,606778,265,,,,,,visual_patterns,0,0,0,yes,1366
undefined,undefined,undefined,undefined,white,no,Mozilla,Netscape,"5.0 (Windows NT 10.0; Win64; x64) AppleWebKit/537.36 (KHTML, like Gecko) Chrome/98.0.4758.102 Safari/537.36 OPR/84.0.4316.21",xpyriment,legacy,legacy,0,uniform,0,0,0,0,24,24,24,0,0,69,69,69,69,69,0,69,0,,,,,,0,,06-02-22,06-02-22,17:57:57,Sun Mar 06 2022 17:57:57 GMT+0100 (közép-európai téli idő),The main experiment item,yes,0,0,C:/Users/rrics/Documents/!!ResearchBMECOGSCI/gnet,0,0,0,prototype5.png,no,mono,no,18,no,black,no,no,768,1183,3.5.6,legacy,xpyriment,osweb,1.3.13,0,space,space,space,,26929,22252,26929,,2,legacy,824,1536,24,864,24,-1,-1,1536,1646585899616,1024,2,48000,-16,experiment,prototype2.png,1,odd,Win32,265,134359,131344,264,265,618295,619797,613294,135878,613294,265,,,,,,visual_patterns,0,0,0,yes,1366
undefined,undefined,undefined,undefined,white,no,Mozilla,Netscape,"5.0 (Windows NT 10.0; Win64; x64) AppleWebKit/537.36 (KHTML, like Gecko) Chrome/98.0.4758.102 Safari/537.36 OPR/84.0.4316.21",xpyriment,legacy,legacy,0,uniform,0,0,0,0,24,24,24,0,0,70,70,70,70,70,0,70,0,,,,,,0,,06-02-22,06-02-22,17:57:57,Sun Mar 06 2022 17:57:57 GMT+0100 (közép-európai téli idő),The main experiment item,yes,0,0,C:/Users/rrics/Documents/!!ResearchBMECOGSCI/gnet,0,0,0,prototype5.png,no,mono,no,18,no,black,no,no,768,1183,3.5.6,legacy,xpyriment,osweb,1.3.13,0,space,space,space,,26929,22252,26929,,2,legacy,824,1536,24,864,24,-1,-1,1536,1646585899616,1024,2,48000,-16,experiment,p1sarrshacol1.png,1,odd,Win32,265,134359,131344,264,265,624813,626314,619812,135878,619812,265,,,,,,visual_patterns,0,0,0,yes,1366
undefined,undefined,undefined,undefined,white,no,Mozilla,Netscape,"5.0 (Windows NT 10.0; Win64; x64) AppleWebKit/537.36 (KHTML, like Gecko) Chrome/98.0.4758.102 Safari/537.36 OPR/84.0.4316.21",xpyriment,legacy,legacy,0,uniform,0,0,0,0,24,24,24,0,0,71,71,71,71,71,0,71,0,,,,,,0,,06-02-22,06-02-22,17:57:57,Sun Mar 06 2022 17:57:57 GMT+0100 (közép-európai téli idő),The main experiment item,yes,0,0,C:/Users/rrics/Documents/!!ResearchBMECOGSCI/gnet,0,0,0,prototype5.png,no,mono,no,18,no,black,no,no,768,1183,3.5.6,legacy,xpyriment,osweb,1.3.13,0,space,space,space,,26929,22252,26929,,2,legacy,824,1536,24,864,24,-1,-1,1536,1646585899616,1024,2,48000,-16,experiment,prototype1.png,1,odd,Win32,265,134359,131344,264,265,631335,632848,626332,135878,626332,265,,,,,,visual_patterns,0,0,0,yes,1366
undefined,undefined,undefined,undefined,white,no,Mozilla,Netscape,"5.0 (Windows NT 10.0; Win64; x64) AppleWebKit/537.36 (KHTML, like Gecko) Chrome/98.0.4758.102 Safari/537.36 OPR/84.0.4316.21",xpyriment,legacy,legacy,0,uniform,0,0,0,0,24,24,24,0,0,72,72,72,72,72,0,72,0,,,,,,0,,06-02-22,06-02-22,17:57:57,Sun Mar 06 2022 17:57:57 GMT+0100 (közép-európai téli idő),The main experiment item,yes,0,0,C:/Users/rrics/Documents/!!ResearchBMECOGSCI/gnet,0,0,0,prototype5.png,no,mono,no,18,no,black,no,no,768,1183,3.5.6,legacy,xpyriment,osweb,1.3.13,0,space,space,space,,26929,22252,26929,,2,legacy,824,1536,24,864,24,-1,-1,1536,1646585899616,1024,2,48000,-16,experiment,prototype5.png,1,odd,Win32,265,134359,131344,264,265,637865,639368,632860,135878,632860,265,,,,,,visual_patterns,0,0,0,yes,1366
undefined,undefined,undefined,undefined,white,no,Mozilla,Netscape,"5.0 (Windows NT 10.0; Win64; x64) AppleWebKit/537.36 (KHTML, like Gecko) Chrome/98.0.4758.102 Safari/537.36 OPR/84.0.4316.21",xpyriment,legacy,legacy,0,uniform,0,0,0,0,24,24,24,0,0,73,73,73,73,73,0,73,0,,,,,,0,,06-02-22,06-02-22,17:57:57,Sun Mar 06 2022 17:57:57 GMT+0100 (közép-európai téli idő),The main experiment item,yes,0,0,C:/Users/rrics/Documents/!!ResearchBMECOGSCI/gnet,0,0,0,prototype5.png,no,mono,no,18,no,black,no,no,768,1183,3.5.6,legacy,xpyriment,osweb,1.3.13,0,space,space,space,,26929,22252,26929,,2,legacy,824,1536,24,864,24,-1,-1,1536,1646585899616,1024,2,48000,-16,experiment,prototype3.png,1,odd,Win32,265,134359,131344,264,265,644385,645899,639382,135878,639382,265,,,,,,visual_patterns,0,0,0,yes,1366
undefined,undefined,undefined,undefined,white,no,Mozilla,Netscape,"5.0 (Windows NT 10.0; Win64; x64) AppleWebKit/537.36 (KHTML, like Gecko) Chrome/98.0.4758.102 Safari/537.36 OPR/84.0.4316.21",xpyriment,legacy,legacy,0,uniform,0,0,0,0,24,24,24,0,0,74,74,74,74,74,0,74,0,,,,,,0,,06-02-22,06-02-22,17:57:57,Sun Mar 06 2022 17:57:57 GMT+0100 (közép-európai téli idő),The main experiment item,yes,0,0,C:/Users/rrics/Documents/!!ResearchBMECOGSCI/gnet,0,0,0,prototype5.png,no,mono,no,18,no,black,no,no,768,1183,3.5.6,legacy,xpyriment,osweb,1.3.13,0,space,space,space,,26929,22252,26929,,2,legacy,824,1536,24,864,24,-1,-1,1536,1646585899616,1024,2,48000,-16,experiment,prototype2.png,1,odd,Win32,265,134359,131344,264,265,650916,652417,645916,135878,645916,265,,,,,,visual_patterns,0,0,0,yes,1366
undefined,undefined,undefined,undefined,white,no,Mozilla,Netscape,"5.0 (Windows NT 10.0; Win64; x64) AppleWebKit/537.36 (KHTML, like Gecko) Chrome/98.0.4758.102 Safari/537.36 OPR/84.0.4316.21",xpyriment,legacy,legacy,0,uniform,0,0,0,0,24,24,24,0,0,74,74,74,74,74,0,74,0,0,0,0,0,0,0,0,06-02-22,06-02-22,17:57:57,Sun Mar 06 2022 17:57:57 GMT+0100 (közép-európai téli idő),The main experiment item,yes,0,0,C:/Users/rrics/Documents/!!ResearchBMECOGSCI/gnet,0,0,0,prototype5.png,no,mono,no,18,no,black,no,no,768,1183,3.5.6,legacy,xpyriment,osweb,1.3.13,0,space,space,space,space,27659,22252,26929,27659,2,legacy,824,1536,24,864,24,-1,-1,1536,1646585899616,1024,2,48000,-16,experiment,p5sarrsha3.png,1,odd,Win32,265,134359,131344,264,265,650916,652417,645916,135878,645916,265,683116,684617,680122,652424,680122,visual_patterns,0,0,0,yes,1366
undefined,undefined,undefined,undefined,white,no,Mozilla,Netscape,"5.0 (Windows NT 10.0; Win64; x64) AppleWebKit/537.36 (KHTML, like Gecko) Chrome/98.0.4758.102 Safari/537.36 OPR/84.0.4316.21",xpyriment,legacy,legacy,0,uniform,0,0,0,0,24,24,24,0,0,74,74,74,74,74,0,74,0,1,1,1,1,1,0,1,06-02-22,06-02-22,17:57:57,Sun Mar 06 2022 17:57:57 GMT+0100 (közép-európai téli idő),The main experiment item,yes,0,0,C:/Users/rrics/Documents/!!ResearchBMECOGSCI/gnet,0,0,0,prototype5.png,no,mono,no,18,no,black,no,no,768,1183,3.5.6,legacy,xpyriment,osweb,1.3.13,0,space,space,space,space,27659,22252,26929,27659,2,legacy,824,1536,24,864,24,-1,-1,1536,1646585899616,1024,2,48000,-16,experiment,p2sarrshacol1.png,1,odd,Win32,265,134359,131344,264,265,650916,652417,645916,135878,645916,265,687633,689134,684634,652424,684634,visual_patterns,0,0,0,yes,1366
undefined,undefined,undefined,undefined,white,no,Mozilla,Netscape,"5.0 (Windows NT 10.0; Win64; x64) AppleWebKit/537.36 (KHTML, like Gecko) Chrome/98.0.4758.102 Safari/537.36 OPR/84.0.4316.21",xpyriment,legacy,legacy,0,uniform,0,0,0,0,24,24,24,0,0,74,74,74,74,74,0,74,0,2,2,2,2,2,0,2,06-02-22,06-02-22,17:57:57,Sun Mar 06 2022 17:57:57 GMT+0100 (közép-európai téli idő),The main experiment item,yes,0,0,C:/Users/rrics/Documents/!!ResearchBMECOGSCI/gnet,0,0,0,prototype5.png,no,mono,no,18,no,black,no,no,768,1183,3.5.6,legacy,xpyriment,osweb,1.3.13,0,space,space,space,space,27659,22252,26929,27659,2,legacy,824,1536,24,864,24,-1,-1,1536,1646585899616,1024,2,48000,-16,experiment,p4sarr4.png,1,odd,Win32,265,134359,131344,264,265,650916,652417,645916,135878,645916,265,692151,693667,689153,652424,689153,visual_patterns,0,0,0,yes,1366
undefined,undefined,undefined,undefined,white,no,Mozilla,Netscape,"5.0 (Windows NT 10.0; Win64; x64) AppleWebKit/537.36 (KHTML, like Gecko) Chrome/98.0.4758.102 Safari/537.36 OPR/84.0.4316.21",xpyriment,legacy,legacy,0,uniform,0,0,0,0,24,24,24,0,0,74,74,74,74,74,0,74,0,3,3,3,3,3,0,3,06-02-22,06-02-22,17:57:57,Sun Mar 06 2022 17:57:57 GMT+0100 (közép-európai téli idő),The main experiment item,yes,0,0,C:/Users/rrics/Documents/!!ResearchBMECOGSCI/gnet,0,0,0,prototype5.png,no,mono,no,18,no,black,no,no,768,1183,3.5.6,legacy,xpyriment,osweb,1.3.13,0,space,space,space,space,27659,22252,26929,27659,2,legacy,824,1536,24,864,24,-1,-1,1536,1646585899616,1024,2,48000,-16,experiment,p5sarrsha2.png,1,odd,Win32,265,134359,131344,264,265,650916,652417,645916,135878,645916,265,696713,698217,693713,652424,693713,visual_patterns,0,0,0,yes,1366
undefined,undefined,undefined,undefined,white,no,Mozilla,Netscape,"5.0 (Windows NT 10.0; Win64; x64) AppleWebKit/537.36 (KHTML, like Gecko) Chrome/98.0.4758.102 Safari/537.36 OPR/84.0.4316.21",xpyriment,legacy,legacy,0,uniform,0,0,0,0,24,24,24,0,0,74,74,74,74,74,0,74,0,4,4,4,4,4,0,4,06-02-22,06-02-22,17:57:57,Sun Mar 06 2022 17:57:57 GMT+0100 (közép-európai téli idő),The main experiment item,yes,0,0,C:/Users/rrics/Documents/!!ResearchBMECOGSCI/gnet,0,0,0,prototype5.png,no,mono,no,18,no,black,no,no,768,1183,3.5.6,legacy,xpyriment,osweb,1.3.13,0,space,space,space,space,27659,22252,26929,27659,2,legacy,824,1536,24,864,24,-1,-1,1536,1646585899616,1024,2,48000,-16,experiment,p7sarr2.png,1,odd,Win32,265,134359,131344,264,265,650916,652417,645916,135878,645916,265,701239,702752,698238,652424,698238,visual_patterns,0,0,0,yes,1366
undefined,undefined,undefined,undefined,white,no,Mozilla,Netscape,"5.0 (Windows NT 10.0; Win64; x64) AppleWebKit/537.36 (KHTML, like Gecko) Chrome/98.0.4758.102 Safari/537.36 OPR/84.0.4316.21",xpyriment,legacy,legacy,0,uniform,0,0,0,0,24,24,24,0,0,74,74,74,74,74,0,74,0,5,5,5,5,5,0,5,06-02-22,06-02-22,17:57:57,Sun Mar 06 2022 17:57:57 GMT+0100 (közép-európai téli idő),The main experiment item,yes,0,0,C:/Users/rrics/Documents/!!ResearchBMECOGSCI/gnet,0,0,0,prototype5.png,no,mono,no,18,no,black,no,no,768,1183,3.5.6,legacy,xpyriment,osweb,1.3.13,0,space,space,space,space,27659,22252,26929,27659,2,legacy,824,1536,24,864,24,-1,-1,1536,1646585899616,1024,2,48000,-16,experiment,p1sarrsha4.png,1,odd,Win32,265,134359,131344,264,265,650916,652417,645916,135878,645916,265,705775,707284,702772,652424,702772,visual_patterns,0,0,0,yes,1366
undefined,undefined,undefined,undefined,white,no,Mozilla,Netscape,"5.0 (Windows NT 10.0; Win64; x64) AppleWebKit/537.36 (KHTML, like Gecko) Chrome/98.0.4758.102 Safari/537.36 OPR/84.0.4316.21",xpyriment,legacy,legacy,0,uniform,0,0,0,0,24,24,24,0,0,74,74,74,74,74,0,74,0,6,6,6,6,6,0,6,06-02-22,06-02-22,17:57:57,Sun Mar 06 2022 17:57:57 GMT+0100 (közép-európai téli idő),The main experiment item,yes,0,0,C:/Users/rrics/Documents/!!ResearchBMECOGSCI/gnet,0,0,0,prototype5.png,no,mono,no,18,no,black,no,no,768,1183,3.5.6,legacy,xpyriment,osweb,1.3.13,0,space,space,space,space,27659,22252,26929,27659,2,legacy,824,1536,24,864,24,-1,-1,1536,1646585899616,1024,2,48000,-16,experiment,p3sarrcol2.png,1,odd,Win32,265,134359,131344,264,265,650916,652417,645916,135878,645916,265,710299,711801,707303,652424,707303,visual_patterns,0,0,0,yes,1366
undefined,undefined,undefined,undefined,white,no,Mozilla,Netscape,"5.0 (Windows NT 10.0; Win64; x64) AppleWebKit/537.36 (KHTML, like Gecko) Chrome/98.0.4758.102 Safari/537.36 OPR/84.0.4316.21",xpyriment,legacy,legacy,0,uniform,0,0,0,0,24,24,24,0,0,74,74,74,74,74,0,74,0,7,7,7,7,7,0,7,06-02-22,06-02-22,17:57:57,Sun Mar 06 2022 17:57:57 GMT+0100 (közép-európai téli idő),The main experiment item,yes,0,0,C:/Users/rrics/Documents/!!ResearchBMECOGSCI/gnet,0,0,0,prototype5.png,no,mono,no,18,no,black,no,no,768,1183,3.5.6,legacy,xpyriment,osweb,1.3.13,0,space,space,space,space,27659,22252,26929,27659,2,legacy,824,1536,24,864,24,-1,-1,1536,1646585899616,1024,2,48000,-16,experiment,p3sarrcol3.png,1,odd,Win32,265,134359,131344,264,265,650916,652417,645916,135878,645916,265,714822,716335,711830,652424,711830,visual_patterns,0,0,0,yes,1366
undefined,undefined,undefined,undefined,white,no,Mozilla,Netscape,"5.0 (Windows NT 10.0; Win64; x64) AppleWebKit/537.36 (KHTML, like Gecko) Chrome/98.0.4758.102 Safari/537.36 OPR/84.0.4316.21",xpyriment,legacy,legacy,0,uniform,0,0,0,0,24,24,24,0,0,74,74,74,74,74,0,74,0,8,8,8,8,8,0,8,06-02-22,06-02-22,17:57:57,Sun Mar 06 2022 17:57:57 GMT+0100 (közép-európai téli idő),The main experiment item,yes,0,0,C:/Users/rrics/Documents/!!ResearchBMECOGSCI/gnet,0,0,0,prototype5.png,no,mono,no,18,no,black,no,no,768,1183,3.5.6,legacy,xpyriment,osweb,1.3.13,0,space,space,space,space,27659,22252,26929,27659,2,legacy,824,1536,24,864,24,-1,-1,1536,1646585899616,1024,2,48000,-16,experiment,p1sarrsha1.png,1,odd,Win32,265,134359,131344,264,265,650916,652417,645916,135878,645916,265,719384,720885,716381,652424,716381,visual_patterns,0,0,0,yes,1366
undefined,undefined,undefined,undefined,white,no,Mozilla,Netscape,"5.0 (Windows NT 10.0; Win64; x64) AppleWebKit/537.36 (KHTML, like Gecko) Chrome/98.0.4758.102 Safari/537.36 OPR/84.0.4316.21",xpyriment,legacy,legacy,0,uniform,0,0,0,0,24,24,24,0,0,74,74,74,74,74,0,74,0,9,9,9,9,9,0,9,06-02-22,06-02-22,17:57:57,Sun Mar 06 2022 17:57:57 GMT+0100 (közép-európai téli idő),The main experiment item,yes,0,0,C:/Users/rrics/Documents/!!ResearchBMECOGSCI/gnet,0,0,0,prototype5.png,no,mono,no,18,no,black,no,no,768,1183,3.5.6,legacy,xpyriment,osweb,1.3.13,0,space,space,space,space,27659,22252,26929,27659,2,legacy,824,1536,24,864,24,-1,-1,1536,1646585899616,1024,2,48000,-16,experiment,p4sarr1.png,1,odd,Win32,265,134359,131344,264,265,650916,652417,645916,135878,645916,265,723908,725418,720904,652424,720904,visual_patterns,0,0,0,yes,1366
undefined,undefined,undefined,undefined,white,no,Mozilla,Netscape,"5.0 (Windows NT 10.0; Win64; x64) AppleWebKit/537.36 (KHTML, like Gecko) Chrome/98.0.4758.102 Safari/537.36 OPR/84.0.4316.21",xpyriment,legacy,legacy,0,uniform,0,0,0,0,24,24,24,0,0,74,74,74,74,74,0,74,0,10,10,10,10,10,0,10,06-02-22,06-02-22,17:57:57,Sun Mar 06 2022 17:57:57 GMT+0100 (közép-európai téli idő),The main experiment item,yes,0,0,C:/Users/rrics/Documents/!!ResearchBMECOGSCI/gnet,0,0,0,prototype5.png,no,mono,no,18,no,black,no,no,768,1183,3.5.6,legacy,xpyriment,osweb,1.3.13,0,space,space,space,space,27659,22252,26929,27659,2,legacy,824,1536,24,864,24,-1,-1,1536,1646585899616,1024,2,48000,-16,experiment,p9sarr2.png,1,odd,Win32,265,134359,131344,264,265,650916,652417,645916,135878,645916,265,728442,729952,725437,652424,725437,visual_patterns,0,0,0,yes,1366
undefined,undefined,undefined,undefined,white,no,Mozilla,Netscape,"5.0 (Windows NT 10.0; Win64; x64) AppleWebKit/537.36 (KHTML, like Gecko) Chrome/98.0.4758.102 Safari/537.36 OPR/84.0.4316.21",xpyriment,legacy,legacy,0,uniform,0,0,0,0,24,24,24,0,0,74,74,74,74,74,0,74,0,11,11,11,11,11,0,11,06-02-22,06-02-22,17:57:57,Sun Mar 06 2022 17:57:57 GMT+0100 (közép-európai téli idő),The main experiment item,yes,0,0,C:/Users/rrics/Documents/!!ResearchBMECOGSCI/gnet,0,0,0,prototype5.png,no,mono,no,18,no,black,no,no,768,1183,3.5.6,legacy,xpyriment,osweb,1.3.13,0,space,space,space,space,27659,22252,26929,27659,2,legacy,824,1536,24,864,24,-1,-1,1536,1646585899616,1024,2,48000,-16,experiment,p1sarr2.png,1,odd,Win32,265,134359,131344,264,265,650916,652417,645916,135878,645916,265,732969,734486,729969,652424,729968,visual_patterns,0,0,0,yes,1366
undefined,undefined,undefined,undefined,white,no,Mozilla,Netscape,"5.0 (Windows NT 10.0; Win64; x64) AppleWebKit/537.36 (KHTML, like Gecko) Chrome/98.0.4758.102 Safari/537.36 OPR/84.0.4316.21",xpyriment,legacy,legacy,0,uniform,0,0,0,0,24,24,24,0,0,74,74,74,74,74,0,74,0,12,12,12,12,12,0,12,06-02-22,06-02-22,17:57:57,Sun Mar 06 2022 17:57:57 GMT+0100 (közép-európai téli idő),The main experiment item,yes,0,0,C:/Users/rrics/Documents/!!ResearchBMECOGSCI/gnet,0,0,0,prototype5.png,no,mono,no,18,no,black,no,no,768,1183,3.5.6,legacy,xpyriment,osweb,1.3.13,0,space,space,space,space,27659,22252,26929,27659,2,legacy,824,1536,24,864,24,-1,-1,1536,1646585899616,1024,2,48000,-16,experiment,p3sarrcol4.png,1,odd,Win32,265,134359,131344,264,265,650916,652417,645916,135878,645916,265,737507,739021,734506,652424,734506,visual_patterns,0,0,0,yes,1366
undefined,undefined,undefined,undefined,white,no,Mozilla,Netscape,"5.0 (Windows NT 10.0; Win64; x64) AppleWebKit/537.36 (KHTML, like Gecko) Chrome/98.0.4758.102 Safari/537.36 OPR/84.0.4316.21",xpyriment,legacy,legacy,0,uniform,0,0,0,0,24,24,24,0,0,74,74,74,74,74,0,74,0,13,13,13,13,13,0,13,06-02-22,06-02-22,17:57:57,Sun Mar 06 2022 17:57:57 GMT+0100 (közép-európai téli idő),The main experiment item,yes,0,0,C:/Users/rrics/Documents/!!ResearchBMECOGSCI/gnet,0,0,0,prototype5.png,no,mono,no,18,no,black,no,no,768,1183,3.5.6,legacy,xpyriment,osweb,1.3.13,0,space,space,space,space,27659,22252,26929,27659,2,legacy,824,1536,24,864,24,-1,-1,1536,1646585899616,1024,2,48000,-16,experiment,p2sarrshacol2.png,1,odd,Win32,265,134359,131344,264,265,650916,652417,645916,135878,645916,265,742068,743569,739065,652424,739065,visual_patterns,0,0,0,yes,1366
undefined,undefined,undefined,undefined,white,no,Mozilla,Netscape,"5.0 (Windows NT 10.0; Win64; x64) AppleWebKit/537.36 (KHTML, like Gecko) Chrome/98.0.4758.102 Safari/537.36 OPR/84.0.4316.21",xpyriment,legacy,legacy,0,uniform,0,0,0,0,24,24,24,0,0,74,74,74,74,74,0,74,0,14,14,14,14,14,0,14,06-02-22,06-02-22,17:57:57,Sun Mar 06 2022 17:57:57 GMT+0100 (közép-európai téli idő),The main experiment item,yes,0,0,C:/Users/rrics/Documents/!!ResearchBMECOGSCI/gnet,0,0,0,prototype5.png,no,mono,no,18,no,black,no,no,768,1183,3.5.6,legacy,xpyriment,osweb,1.3.13,0,space,space,space,space,27659,22252,26929,27659,2,legacy,824,1536,24,864,24,-1,-1,1536,1646585899616,1024,2,48000,-16,experiment,p6sarr1.png,1,odd,Win32,265,134359,131344,264,265,650916,652417,645916,135878,645916,265,746590,748103,743584,652424,743584,visual_patterns,0,0,0,yes,1366
undefined,undefined,undefined,undefined,white,no,Mozilla,Netscape,"5.0 (Windows NT 10.0; Win64; x64) AppleWebKit/537.36 (KHTML, like Gecko) Chrome/98.0.4758.102 Safari/537.36 OPR/84.0.4316.21",xpyriment,legacy,legacy,0,uniform,0,0,0,0,24,24,24,0,0,74,74,74,74,74,0,74,0,15,15,15,15,15,0,15,06-02-22,06-02-22,17:57:57,Sun Mar 06 2022 17:57:57 GMT+0100 (közép-európai téli idő),The main experiment item,yes,0,0,C:/Users/rrics/Documents/!!ResearchBMECOGSCI/gnet,0,0,0,prototype5.png,no,mono,no,18,no,black,no,no,768,1183,3.5.6,legacy,xpyriment,osweb,1.3.13,0,space,space,space,space,27659,22252,26929,27659,2,legacy,824,1536,24,864,24,-1,-1,1536,1646585899616,1024,2,48000,-16,experiment,p4sarrshacol3.png,1,odd,Win32,265,134359,131344,264,265,650916,652417,645916,135878,645916,265,751120,752637,748124,652424,748124,visual_patterns,0,0,0,yes,1366
undefined,undefined,undefined,undefined,white,no,Mozilla,Netscape,"5.0 (Windows NT 10.0; Win64; x64) AppleWebKit/537.36 (KHTML, like Gecko) Chrome/98.0.4758.102 Safari/537.36 OPR/84.0.4316.21",xpyriment,legacy,legacy,0,uniform,0,0,0,0,24,24,24,0,0,74,74,74,74,74,0,74,0,16,16,16,16,16,0,16,06-02-22,06-02-22,17:57:57,Sun Mar 06 2022 17:57:57 GMT+0100 (közép-európai téli idő),The main experiment item,yes,0,0,C:/Users/rrics/Documents/!!ResearchBMECOGSCI/gnet,0,0,0,prototype5.png,no,mono,no,18,no,black,no,no,768,1183,3.5.6,legacy,xpyriment,osweb,1.3.13,0,space,space,space,space,27659,22252,26929,27659,2,legacy,824,1536,24,864,24,-1,-1,1536,1646585899616,1024,2,48000,-16,experiment,p4sarrshacol4.png,1,odd,Win32,265,134359,131344,264,265,650916,652417,645916,135878,645916,265,755654,757170,752657,652424,752657,visual_patterns,0,0,0,yes,1366
undefined,undefined,undefined,undefined,white,no,Mozilla,Netscape,"5.0 (Windows NT 10.0; Win64; x64) AppleWebKit/537.36 (KHTML, like Gecko) Chrome/98.0.4758.102 Safari/537.36 OPR/84.0.4316.21",xpyriment,legacy,legacy,0,uniform,0,0,0,0,24,24,24,0,0,74,74,74,74,74,0,74,0,17,17,17,17,17,0,17,06-02-22,06-02-22,17:57:57,Sun Mar 06 2022 17:57:57 GMT+0100 (közép-európai téli idő),The main experiment item,yes,0,0,C:/Users/rrics/Documents/!!ResearchBMECOGSCI/gnet,0,0,0,prototype5.png,no,mono,no,18,no,black,no,no,768,1183,3.5.6,legacy,xpyriment,osweb,1.3.13,0,space,space,space,space,27659,22252,26929,27659,2,legacy,824,1536,24,864,24,-1,-1,1536,1646585899616,1024,2,48000,-16,experiment,p2sarrcol1.png,1,odd,Win32,265,134359,131344,264,265,650916,652417,645916,135878,645916,265,760188,761703,757186,652424,757186,visual_patterns,0,0,0,yes,1366
undefined,undefined,undefined,undefined,white,no,Mozilla,Netscape,"5.0 (Windows NT 10.0; Win64; x64) AppleWebKit/537.36 (KHTML, like Gecko) Chrome/98.0.4758.102 Safari/537.36 OPR/84.0.4316.21",xpyriment,legacy,legacy,0,uniform,0,0,0,0,24,24,24,0,0,74,74,74,74,74,0,74,0,18,18,18,18,18,0,18,06-02-22,06-02-22,17:57:57,Sun Mar 06 2022 17:57:57 GMT+0100 (közép-európai téli idő),The main experiment item,yes,0,0,C:/Users/rrics/Documents/!!ResearchBMECOGSCI/gnet,0,0,0,prototype5.png,no,mono,no,18,no,black,no,no,768,1183,3.5.6,legacy,xpyriment,osweb,1.3.13,0,space,space,space,space,27659,22252,26929,27659,2,legacy,824,1536,24,864,24,-1,-1,1536,1646585899616,1024,2,48000,-16,experiment,p1sarr4.png,1,odd,Win32,265,134359,131344,264,265,650916,652417,645916,135878,645916,265,764753,766254,761751,652424,761751,visual_patterns,0,0,0,yes,1366
undefined,undefined,undefined,undefined,white,no,Mozilla,Netscape,"5.0 (Windows NT 10.0; Win64; x64) AppleWebKit/537.36 (KHTML, like Gecko) Chrome/98.0.4758.102 Safari/537.36 OPR/84.0.4316.21",xpyriment,legacy,legacy,0,uniform,0,0,0,0,24,24,24,0,0,74,74,74,74,74,0,74,0,19,19,19,19,19,0,19,06-02-22,06-02-22,17:57:57,Sun Mar 06 2022 17:57:57 GMT+0100 (közép-európai téli idő),The main experiment item,yes,0,0,C:/Users/rrics/Documents/!!ResearchBMECOGSCI/gnet,0,0,0,prototype5.png,no,mono,no,18,no,black,no,no,768,1183,3.5.6,legacy,xpyriment,osweb,1.3.13,0,space,space,space,space,27659,22252,26929,27659,2,legacy,824,1536,24,864,24,-1,-1,1536,1646585899616,1024,2,48000,-16,experiment,p10sarr1.png,1,odd,Win32,265,134359,131344,264,265,650916,652417,645916,135878,645916,265,769277,770788,766274,652424,766274,visual_patterns,0,0,0,yes,1366
undefined,undefined,undefined,undefined,white,no,Mozilla,Netscape,"5.0 (Windows NT 10.0; Win64; x64) AppleWebKit/537.36 (KHTML, like Gecko) Chrome/98.0.4758.102 Safari/537.36 OPR/84.0.4316.21",xpyriment,legacy,legacy,0,uniform,0,0,0,0,24,24,24,0,0,74,74,74,74,74,0,74,0,20,20,20,20,20,0,20,06-02-22,06-02-22,17:57:57,Sun Mar 06 2022 17:57:57 GMT+0100 (közép-európai téli idő),The main experiment item,yes,0,0,C:/Users/rrics/Documents/!!ResearchBMECOGSCI/gnet,0,0,0,prototype5.png,no,mono,no,18,no,black,no,no,768,1183,3.5.6,legacy,xpyriment,osweb,1.3.13,0,space,space,space,space,27659,22252,26929,27659,2,legacy,824,1536,24,864,24,-1,-1,1536,1646585899616,1024,2,48000,-16,experiment,p8sarr3.png,1,odd,Win32,265,134359,131344,264,265,650916,652417,645916,135878,645916,265,773804,775321,770809,652424,770809,visual_patterns,0,0,0,yes,1366
undefined,undefined,undefined,undefined,white,no,Mozilla,Netscape,"5.0 (Windows NT 10.0; Win64; x64) AppleWebKit/537.36 (KHTML, like Gecko) Chrome/98.0.4758.102 Safari/537.36 OPR/84.0.4316.21",xpyriment,legacy,legacy,0,uniform,0,0,0,0,24,24,24,0,0,74,74,74,74,74,0,74,0,21,21,21,21,21,0,21,06-02-22,06-02-22,17:57:57,Sun Mar 06 2022 17:57:57 GMT+0100 (közép-európai téli idő),The main experiment item,yes,0,0,C:/Users/rrics/Documents/!!ResearchBMECOGSCI/gnet,0,0,0,prototype5.png,no,mono,no,18,no,black,no,no,768,1183,3.5.6,legacy,xpyriment,osweb,1.3.13,0,space,space,space,space,27659,22252,26929,27659,2,legacy,824,1536,24,864,24,-1,-1,1536,1646585899616,1024,2,48000,-16,experiment,p9sarr4.png,1,odd,Win32,265,134359,131344,264,265,650916,652417,645916,135878,645916,265,778338,779855,775339,652424,775339,visual_patterns,0,0,0,yes,1366
undefined,undefined,undefined,undefined,white,no,Mozilla,Netscape,"5.0 (Windows NT 10.0; Win64; x64) AppleWebKit/537.36 (KHTML, like Gecko) Chrome/98.0.4758.102 Safari/537.36 OPR/84.0.4316.21",xpyriment,legacy,legacy,0,uniform,0,0,0,0,24,24,24,0,0,74,74,74,74,74,0,74,0,22,22,22,22,22,0,22,06-02-22,06-02-22,17:57:57,Sun Mar 06 2022 17:57:57 GMT+0100 (közép-európai téli idő),The main experiment item,yes,0,0,C:/Users/rrics/Documents/!!ResearchBMECOGSCI/gnet,0,0,0,prototype5.png,no,mono,no,18,no,black,no,no,768,1183,3.5.6,legacy,xpyriment,osweb,1.3.13,0,space,space,space,space,27659,22252,26929,27659,2,legacy,824,1536,24,864,24,-1,-1,1536,1646585899616,1024,2,48000,-16,experiment,p5sarrcol2.png,1,odd,Win32,265,134359,131344,264,265,650916,652417,645916,135878,645916,265,782869,784375,779870,652424,779870,visual_patterns,0,0,0,yes,1366
undefined,undefined,undefined,undefined,white,no,Mozilla,Netscape,"5.0 (Windows NT 10.0; Win64; x64) AppleWebKit/537.36 (KHTML, like Gecko) Chrome/98.0.4758.102 Safari/537.36 OPR/84.0.4316.21",xpyriment,legacy,legacy,0,uniform,0,0,0,0,24,24,24,0,0,74,74,74,74,74,0,74,0,23,23,23,23,23,0,23,06-02-22,06-02-22,17:57:57,Sun Mar 06 2022 17:57:57 GMT+0100 (közép-európai téli idő),The main experiment item,yes,0,0,C:/Users/rrics/Documents/!!ResearchBMECOGSCI/gnet,0,0,0,prototype5.png,no,mono,no,18,no,black,no,no,768,1183,3.5.6,legacy,xpyriment,osweb,1.3.13,0,space,space,space,space,27659,22252,26929,27659,2,legacy,824,1536,24,864,24,-1,-1,1536,1646585899616,1024,2,48000,-16,experiment,p7sarr4.png,1,odd,Win32,265,134359,131344,264,265,650916,652417,645916,135878,645916,265,787414,788922,784413,652424,784413,visual_patterns,0,0,0,yes,1366
undefined,undefined,undefined,undefined,white,no,Mozilla,Netscape,"5.0 (Windows NT 10.0; Win64; x64) AppleWebKit/537.36 (KHTML, like Gecko) Chrome/98.0.4758.102 Safari/537.36 OPR/84.0.4316.21",xpyriment,legacy,legacy,0,uniform,0,0,0,0,24,24,24,0,0,74,74,74,74,74,0,74,0,24,24,24,24,24,0,24,06-02-22,06-02-22,17:57:57,Sun Mar 06 2022 17:57:57 GMT+0100 (közép-európai téli idő),The main experiment item,yes,0,0,C:/Users/rrics/Documents/!!ResearchBMECOGSCI/gnet,0,0,0,prototype5.png,no,mono,no,18,no,black,no,no,768,1183,3.5.6,legacy,xpyriment,osweb,1.3.13,0,space,space,space,space,27659,22252,26929,27659,2,legacy,824,1536,24,864,24,-1,-1,1536,1646585899616,1024,2,48000,-16,experiment,p3sarrsha3.png,1,odd,Win32,265,134359,131344,264,265,650916,652417,645916,135878,645916,265,791937,793442,788940,652424,788940,visual_patterns,0,0,0,yes,1366
undefined,undefined,undefined,undefined,white,no,Mozilla,Netscape,"5.0 (Windows NT 10.0; Win64; x64) AppleWebKit/537.36 (KHTML, like Gecko) Chrome/98.0.4758.102 Safari/537.36 OPR/84.0.4316.21",xpyriment,legacy,legacy,0,uniform,0,0,0,0,24,24,24,0,0,74,74,74,74,74,0,74,0,25,25,25,25,25,0,25,06-02-22,06-02-22,17:57:57,Sun Mar 06 2022 17:57:57 GMT+0100 (közép-európai téli idő),The main experiment item,yes,0,0,C:/Users/rrics/Documents/!!ResearchBMECOGSCI/gnet,0,0,0,prototype5.png,no,mono,no,18,no,black,no,no,768,1183,3.5.6,legacy,xpyriment,osweb,1.3.13,0,space,space,space,space,27659,22252,26929,27659,2,legacy,824,1536,24,864,24,-1,-1,1536,1646585899616,1024,2,48000,-16,experiment,p8sarr4.png,1,odd,Win32,265,134359,131344,264,265,650916,652417,645916,135878,645916,265,796460,797972,793461,652424,793461,visual_patterns,0,0,0,yes,1366
undefined,undefined,undefined,undefined,white,no,Mozilla,Netscape,"5.0 (Windows NT 10.0; Win64; x64) AppleWebKit/537.36 (KHTML, like Gecko) Chrome/98.0.4758.102 Safari/537.36 OPR/84.0.4316.21",xpyriment,legacy,legacy,0,uniform,0,0,0,0,24,24,24,0,0,74,74,74,74,74,0,74,0,26,26,26,26,26,0,26,06-02-22,06-02-22,17:57:57,Sun Mar 06 2022 17:57:57 GMT+0100 (közép-európai téli idő),The main experiment item,yes,0,0,C:/Users/rrics/Documents/!!ResearchBMECOGSCI/gnet,0,0,0,prototype5.png,no,mono,no,18,no,black,no,no,768,1183,3.5.6,legacy,xpyriment,osweb,1.3.13,0,space,space,space,space,27659,22252,26929,27659,2,legacy,824,1536,24,864,24,-1,-1,1536,1646585899616,1024,2,48000,-16,experiment,p2sarrshacol4.png,1,odd,Win32,265,134359,131344,264,265,650916,652417,645916,135878,645916,265,800993,802506,797992,652424,797992,visual_patterns,0,0,0,yes,1366
undefined,undefined,undefined,undefined,white,no,Mozilla,Netscape,"5.0 (Windows NT 10.0; Win64; x64) AppleWebKit/537.36 (KHTML, like Gecko) Chrome/98.0.4758.102 Safari/537.36 OPR/84.0.4316.21",xpyriment,legacy,legacy,0,uniform,0,0,0,0,24,24,24,0,0,74,74,74,74,74,0,74,0,27,27,27,27,27,0,27,06-02-22,06-02-22,17:57:57,Sun Mar 06 2022 17:57:57 GMT+0100 (közép-európai téli idő),The main experiment item,yes,0,0,C:/Users/rrics/Documents/!!ResearchBMECOGSCI/gnet,0,0,0,prototype5.png,no,mono,no,18,no,black,no,no,768,1183,3.5.6,legacy,xpyriment,osweb,1.3.13,0,space,space,space,space,27659,22252,26929,27659,2,legacy,824,1536,24,864,24,-1,-1,1536,1646585899616,1024,2,48000,-16,experiment,p4sarrshacol1.png,1,odd,Win32,265,134359,131344,264,265,650916,652417,645916,135878,645916,265,805522,807039,802523,652424,802523,visual_patterns,0,0,0,yes,1366
undefined,undefined,undefined,undefined,white,no,Mozilla,Netscape,"5.0 (Windows NT 10.0; Win64; x64) AppleWebKit/537.36 (KHTML, like Gecko) Chrome/98.0.4758.102 Safari/537.36 OPR/84.0.4316.21",xpyriment,legacy,legacy,0,uniform,0,0,0,0,24,24,24,0,0,74,74,74,74,74,0,74,0,28,28,28,28,28,0,28,06-02-22,06-02-22,17:57:57,Sun Mar 06 2022 17:57:57 GMT+0100 (közép-európai téli idő),The main experiment item,yes,0,0,C:/Users/rrics/Documents/!!ResearchBMECOGSCI/gnet,0,0,0,prototype5.png,no,mono,no,18,no,black,no,no,768,1183,3.5.6,legacy,xpyriment,osweb,1.3.13,0,space,space,space,space,27659,22252,26929,27659,2,legacy,824,1536,24,864,24,-1,-1,1536,1646585899616,1024,2,48000,-16,experiment,p1sarrshacol3.png,1,odd,Win32,265,134359,131344,264,265,650916,652417,645916,135878,645916,265,810062,811573,807060,652424,807060,visual_patterns,0,0,0,yes,1366
undefined,undefined,undefined,undefined,white,no,Mozilla,Netscape,"5.0 (Windows NT 10.0; Win64; x64) AppleWebKit/537.36 (KHTML, like Gecko) Chrome/98.0.4758.102 Safari/537.36 OPR/84.0.4316.21",xpyriment,legacy,legacy,0,uniform,0,0,0,0,24,24,24,0,0,74,74,74,74,74,0,74,0,29,29,29,29,29,0,29,06-02-22,06-02-22,17:57:57,Sun Mar 06 2022 17:57:57 GMT+0100 (közép-európai téli idő),The main experiment item,yes,0,0,C:/Users/rrics/Documents/!!ResearchBMECOGSCI/gnet,0,0,0,prototype5.png,no,mono,no,18,no,black,no,no,768,1183,3.5.6,legacy,xpyriment,osweb,1.3.13,0,space,space,space,space,27659,22252,26929,27659,2,legacy,824,1536,24,864,24,-1,-1,1536,1646585899616,1024,2,48000,-16,experiment,p2sarrsha1.png,1,odd,Win32,265,134359,131344,264,265,650916,652417,645916,135878,645916,265,814597,816106,811593,652424,811593,visual_patterns,0,0,0,yes,1366
undefined,undefined,undefined,undefined,white,no,Mozilla,Netscape,"5.0 (Windows NT 10.0; Win64; x64) AppleWebKit/537.36 (KHTML, like Gecko) Chrome/98.0.4758.102 Safari/537.36 OPR/84.0.4316.21",xpyriment,legacy,legacy,0,uniform,0,0,0,0,24,24,24,0,0,74,74,74,74,74,0,74,0,30,30,30,30,30,0,30,06-02-22,06-02-22,17:57:57,Sun Mar 06 2022 17:57:57 GMT+0100 (közép-európai téli idő),The main experiment item,yes,0,0,C:/Users/rrics/Documents/!!ResearchBMECOGSCI/gnet,0,0,0,prototype5.png,no,mono,no,18,no,black,no,no,768,1183,3.5.6,legacy,xpyriment,osweb,1.3.13,0,space,space,space,space,27659,22252,26929,27659,2,legacy,824,1536,24,864,24,-1,-1,1536,1646585899616,1024,2,48000,-16,experiment,p3sarr2.png,1,odd,Win32,265,134359,131344,264,265,650916,652417,645916,135878,645916,265,819123,820639,816124,652424,816124,visual_patterns,0,0,0,yes,1366
undefined,undefined,undefined,undefined,white,no,Mozilla,Netscape,"5.0 (Windows NT 10.0; Win64; x64) AppleWebKit/537.36 (KHTML, like Gecko) Chrome/98.0.4758.102 Safari/537.36 OPR/84.0.4316.21",xpyriment,legacy,legacy,0,uniform,0,0,0,0,24,24,24,0,0,74,74,74,74,74,0,74,0,31,31,31,31,31,0,31,06-02-22,06-02-22,17:57:57,Sun Mar 06 2022 17:57:57 GMT+0100 (közép-európai téli idő),The main experiment item,yes,0,0,C:/Users/rrics/Documents/!!ResearchBMECOGSCI/gnet,0,0,0,prototype5.png,no,mono,no,18,no,black,no,no,768,1183,3.5.6,legacy,xpyriment,osweb,1.3.13,0,space,space,space,space,27659,22252,26929,27659,2,legacy,824,1536,24,864,24,-1,-1,1536,1646585899616,1024,2,48000,-16,experiment,p3sarrshacol3.png,1,odd,Win32,265,134359,131344,264,265,650916,652417,645916,135878,645916,265,823660,825173,820660,652424,820660,visual_patterns,0,0,0,yes,1366
undefined,undefined,undefined,undefined,white,no,Mozilla,Netscape,"5.0 (Windows NT 10.0; Win64; x64) AppleWebKit/537.36 (KHTML, like Gecko) Chrome/98.0.4758.102 Safari/537.36 OPR/84.0.4316.21",xpyriment,legacy,legacy,0,uniform,0,0,0,0,24,24,24,0,0,74,74,74,74,74,0,74,0,32,32,32,32,32,0,32,06-02-22,06-02-22,17:57:57,Sun Mar 06 2022 17:57:57 GMT+0100 (közép-európai téli idő),The main experiment item,yes,0,0,C:/Users/rrics/Documents/!!ResearchBMECOGSCI/gnet,0,0,0,prototype5.png,no,mono,no,18,no,black,no,no,768,1183,3.5.6,legacy,xpyriment,osweb,1.3.13,0,space,space,space,space,27659,22252,26929,27659,2,legacy,824,1536,24,864,24,-1,-1,1536,1646585899616,1024,2,48000,-16,experiment,p2sarrcol4.png,1,odd,Win32,265,134359,131344,264,265,650916,652417,645916,135878,645916,265,828190,829707,825195,652424,825195,visual_patterns,0,0,0,yes,1366
undefined,undefined,undefined,undefined,white,no,Mozilla,Netscape,"5.0 (Windows NT 10.0; Win64; x64) AppleWebKit/537.36 (KHTML, like Gecko) Chrome/98.0.4758.102 Safari/537.36 OPR/84.0.4316.21",xpyriment,legacy,legacy,0,uniform,0,0,0,0,24,24,24,0,0,74,74,74,74,74,0,74,0,33,33,33,33,33,0,33,06-02-22,06-02-22,17:57:57,Sun Mar 06 2022 17:57:57 GMT+0100 (közép-európai téli idő),The main experiment item,yes,0,0,C:/Users/rrics/Documents/!!ResearchBMECOGSCI/gnet,0,0,0,prototype5.png,no,mono,no,18,no,black,no,no,768,1183,3.5.6,legacy,xpyriment,osweb,1.3.13,0,space,space,space,space,27659,22252,26929,27659,2,legacy,824,1536,24,864,24,-1,-1,1536,1646585899616,1024,2,48000,-16,experiment,p5sarrcol1.png,1,odd,Win32,265,134359,131344,264,265,650916,652417,645916,135878,645916,265,832748,834257,829745,652424,829745,visual_patterns,0,0,0,yes,1366
undefined,undefined,undefined,undefined,white,no,Mozilla,Netscape,"5.0 (Windows NT 10.0; Win64; x64) AppleWebKit/537.36 (KHTML, like Gecko) Chrome/98.0.4758.102 Safari/537.36 OPR/84.0.4316.21",xpyriment,legacy,legacy,0,uniform,0,0,0,0,24,24,24,0,0,74,74,74,74,74,0,74,0,34,34,34,34,34,0,34,06-02-22,06-02-22,17:57:57,Sun Mar 06 2022 17:57:57 GMT+0100 (közép-európai téli idő),The main experiment item,yes,0,0,C:/Users/rrics/Documents/!!ResearchBMECOGSCI/gnet,0,0,0,prototype5.png,no,mono,no,18,no,black,no,no,768,1183,3.5.6,legacy,xpyriment,osweb,1.3.13,0,space,space,space,space,27659,22252,26929,27659,2,legacy,824,1536,24,864,24,-1,-1,1536,1646585899616,1024,2,48000,-16,experiment,p8sarr2.png,1,odd,Win32,265,134359,131344,264,265,650916,652417,645916,135878,645916,265,837273,838780,834273,652424,834273,visual_patterns,0,0,0,yes,1366
undefined,undefined,undefined,undefined,white,no,Mozilla,Netscape,"5.0 (Windows NT 10.0; Win64; x64) AppleWebKit/537.36 (KHTML, like Gecko) Chrome/98.0.4758.102 Safari/537.36 OPR/84.0.4316.21",xpyriment,legacy,legacy,0,uniform,0,0,0,0,24,24,24,0,0,74,74,74,74,74,0,74,0,35,35,35,35,35,0,35,06-02-22,06-02-22,17:57:57,Sun Mar 06 2022 17:57:57 GMT+0100 (közép-európai téli idő),The main experiment item,yes,0,0,C:/Users/rrics/Documents/!!ResearchBMECOGSCI/gnet,0,0,0,prototype5.png,no,mono,no,18,no,black,no,no,768,1183,3.5.6,legacy,xpyriment,osweb,1.3.13,0,space,space,space,space,27659,22252,26929,27659,2,legacy,824,1536,24,864,24,-1,-1,1536,1646585899616,1024,2,48000,-16,experiment,p5sarr3.png,1,odd,Win32,265,134359,131344,264,265,650916,652417,645916,135878,645916,265,841799,843307,838803,652424,838803,visual_patterns,0,0,0,yes,1366
undefined,undefined,undefined,undefined,white,no,Mozilla,Netscape,"5.0 (Windows NT 10.0; Win64; x64) AppleWebKit/537.36 (KHTML, like Gecko) Chrome/98.0.4758.102 Safari/537.36 OPR/84.0.4316.21",xpyriment,legacy,legacy,0,uniform,0,0,0,0,24,24,24,0,0,74,74,74,74,74,0,74,0,36,36,36,36,36,0,36,06-02-22,06-02-22,17:57:57,Sun Mar 06 2022 17:57:57 GMT+0100 (közép-európai téli idő),The main experiment item,yes,0,0,C:/Users/rrics/Documents/!!ResearchBMECOGSCI/gnet,0,0,0,prototype5.png,no,mono,no,18,no,black,no,no,768,1183,3.5.6,legacy,xpyriment,osweb,1.3.13,0,space,space,space,space,27659,22252,26929,27659,2,legacy,824,1536,24,864,24,-1,-1,1536,1646585899616,1024,2,48000,-16,experiment,p7sarr1.png,1,odd,Win32,265,134359,131344,264,265,650916,652417,645916,135878,645916,265,846325,847840,843326,652424,843326,visual_patterns,0,0,0,yes,1366
undefined,undefined,undefined,undefined,white,no,Mozilla,Netscape,"5.0 (Windows NT 10.0; Win64; x64) AppleWebKit/537.36 (KHTML, like Gecko) Chrome/98.0.4758.102 Safari/537.36 OPR/84.0.4316.21",xpyriment,legacy,legacy,0,uniform,0,0,0,0,24,24,24,0,0,74,74,74,74,74,0,74,0,37,37,37,37,37,0,37,06-02-22,06-02-22,17:57:57,Sun Mar 06 2022 17:57:57 GMT+0100 (közép-európai téli idő),The main experiment item,yes,0,0,C:/Users/rrics/Documents/!!ResearchBMECOGSCI/gnet,0,0,0,prototype5.png,no,mono,no,18,no,black,no,no,768,1183,3.5.6,legacy,xpyriment,osweb,1.3.13,0,space,space,space,space,27659,22252,26929,27659,2,legacy,824,1536,24,864,24,-1,-1,1536,1646585899616,1024,2,48000,-16,experiment,p1sarrcol4.png,1,odd,Win32,265,134359,131344,264,265,650916,652417,645916,135878,645916,265,850863,852374,847861,652424,847861,visual_patterns,0,0,0,yes,1366
undefined,undefined,undefined,undefined,white,no,Mozilla,Netscape,"5.0 (Windows NT 10.0; Win64; x64) AppleWebKit/537.36 (KHTML, like Gecko) Chrome/98.0.4758.102 Safari/537.36 OPR/84.0.4316.21",xpyriment,legacy,legacy,0,uniform,0,0,0,0,24,24,24,0,0,74,74,74,74,74,0,74,0,38,38,38,38,38,0,38,06-02-22,06-02-22,17:57:57,Sun Mar 06 2022 17:57:57 GMT+0100 (közép-európai téli idő),The main experiment item,yes,0,0,C:/Users/rrics/Documents/!!ResearchBMECOGSCI/gnet,0,0,0,prototype5.png,no,mono,no,18,no,black,no,no,768,1183,3.5.6,legacy,xpyriment,osweb,1.3.13,0,space,space,space,space,27659,22252,26929,27659,2,legacy,824,1536,24,864,24,-1,-1,1536,1646585899616,1024,2,48000,-16,experiment,p3sarrsha4.png,1,odd,Win32,265,134359,131344,264,265,650916,652417,645916,135878,645916,265,855425,856941,852422,652424,852422,visual_patterns,0,0,0,yes,1366
undefined,undefined,undefined,undefined,white,no,Mozilla,Netscape,"5.0 (Windows NT 10.0; Win64; x64) AppleWebKit/537.36 (KHTML, like Gecko) Chrome/98.0.4758.102 Safari/537.36 OPR/84.0.4316.21",xpyriment,legacy,legacy,0,uniform,0,0,0,0,24,24,24,0,0,74,74,74,74,74,0,74,0,39,39,39,39,39,0,39,06-02-22,06-02-22,17:57:57,Sun Mar 06 2022 17:57:57 GMT+0100 (közép-európai téli idő),The main experiment item,yes,0,0,C:/Users/rrics/Documents/!!ResearchBMECOGSCI/gnet,0,0,0,prototype5.png,no,mono,no,18,no,black,no,no,768,1183,3.5.6,legacy,xpyriment,osweb,1.3.13,0,space,space,space,space,27659,22252,26929,27659,2,legacy,824,1536,24,864,24,-1,-1,1536,1646585899616,1024,2,48000,-16,experiment,p3sarr1.png,1,odd,Win32,265,134359,131344,264,265,650916,652417,645916,135878,645916,265,859964,861475,856959,652424,856959,visual_patterns,0,0,0,yes,1366
undefined,undefined,undefined,undefined,white,no,Mozilla,Netscape,"5.0 (Windows NT 10.0; Win64; x64) AppleWebKit/537.36 (KHTML, like Gecko) Chrome/98.0.4758.102 Safari/537.36 OPR/84.0.4316.21",xpyriment,legacy,legacy,0,uniform,0,0,0,0,24,24,24,0,0,74,74,74,74,74,0,74,0,40,40,40,40,40,0,40,06-02-22,06-02-22,17:57:57,Sun Mar 06 2022 17:57:57 GMT+0100 (közép-európai téli idő),The main experiment item,yes,0,0,C:/Users/rrics/Documents/!!ResearchBMECOGSCI/gnet,0,0,0,prototype5.png,no,mono,no,18,no,black,no,no,768,1183,3.5.6,legacy,xpyriment,osweb,1.3.13,0,space,space,space,space,27659,22252,26929,27659,2,legacy,824,1536,24,864,24,-1,-1,1536,1646585899616,1024,2,48000,-16,experiment,p2sarrsha3.png,1,odd,Win32,265,134359,131344,264,265,650916,652417,645916,135878,645916,265,864503,866008,861497,652424,861496,visual_patterns,0,0,0,yes,1366
undefined,undefined,undefined,undefined,white,no,Mozilla,Netscape,"5.0 (Windows NT 10.0; Win64; x64) AppleWebKit/537.36 (KHTML, like Gecko) Chrome/98.0.4758.102 Safari/537.36 OPR/84.0.4316.21",xpyriment,legacy,legacy,0,uniform,0,0,0,0,24,24,24,0,0,74,74,74,74,74,0,74,0,41,41,41,41,41,0,41,06-02-22,06-02-22,17:57:57,Sun Mar 06 2022 17:57:57 GMT+0100 (közép-európai téli idő),The main experiment item,yes,0,0,C:/Users/rrics/Documents/!!ResearchBMECOGSCI/gnet,0,0,0,prototype5.png,no,mono,no,18,no,black,no,no,768,1183,3.5.6,legacy,xpyriment,osweb,1.3.13,0,space,space,space,space,27659,22252,26929,27659,2,legacy,824,1536,24,864,24,-1,-1,1536,1646585899616,1024,2,48000,-16,experiment,p9sarr3.png,1,odd,Win32,265,134359,131344,264,265,650916,652417,645916,135878,645916,265,869032,870542,866030,652424,866030,visual_patterns,0,0,0,yes,1366
undefined,undefined,undefined,undefined,white,no,Mozilla,Netscape,"5.0 (Windows NT 10.0; Win64; x64) AppleWebKit/537.36 (KHTML, like Gecko) Chrome/98.0.4758.102 Safari/537.36 OPR/84.0.4316.21",xpyriment,legacy,legacy,0,uniform,0,0,0,0,24,24,24,0,0,74,74,74,74,74,0,74,0,42,42,42,42,42,0,42,06-02-22,06-02-22,17:57:57,Sun Mar 06 2022 17:57:57 GMT+0100 (közép-európai téli idő),The main experiment item,yes,0,0,C:/Users/rrics/Documents/!!ResearchBMECOGSCI/gnet,0,0,0,prototype5.png,no,mono,no,18,no,black,no,no,768,1183,3.5.6,legacy,xpyriment,osweb,1.3.13,0,space,space,space,space,27659,22252,26929,27659,2,legacy,824,1536,24,864,24,-1,-1,1536,1646585899616,1024,2,48000,-16,experiment,p10sarr4.png,1,odd,Win32,265,134359,131344,264,265,650916,652417,645916,135878,645916,265,873564,875076,870562,652424,870562,visual_patterns,0,0,0,yes,1366
undefined,undefined,undefined,undefined,white,no,Mozilla,Netscape,"5.0 (Windows NT 10.0; Win64; x64) AppleWebKit/537.36 (KHTML, like Gecko) Chrome/98.0.4758.102 Safari/537.36 OPR/84.0.4316.21",xpyriment,legacy,legacy,0,uniform,0,0,0,0,24,24,24,0,0,74,74,74,74,74,0,74,0,43,43,43,43,43,0,43,06-02-22,06-02-22,17:57:57,Sun Mar 06 2022 17:57:57 GMT+0100 (közép-európai téli idő),The main experiment item,yes,0,0,C:/Users/rrics/Documents/!!ResearchBMECOGSCI/gnet,0,0,0,prototype5.png,no,mono,no,18,no,black,no,no,768,1183,3.5.6,legacy,xpyriment,osweb,1.3.13,0,space,space,space,space,27659,22252,26929,27659,2,legacy,824,1536,24,864,24,-1,-1,1536,1646585899616,1024,2,48000,-16,experiment,p4sarrcol1.png,1,odd,Win32,265,134359,131344,264,265,650916,652417,645916,135878,645916,265,878117,879626,875118,652424,875118,visual_patterns,0,0,0,yes,1366
undefined,undefined,undefined,undefined,white,no,Mozilla,Netscape,"5.0 (Windows NT 10.0; Win64; x64) AppleWebKit/537.36 (KHTML, like Gecko) Chrome/98.0.4758.102 Safari/537.36 OPR/84.0.4316.21",xpyriment,legacy,legacy,0,uniform,0,0,0,0,24,24,24,0,0,74,74,74,74,74,0,74,0,44,44,44,44,44,0,44,06-02-22,06-02-22,17:57:57,Sun Mar 06 2022 17:57:57 GMT+0100 (közép-európai téli idő),The main experiment item,yes,0,0,C:/Users/rrics/Documents/!!ResearchBMECOGSCI/gnet,0,0,0,prototype5.png,no,mono,no,18,no,black,no,no,768,1183,3.5.6,legacy,xpyriment,osweb,1.3.13,0,space,space,space,space,27659,22252,26929,27659,2,legacy,824,1536,24,864,24,-1,-1,1536,1646585899616,1024,2,48000,-16,experiment,p5sarrshacol4.png,1,odd,Win32,265,134359,131344,264,265,650916,652417,645916,135878,645916,265,882643,884159,879645,652424,879645,visual_patterns,0,0,0,yes,1366
undefined,undefined,undefined,undefined,white,no,Mozilla,Netscape,"5.0 (Windows NT 10.0; Win64; x64) AppleWebKit/537.36 (KHTML, like Gecko) Chrome/98.0.4758.102 Safari/537.36 OPR/84.0.4316.21",xpyriment,legacy,legacy,0,uniform,0,0,0,0,24,24,24,0,0,74,74,74,74,74,0,74,0,45,45,45,45,45,0,45,06-02-22,06-02-22,17:57:57,Sun Mar 06 2022 17:57:57 GMT+0100 (közép-európai téli idő),The main experiment item,yes,0,0,C:/Users/rrics/Documents/!!ResearchBMECOGSCI/gnet,0,0,0,prototype5.png,no,mono,no,18,no,black,no,no,768,1183,3.5.6,legacy,xpyriment,osweb,1.3.13,0,space,space,space,space,27659,22252,26929,27659,2,legacy,824,1536,24,864,24,-1,-1,1536,1646585899616,1024,2,48000,-16,experiment,p3sarr3.png,1,odd,Win32,265,134359,131344,264,265,650916,652417,645916,135878,645916,265,887176,888693,884180,652424,884180,visual_patterns,0,0,0,yes,1366
