acc,accuracy,average_response_time,avg_rt,background,bidi,browser_codename,browser_name,browser_version,canvas_backend,clock_backend,color_backend,compensation,coordinates,count_end,count_experiment,count_osweb,count_prestudy,count_prestudy_isi,count_prestudy_sequence,count_prestudy_stimpres,count_start,count_study,count_study_coroutines,count_study_isi,count_study_logger,count_study_response,count_study_sequence,count_study_start,count_study_stimpres,count_test,count_test_coroutines,count_test_isi,count_test_logger,count_test_response,count_test_sequence,count_test_start,count_test_stimpres,date_startdate,date_startdateUTC,date_starttime,datetime,description,disable_garbage_collection,experiment_debug,experiment_parameters,experiment_path,experiment_pilot,experiment_taskname,experiment_taskversion,fampict,font_bold,font_family,font_italic,font_size,font_underline,foreground,form_clicks,fullscreen,height,jatosStudyResultId,jatosVersion,keyboard_backend,mouse_backend,opensesame_codename,opensesame_version,repeat_cycle,response,response_start,response_study_start,response_test_start,response_time,response_time_start,response_time_study_start,response_time_test_start,round_decimals,sampler_backend,screen_availableHeight,screen_availableWidth,screen_colorDepth,screen_height,screen_pixelDepth,screen_screenX,screen_screenY,screen_width,sessionid,sound_buf_size,sound_channels,sound_freq,sound_sample_size,start,stim,subject_nr,subject_parity,system_os,time_prestudy,time_prestudy_isi,time_prestudy_stimpres,time_start,time_study,time_study_isi,time_study_logger,time_study_response,time_study_start,time_study_stimpres,time_test,time_test_isi,time_test_logger,time_test_response,time_test_start,time_test_stimpres,title,total_correct,total_response_time,total_responses,uniform_coordinates,width
undefined,undefined,undefined,undefined,white,no,Mozilla,Netscape,"5.0 (Macintosh; Intel Mac OS X 10_15_7) AppleWebKit/605.1.15 (KHTML, like Gecko) Version/14.1.2 Safari/605.1.15",xpyriment,legacy,legacy,0,uniform,0,0,0,0,24,24,24,0,0,0,0,0,0,0,0,0,0,,,,,,0,,07-02-22,07-02-22,10:59:05,Mon Mar 07 2022 10:59:05 GMT+0100 (CET),The main experiment item,yes,0,0,C:/Users/rrics/Documents/!!ResearchBMECOGSCI/gnet,0,0,0,prototype5.png,no,mono,no,18,no,black,no,no,768,1184,3.5.6,legacy,xpyriment,osweb,1.3.13,0,k,k,k,,43464,26807,43464,,2,legacy,900,1440,24,900,24,0,0,1440,1646647136514,1024,2,48000,-16,experiment,p6sarr1.png,0,even,MacIntel,139,139082,136072,139,139,189114,190619,184138,140617,184138,139,,,,,,visual_patterns,0,0,0,yes,1366
undefined,undefined,undefined,undefined,white,no,Mozilla,Netscape,"5.0 (Macintosh; Intel Mac OS X 10_15_7) AppleWebKit/605.1.15 (KHTML, like Gecko) Version/14.1.2 Safari/605.1.15",xpyriment,legacy,legacy,0,uniform,0,0,0,0,24,24,24,0,0,1,1,1,1,1,0,1,0,,,,,,0,,07-02-22,07-02-22,10:59:05,Mon Mar 07 2022 10:59:05 GMT+0100 (CET),The main experiment item,yes,0,0,C:/Users/rrics/Documents/!!ResearchBMECOGSCI/gnet,0,0,0,prototype5.png,no,mono,no,18,no,black,no,no,768,1184,3.5.6,legacy,xpyriment,osweb,1.3.13,0,k,k,k,,43464,26807,43464,,2,legacy,900,1440,24,900,24,0,0,1440,1646647136514,1024,2,48000,-16,experiment,prototype3.png,0,even,MacIntel,139,139082,136072,139,139,195637,197143,190655,140617,190655,139,,,,,,visual_patterns,0,0,0,yes,1366
undefined,undefined,undefined,undefined,white,no,Mozilla,Netscape,"5.0 (Macintosh; Intel Mac OS X 10_15_7) AppleWebKit/605.1.15 (KHTML, like Gecko) Version/14.1.2 Safari/605.1.15",xpyriment,legacy,legacy,0,uniform,0,0,0,0,24,24,24,0,0,2,2,2,2,2,0,2,0,,,,,,0,,07-02-22,07-02-22,10:59:05,Mon Mar 07 2022 10:59:05 GMT+0100 (CET),The main experiment item,yes,0,0,C:/Users/rrics/Documents/!!ResearchBMECOGSCI/gnet,0,0,0,prototype5.png,no,mono,no,18,no,black,no,no,768,1184,3.5.6,legacy,xpyriment,osweb,1.3.13,0,k,k,k,,43464,26807,43464,,2,legacy,900,1440,24,900,24,0,0,1440,1646647136514,1024,2,48000,-16,experiment,p3sarr1.png,0,even,MacIntel,139,139082,136072,139,139,202166,203683,197188,140617,197187,139,,,,,,visual_patterns,0,0,0,yes,1366
undefined,undefined,undefined,undefined,white,no,Mozilla,Netscape,"5.0 (Macintosh; Intel Mac OS X 10_15_7) AppleWebKit/605.1.15 (KHTML, like Gecko) Version/14.1.2 Safari/605.1.15",xpyriment,legacy,legacy,0,uniform,0,0,0,0,24,24,24,0,0,3,3,3,3,3,0,3,0,,,,,,0,,07-02-22,07-02-22,10:59:05,Mon Mar 07 2022 10:59:05 GMT+0100 (CET),The main experiment item,yes,0,0,C:/Users/rrics/Documents/!!ResearchBMECOGSCI/gnet,0,0,0,prototype5.png,no,mono,no,18,no,black,no,no,768,1184,3.5.6,legacy,xpyriment,osweb,1.3.13,0,k,k,k,,43464,26807,43464,,2,legacy,900,1440,24,900,24,0,0,1440,1646647136514,1024,2,48000,-16,experiment,p9sarr2.png,0,even,MacIntel,139,139082,136072,139,139,208701,210209,203721,140617,203721,139,,,,,,visual_patterns,0,0,0,yes,1366
undefined,undefined,undefined,undefined,white,no,Mozilla,Netscape,"5.0 (Macintosh; Intel Mac OS X 10_15_7) AppleWebKit/605.1.15 (KHTML, like Gecko) Version/14.1.2 Safari/605.1.15",xpyriment,legacy,legacy,0,uniform,0,0,0,0,24,24,24,0,0,4,4,4,4,4,0,4,0,,,,,,0,,07-02-22,07-02-22,10:59:05,Mon Mar 07 2022 10:59:05 GMT+0100 (CET),The main experiment item,yes,0,0,C:/Users/rrics/Documents/!!ResearchBMECOGSCI/gnet,0,0,0,prototype5.png,no,mono,no,18,no,black,no,no,768,1184,3.5.6,legacy,xpyriment,osweb,1.3.13,0,k,k,k,,43464,26807,43464,,2,legacy,900,1440,24,900,24,0,0,1440,1646647136514,1024,2,48000,-16,experiment,p4sarr2.png,0,even,MacIntel,139,139082,136072,139,139,215237,216745,210258,140617,210258,139,,,,,,visual_patterns,0,0,0,yes,1366
undefined,undefined,undefined,undefined,white,no,Mozilla,Netscape,"5.0 (Macintosh; Intel Mac OS X 10_15_7) AppleWebKit/605.1.15 (KHTML, like Gecko) Version/14.1.2 Safari/605.1.15",xpyriment,legacy,legacy,0,uniform,0,0,0,0,24,24,24,0,0,5,5,5,5,5,0,5,0,,,,,,0,,07-02-22,07-02-22,10:59:05,Mon Mar 07 2022 10:59:05 GMT+0100 (CET),The main experiment item,yes,0,0,C:/Users/rrics/Documents/!!ResearchBMECOGSCI/gnet,0,0,0,prototype5.png,no,mono,no,18,no,black,no,no,768,1184,3.5.6,legacy,xpyriment,osweb,1.3.13,0,k,k,k,,43464,26807,43464,,2,legacy,900,1440,24,900,24,0,0,1440,1646647136514,1024,2,48000,-16,experiment,p4sarrshacol2.png,0,even,MacIntel,139,139082,136072,139,139,221762,223277,216786,140617,216786,139,,,,,,visual_patterns,0,0,0,yes,1366
undefined,undefined,undefined,undefined,white,no,Mozilla,Netscape,"5.0 (Macintosh; Intel Mac OS X 10_15_7) AppleWebKit/605.1.15 (KHTML, like Gecko) Version/14.1.2 Safari/605.1.15",xpyriment,legacy,legacy,0,uniform,0,0,0,0,24,24,24,0,0,6,6,6,6,6,0,6,0,,,,,,0,,07-02-22,07-02-22,10:59:05,Mon Mar 07 2022 10:59:05 GMT+0100 (CET),The main experiment item,yes,0,0,C:/Users/rrics/Documents/!!ResearchBMECOGSCI/gnet,0,0,0,prototype5.png,no,mono,no,18,no,black,no,no,768,1184,3.5.6,legacy,xpyriment,osweb,1.3.13,0,k,k,k,,43464,26807,43464,,2,legacy,900,1440,24,900,24,0,0,1440,1646647136514,1024,2,48000,-16,experiment,p5sarrsha2.png,0,even,MacIntel,139,139082,136072,139,139,228293,229804,223315,140617,223315,139,,,,,,visual_patterns,0,0,0,yes,1366
undefined,undefined,undefined,undefined,white,no,Mozilla,Netscape,"5.0 (Macintosh; Intel Mac OS X 10_15_7) AppleWebKit/605.1.15 (KHTML, like Gecko) Version/14.1.2 Safari/605.1.15",xpyriment,legacy,legacy,0,uniform,0,0,0,0,24,24,24,0,0,7,7,7,7,7,0,7,0,,,,,,0,,07-02-22,07-02-22,10:59:05,Mon Mar 07 2022 10:59:05 GMT+0100 (CET),The main experiment item,yes,0,0,C:/Users/rrics/Documents/!!ResearchBMECOGSCI/gnet,0,0,0,prototype5.png,no,mono,no,18,no,black,no,no,768,1184,3.5.6,legacy,xpyriment,osweb,1.3.13,0,k,k,k,,43464,26807,43464,,2,legacy,900,1440,24,900,24,0,0,1440,1646647136514,1024,2,48000,-16,experiment,p2sarr1.png,0,even,MacIntel,139,139082,136072,139,139,234826,236330,229849,140617,229849,139,,,,,,visual_patterns,0,0,0,yes,1366
undefined,undefined,undefined,undefined,white,no,Mozilla,Netscape,"5.0 (Macintosh; Intel Mac OS X 10_15_7) AppleWebKit/605.1.15 (KHTML, like Gecko) Version/14.1.2 Safari/605.1.15",xpyriment,legacy,legacy,0,uniform,0,0,0,0,24,24,24,0,0,8,8,8,8,8,0,8,0,,,,,,0,,07-02-22,07-02-22,10:59:05,Mon Mar 07 2022 10:59:05 GMT+0100 (CET),The main experiment item,yes,0,0,C:/Users/rrics/Documents/!!ResearchBMECOGSCI/gnet,0,0,0,prototype5.png,no,mono,no,18,no,black,no,no,768,1184,3.5.6,legacy,xpyriment,osweb,1.3.13,0,k,k,k,,43464,26807,43464,,2,legacy,900,1440,24,900,24,0,0,1440,1646647136514,1024,2,48000,-16,experiment,prototype4.png,0,even,MacIntel,139,139082,136072,139,139,241349,242863,236367,140617,236367,139,,,,,,visual_patterns,0,0,0,yes,1366
undefined,undefined,undefined,undefined,white,no,Mozilla,Netscape,"5.0 (Macintosh; Intel Mac OS X 10_15_7) AppleWebKit/605.1.15 (KHTML, like Gecko) Version/14.1.2 Safari/605.1.15",xpyriment,legacy,legacy,0,uniform,0,0,0,0,24,24,24,0,0,9,9,9,9,9,0,9,0,,,,,,0,,07-02-22,07-02-22,10:59:05,Mon Mar 07 2022 10:59:05 GMT+0100 (CET),The main experiment item,yes,0,0,C:/Users/rrics/Documents/!!ResearchBMECOGSCI/gnet,0,0,0,prototype5.png,no,mono,no,18,no,black,no,no,768,1184,3.5.6,legacy,xpyriment,osweb,1.3.13,0,k,k,k,,43464,26807,43464,,2,legacy,900,1440,24,900,24,0,0,1440,1646647136514,1024,2,48000,-16,experiment,p5sarrsha1.png,0,even,MacIntel,139,139082,136072,139,139,247880,249383,242903,140617,242903,139,,,,,,visual_patterns,0,0,0,yes,1366
undefined,undefined,undefined,undefined,white,no,Mozilla,Netscape,"5.0 (Macintosh; Intel Mac OS X 10_15_7) AppleWebKit/605.1.15 (KHTML, like Gecko) Version/14.1.2 Safari/605.1.15",xpyriment,legacy,legacy,0,uniform,0,0,0,0,24,24,24,0,0,10,10,10,10,10,0,10,0,,,,,,0,,07-02-22,07-02-22,10:59:05,Mon Mar 07 2022 10:59:05 GMT+0100 (CET),The main experiment item,yes,0,0,C:/Users/rrics/Documents/!!ResearchBMECOGSCI/gnet,0,0,0,prototype5.png,no,mono,no,18,no,black,no,no,768,1184,3.5.6,legacy,xpyriment,osweb,1.3.13,0,k,k,k,,43464,26807,43464,,2,legacy,900,1440,24,900,24,0,0,1440,1646647136514,1024,2,48000,-16,experiment,p5sarrcol1.png,0,even,MacIntel,139,139082,136072,139,139,254402,255907,249422,140617,249422,139,,,,,,visual_patterns,0,0,0,yes,1366
undefined,undefined,undefined,undefined,white,no,Mozilla,Netscape,"5.0 (Macintosh; Intel Mac OS X 10_15_7) AppleWebKit/605.1.15 (KHTML, like Gecko) Version/14.1.2 Safari/605.1.15",xpyriment,legacy,legacy,0,uniform,0,0,0,0,24,24,24,0,0,11,11,11,11,11,0,11,0,,,,,,0,,07-02-22,07-02-22,10:59:05,Mon Mar 07 2022 10:59:05 GMT+0100 (CET),The main experiment item,yes,0,0,C:/Users/rrics/Documents/!!ResearchBMECOGSCI/gnet,0,0,0,prototype5.png,no,mono,no,18,no,black,no,no,768,1184,3.5.6,legacy,xpyriment,osweb,1.3.13,0,k,k,k,,43464,26807,43464,,2,legacy,900,1440,24,900,24,0,0,1440,1646647136514,1024,2,48000,-16,experiment,p8sarr2.png,0,even,MacIntel,139,139082,136072,139,139,260927,262429,255949,140617,255949,139,,,,,,visual_patterns,0,0,0,yes,1366
undefined,undefined,undefined,undefined,white,no,Mozilla,Netscape,"5.0 (Macintosh; Intel Mac OS X 10_15_7) AppleWebKit/605.1.15 (KHTML, like Gecko) Version/14.1.2 Safari/605.1.15",xpyriment,legacy,legacy,0,uniform,0,0,0,0,24,24,24,0,0,12,12,12,12,12,0,12,0,,,,,,0,,07-02-22,07-02-22,10:59:05,Mon Mar 07 2022 10:59:05 GMT+0100 (CET),The main experiment item,yes,0,0,C:/Users/rrics/Documents/!!ResearchBMECOGSCI/gnet,0,0,0,prototype5.png,no,mono,no,18,no,black,no,no,768,1184,3.5.6,legacy,xpyriment,osweb,1.3.13,0,k,k,k,,43464,26807,43464,,2,legacy,900,1440,24,900,24,0,0,1440,1646647136514,1024,2,48000,-16,experiment,p5sarrshacol2.png,0,even,MacIntel,139,139082,136072,139,139,267440,268949,262455,140617,262455,139,,,,,,visual_patterns,0,0,0,yes,1366
undefined,undefined,undefined,undefined,white,no,Mozilla,Netscape,"5.0 (Macintosh; Intel Mac OS X 10_15_7) AppleWebKit/605.1.15 (KHTML, like Gecko) Version/14.1.2 Safari/605.1.15",xpyriment,legacy,legacy,0,uniform,0,0,0,0,24,24,24,0,0,13,13,13,13,13,0,13,0,,,,,,0,,07-02-22,07-02-22,10:59:05,Mon Mar 07 2022 10:59:05 GMT+0100 (CET),The main experiment item,yes,0,0,C:/Users/rrics/Documents/!!ResearchBMECOGSCI/gnet,0,0,0,prototype5.png,no,mono,no,18,no,black,no,no,768,1184,3.5.6,legacy,xpyriment,osweb,1.3.13,0,k,k,k,,43464,26807,43464,,2,legacy,900,1440,24,900,24,0,0,1440,1646647136514,1024,2,48000,-16,experiment,p8sarr1.png,0,even,MacIntel,139,139082,136072,139,139,273969,275488,268990,140617,268990,139,,,,,,visual_patterns,0,0,0,yes,1366
undefined,undefined,undefined,undefined,white,no,Mozilla,Netscape,"5.0 (Macintosh; Intel Mac OS X 10_15_7) AppleWebKit/605.1.15 (KHTML, like Gecko) Version/14.1.2 Safari/605.1.15",xpyriment,legacy,legacy,0,uniform,0,0,0,0,24,24,24,0,0,14,14,14,14,14,0,14,0,,,,,,0,,07-02-22,07-02-22,10:59:05,Mon Mar 07 2022 10:59:05 GMT+0100 (CET),The main experiment item,yes,0,0,C:/Users/rrics/Documents/!!ResearchBMECOGSCI/gnet,0,0,0,prototype5.png,no,mono,no,18,no,black,no,no,768,1184,3.5.6,legacy,xpyriment,osweb,1.3.13,0,k,k,k,,43464,26807,43464,,2,legacy,900,1440,24,900,24,0,0,1440,1646647136514,1024,2,48000,-16,experiment,p3sarrcol1.png,0,even,MacIntel,139,139082,136072,139,139,280502,282010,275526,140617,275525,139,,,,,,visual_patterns,0,0,0,yes,1366
undefined,undefined,undefined,undefined,white,no,Mozilla,Netscape,"5.0 (Macintosh; Intel Mac OS X 10_15_7) AppleWebKit/605.1.15 (KHTML, like Gecko) Version/14.1.2 Safari/605.1.15",xpyriment,legacy,legacy,0,uniform,0,0,0,0,24,24,24,0,0,15,15,15,15,15,0,15,0,,,,,,0,,07-02-22,07-02-22,10:59:05,Mon Mar 07 2022 10:59:05 GMT+0100 (CET),The main experiment item,yes,0,0,C:/Users/rrics/Documents/!!ResearchBMECOGSCI/gnet,0,0,0,prototype5.png,no,mono,no,18,no,black,no,no,768,1184,3.5.6,legacy,xpyriment,osweb,1.3.13,0,k,k,k,,43464,26807,43464,,2,legacy,900,1440,24,900,24,0,0,1440,1646647136514,1024,2,48000,-16,experiment,prototype1.png,0,even,MacIntel,139,139082,136072,139,139,287031,288538,282048,140617,282048,139,,,,,,visual_patterns,0,0,0,yes,1366
undefined,undefined,undefined,undefined,white,no,Mozilla,Netscape,"5.0 (Macintosh; Intel Mac OS X 10_15_7) AppleWebKit/605.1.15 (KHTML, like Gecko) Version/14.1.2 Safari/605.1.15",xpyriment,legacy,legacy,0,uniform,0,0,0,0,24,24,24,0,0,16,16,16,16,16,0,16,0,,,,,,0,,07-02-22,07-02-22,10:59:05,Mon Mar 07 2022 10:59:05 GMT+0100 (CET),The main experiment item,yes,0,0,C:/Users/rrics/Documents/!!ResearchBMECOGSCI/gnet,0,0,0,prototype5.png,no,mono,no,18,no,black,no,no,768,1184,3.5.6,legacy,xpyriment,osweb,1.3.13,0,k,k,k,,43464,26807,43464,,2,legacy,900,1440,24,900,24,0,0,1440,1646647136514,1024,2,48000,-16,experiment,p2sarr2.png,0,even,MacIntel,139,139082,136072,139,139,293556,295066,288577,140617,288577,139,,,,,,visual_patterns,0,0,0,yes,1366
undefined,undefined,undefined,undefined,white,no,Mozilla,Netscape,"5.0 (Macintosh; Intel Mac OS X 10_15_7) AppleWebKit/605.1.15 (KHTML, like Gecko) Version/14.1.2 Safari/605.1.15",xpyriment,legacy,legacy,0,uniform,0,0,0,0,24,24,24,0,0,17,17,17,17,17,0,17,0,,,,,,0,,07-02-22,07-02-22,10:59:05,Mon Mar 07 2022 10:59:05 GMT+0100 (CET),The main experiment item,yes,0,0,C:/Users/rrics/Documents/!!ResearchBMECOGSCI/gnet,0,0,0,prototype5.png,no,mono,no,18,no,black,no,no,768,1184,3.5.6,legacy,xpyriment,osweb,1.3.13,0,k,k,k,,43464,26807,43464,,2,legacy,900,1440,24,900,24,0,0,1440,1646647136514,1024,2,48000,-16,experiment,p3sarrsha2.png,0,even,MacIntel,139,139082,136072,139,139,300087,301594,295108,140617,295108,139,,,,,,visual_patterns,0,0,0,yes,1366
undefined,undefined,undefined,undefined,white,no,Mozilla,Netscape,"5.0 (Macintosh; Intel Mac OS X 10_15_7) AppleWebKit/605.1.15 (KHTML, like Gecko) Version/14.1.2 Safari/605.1.15",xpyriment,legacy,legacy,0,uniform,0,0,0,0,24,24,24,0,0,18,18,18,18,18,0,18,0,,,,,,0,,07-02-22,07-02-22,10:59:05,Mon Mar 07 2022 10:59:05 GMT+0100 (CET),The main experiment item,yes,0,0,C:/Users/rrics/Documents/!!ResearchBMECOGSCI/gnet,0,0,0,prototype5.png,no,mono,no,18,no,black,no,no,768,1184,3.5.6,legacy,xpyriment,osweb,1.3.13,0,k,k,k,,43464,26807,43464,,2,legacy,900,1440,24,900,24,0,0,1440,1646647136514,1024,2,48000,-16,experiment,prototype4.png,0,even,MacIntel,139,139082,136072,139,139,306614,308118,301631,140617,301631,139,,,,,,visual_patterns,0,0,0,yes,1366
undefined,undefined,undefined,undefined,white,no,Mozilla,Netscape,"5.0 (Macintosh; Intel Mac OS X 10_15_7) AppleWebKit/605.1.15 (KHTML, like Gecko) Version/14.1.2 Safari/605.1.15",xpyriment,legacy,legacy,0,uniform,0,0,0,0,24,24,24,0,0,19,19,19,19,19,0,19,0,,,,,,0,,07-02-22,07-02-22,10:59:05,Mon Mar 07 2022 10:59:05 GMT+0100 (CET),The main experiment item,yes,0,0,C:/Users/rrics/Documents/!!ResearchBMECOGSCI/gnet,0,0,0,prototype5.png,no,mono,no,18,no,black,no,no,768,1184,3.5.6,legacy,xpyriment,osweb,1.3.13,0,k,k,k,,43464,26807,43464,,2,legacy,900,1440,24,900,24,0,0,1440,1646647136514,1024,2,48000,-16,experiment,p3sarrsha1.png,0,even,MacIntel,139,139082,136072,139,139,313140,314643,308158,140617,308158,139,,,,,,visual_patterns,0,0,0,yes,1366
undefined,undefined,undefined,undefined,white,no,Mozilla,Netscape,"5.0 (Macintosh; Intel Mac OS X 10_15_7) AppleWebKit/605.1.15 (KHTML, like Gecko) Version/14.1.2 Safari/605.1.15",xpyriment,legacy,legacy,0,uniform,0,0,0,0,24,24,24,0,0,20,20,20,20,20,0,20,0,,,,,,0,,07-02-22,07-02-22,10:59:05,Mon Mar 07 2022 10:59:05 GMT+0100 (CET),The main experiment item,yes,0,0,C:/Users/rrics/Documents/!!ResearchBMECOGSCI/gnet,0,0,0,prototype5.png,no,mono,no,18,no,black,no,no,768,1184,3.5.6,legacy,xpyriment,osweb,1.3.13,0,k,k,k,,43464,26807,43464,,2,legacy,900,1440,24,900,24,0,0,1440,1646647136514,1024,2,48000,-16,experiment,prototype2.png,0,even,MacIntel,139,139082,136072,139,139,319661,321167,314680,140617,314680,139,,,,,,visual_patterns,0,0,0,yes,1366
undefined,undefined,undefined,undefined,white,no,Mozilla,Netscape,"5.0 (Macintosh; Intel Mac OS X 10_15_7) AppleWebKit/605.1.15 (KHTML, like Gecko) Version/14.1.2 Safari/605.1.15",xpyriment,legacy,legacy,0,uniform,0,0,0,0,24,24,24,0,0,21,21,21,21,21,0,21,0,,,,,,0,,07-02-22,07-02-22,10:59:05,Mon Mar 07 2022 10:59:05 GMT+0100 (CET),The main experiment item,yes,0,0,C:/Users/rrics/Documents/!!ResearchBMECOGSCI/gnet,0,0,0,prototype5.png,no,mono,no,18,no,black,no,no,768,1184,3.5.6,legacy,xpyriment,osweb,1.3.13,0,k,k,k,,43464,26807,43464,,2,legacy,900,1440,24,900,24,0,0,1440,1646647136514,1024,2,48000,-16,experiment,p4sarrcol2.png,0,even,MacIntel,139,139082,136072,139,139,326185,327695,321206,140617,321206,139,,,,,,visual_patterns,0,0,0,yes,1366
undefined,undefined,undefined,undefined,white,no,Mozilla,Netscape,"5.0 (Macintosh; Intel Mac OS X 10_15_7) AppleWebKit/605.1.15 (KHTML, like Gecko) Version/14.1.2 Safari/605.1.15",xpyriment,legacy,legacy,0,uniform,0,0,0,0,24,24,24,0,0,22,22,22,22,22,0,22,0,,,,,,0,,07-02-22,07-02-22,10:59:05,Mon Mar 07 2022 10:59:05 GMT+0100 (CET),The main experiment item,yes,0,0,C:/Users/rrics/Documents/!!ResearchBMECOGSCI/gnet,0,0,0,prototype5.png,no,mono,no,18,no,black,no,no,768,1184,3.5.6,legacy,xpyriment,osweb,1.3.13,0,k,k,k,,43464,26807,43464,,2,legacy,900,1440,24,900,24,0,0,1440,1646647136514,1024,2,48000,-16,experiment,p5sarrshacol1.png,0,even,MacIntel,139,139082,136072,139,139,332715,334221,327736,140617,327736,139,,,,,,visual_patterns,0,0,0,yes,1366
undefined,undefined,undefined,undefined,white,no,Mozilla,Netscape,"5.0 (Macintosh; Intel Mac OS X 10_15_7) AppleWebKit/605.1.15 (KHTML, like Gecko) Version/14.1.2 Safari/605.1.15",xpyriment,legacy,legacy,0,uniform,0,0,0,0,24,24,24,0,0,23,23,23,23,23,0,23,0,,,,,,0,,07-02-22,07-02-22,10:59:05,Mon Mar 07 2022 10:59:05 GMT+0100 (CET),The main experiment item,yes,0,0,C:/Users/rrics/Documents/!!ResearchBMECOGSCI/gnet,0,0,0,prototype5.png,no,mono,no,18,no,black,no,no,768,1184,3.5.6,legacy,xpyriment,osweb,1.3.13,0,k,k,k,,43464,26807,43464,,2,legacy,900,1440,24,900,24,0,0,1440,1646647136514,1024,2,48000,-16,experiment,prototype2.png,0,even,MacIntel,139,139082,136072,139,139,339236,340747,334256,140617,334256,139,,,,,,visual_patterns,0,0,0,yes,1366
undefined,undefined,undefined,undefined,white,no,Mozilla,Netscape,"5.0 (Macintosh; Intel Mac OS X 10_15_7) AppleWebKit/605.1.15 (KHTML, like Gecko) Version/14.1.2 Safari/605.1.15",xpyriment,legacy,legacy,0,uniform,0,0,0,0,24,24,24,0,0,24,24,24,24,24,0,24,0,,,,,,0,,07-02-22,07-02-22,10:59:05,Mon Mar 07 2022 10:59:05 GMT+0100 (CET),The main experiment item,yes,0,0,C:/Users/rrics/Documents/!!ResearchBMECOGSCI/gnet,0,0,0,prototype5.png,no,mono,no,18,no,black,no,no,768,1184,3.5.6,legacy,xpyriment,osweb,1.3.13,0,k,k,k,,43464,26807,43464,,2,legacy,900,1440,24,900,24,0,0,1440,1646647136514,1024,2,48000,-16,experiment,p4sarrsha2.png,0,even,MacIntel,139,139082,136072,139,139,345770,347274,340789,140617,340789,139,,,,,,visual_patterns,0,0,0,yes,1366
undefined,undefined,undefined,undefined,white,no,Mozilla,Netscape,"5.0 (Macintosh; Intel Mac OS X 10_15_7) AppleWebKit/605.1.15 (KHTML, like Gecko) Version/14.1.2 Safari/605.1.15",xpyriment,legacy,legacy,0,uniform,0,0,0,0,24,24,24,0,0,25,25,25,25,25,0,25,0,,,,,,0,,07-02-22,07-02-22,10:59:05,Mon Mar 07 2022 10:59:05 GMT+0100 (CET),The main experiment item,yes,0,0,C:/Users/rrics/Documents/!!ResearchBMECOGSCI/gnet,0,0,0,prototype5.png,no,mono,no,18,no,black,no,no,768,1184,3.5.6,legacy,xpyriment,osweb,1.3.13,0,k,k,k,,43464,26807,43464,,2,legacy,900,1440,24,900,24,0,0,1440,1646647136514,1024,2,48000,-16,experiment,p9sarr1.png,0,even,MacIntel,139,139082,136072,139,139,352293,353800,347315,140617,347315,139,,,,,,visual_patterns,0,0,0,yes,1366
undefined,undefined,undefined,undefined,white,no,Mozilla,Netscape,"5.0 (Macintosh; Intel Mac OS X 10_15_7) AppleWebKit/605.1.15 (KHTML, like Gecko) Version/14.1.2 Safari/605.1.15",xpyriment,legacy,legacy,0,uniform,0,0,0,0,24,24,24,0,0,26,26,26,26,26,0,26,0,,,,,,0,,07-02-22,07-02-22,10:59:05,Mon Mar 07 2022 10:59:05 GMT+0100 (CET),The main experiment item,yes,0,0,C:/Users/rrics/Documents/!!ResearchBMECOGSCI/gnet,0,0,0,prototype5.png,no,mono,no,18,no,black,no,no,768,1184,3.5.6,legacy,xpyriment,osweb,1.3.13,0,k,k,k,,43464,26807,43464,,2,legacy,900,1440,24,900,24,0,0,1440,1646647136514,1024,2,48000,-16,experiment,prototype1.png,0,even,MacIntel,139,139082,136072,139,139,358818,360326,353836,140617,353836,139,,,,,,visual_patterns,0,0,0,yes,1366
undefined,undefined,undefined,undefined,white,no,Mozilla,Netscape,"5.0 (Macintosh; Intel Mac OS X 10_15_7) AppleWebKit/605.1.15 (KHTML, like Gecko) Version/14.1.2 Safari/605.1.15",xpyriment,legacy,legacy,0,uniform,0,0,0,0,24,24,24,0,0,27,27,27,27,27,0,27,0,,,,,,0,,07-02-22,07-02-22,10:59:05,Mon Mar 07 2022 10:59:05 GMT+0100 (CET),The main experiment item,yes,0,0,C:/Users/rrics/Documents/!!ResearchBMECOGSCI/gnet,0,0,0,prototype5.png,no,mono,no,18,no,black,no,no,768,1184,3.5.6,legacy,xpyriment,osweb,1.3.13,0,k,k,k,,43464,26807,43464,,2,legacy,900,1440,24,900,24,0,0,1440,1646647136514,1024,2,48000,-16,experiment,p4sarrcol1.png,0,even,MacIntel,139,139082,136072,139,139,365350,366868,360368,140617,360368,139,,,,,,visual_patterns,0,0,0,yes,1366
undefined,undefined,undefined,undefined,white,no,Mozilla,Netscape,"5.0 (Macintosh; Intel Mac OS X 10_15_7) AppleWebKit/605.1.15 (KHTML, like Gecko) Version/14.1.2 Safari/605.1.15",xpyriment,legacy,legacy,0,uniform,0,0,0,0,24,24,24,0,0,28,28,28,28,28,0,28,0,,,,,,0,,07-02-22,07-02-22,10:59:05,Mon Mar 07 2022 10:59:05 GMT+0100 (CET),The main experiment item,yes,0,0,C:/Users/rrics/Documents/!!ResearchBMECOGSCI/gnet,0,0,0,prototype5.png,no,mono,no,18,no,black,no,no,768,1184,3.5.6,legacy,xpyriment,osweb,1.3.13,0,k,k,k,,43464,26807,43464,,2,legacy,900,1440,24,900,24,0,0,1440,1646647136514,1024,2,48000,-16,experiment,prototype4.png,0,even,MacIntel,139,139082,136072,139,139,371885,373391,366904,140617,366904,139,,,,,,visual_patterns,0,0,0,yes,1366
undefined,undefined,undefined,undefined,white,no,Mozilla,Netscape,"5.0 (Macintosh; Intel Mac OS X 10_15_7) AppleWebKit/605.1.15 (KHTML, like Gecko) Version/14.1.2 Safari/605.1.15",xpyriment,legacy,legacy,0,uniform,0,0,0,0,24,24,24,0,0,29,29,29,29,29,0,29,0,,,,,,0,,07-02-22,07-02-22,10:59:05,Mon Mar 07 2022 10:59:05 GMT+0100 (CET),The main experiment item,yes,0,0,C:/Users/rrics/Documents/!!ResearchBMECOGSCI/gnet,0,0,0,prototype5.png,no,mono,no,18,no,black,no,no,768,1184,3.5.6,legacy,xpyriment,osweb,1.3.13,0,k,k,k,,43464,26807,43464,,2,legacy,900,1440,24,900,24,0,0,1440,1646647136514,1024,2,48000,-16,experiment,prototype5.png,0,even,MacIntel,139,139082,136072,139,139,378407,379920,373427,140617,373427,139,,,,,,visual_patterns,0,0,0,yes,1366
undefined,undefined,undefined,undefined,white,no,Mozilla,Netscape,"5.0 (Macintosh; Intel Mac OS X 10_15_7) AppleWebKit/605.1.15 (KHTML, like Gecko) Version/14.1.2 Safari/605.1.15",xpyriment,legacy,legacy,0,uniform,0,0,0,0,24,24,24,0,0,30,30,30,30,30,0,30,0,,,,,,0,,07-02-22,07-02-22,10:59:05,Mon Mar 07 2022 10:59:05 GMT+0100 (CET),The main experiment item,yes,0,0,C:/Users/rrics/Documents/!!ResearchBMECOGSCI/gnet,0,0,0,prototype5.png,no,mono,no,18,no,black,no,no,768,1184,3.5.6,legacy,xpyriment,osweb,1.3.13,0,k,k,k,,43464,26807,43464,,2,legacy,900,1440,24,900,24,0,0,1440,1646647136514,1024,2,48000,-16,experiment,p5sarrcol2.png,0,even,MacIntel,139,139082,136072,139,139,384937,386445,379959,140617,379959,139,,,,,,visual_patterns,0,0,0,yes,1366
undefined,undefined,undefined,undefined,white,no,Mozilla,Netscape,"5.0 (Macintosh; Intel Mac OS X 10_15_7) AppleWebKit/605.1.15 (KHTML, like Gecko) Version/14.1.2 Safari/605.1.15",xpyriment,legacy,legacy,0,uniform,0,0,0,0,24,24,24,0,0,31,31,31,31,31,0,31,0,,,,,,0,,07-02-22,07-02-22,10:59:05,Mon Mar 07 2022 10:59:05 GMT+0100 (CET),The main experiment item,yes,0,0,C:/Users/rrics/Documents/!!ResearchBMECOGSCI/gnet,0,0,0,prototype5.png,no,mono,no,18,no,black,no,no,768,1184,3.5.6,legacy,xpyriment,osweb,1.3.13,0,k,k,k,,43464,26807,43464,,2,legacy,900,1440,24,900,24,0,0,1440,1646647136514,1024,2,48000,-16,experiment,p2sarrsha2.png,0,even,MacIntel,139,139082,136072,139,139,391464,392972,386484,140617,386484,139,,,,,,visual_patterns,0,0,0,yes,1366
undefined,undefined,undefined,undefined,white,no,Mozilla,Netscape,"5.0 (Macintosh; Intel Mac OS X 10_15_7) AppleWebKit/605.1.15 (KHTML, like Gecko) Version/14.1.2 Safari/605.1.15",xpyriment,legacy,legacy,0,uniform,0,0,0,0,24,24,24,0,0,32,32,32,32,32,0,32,0,,,,,,0,,07-02-22,07-02-22,10:59:05,Mon Mar 07 2022 10:59:05 GMT+0100 (CET),The main experiment item,yes,0,0,C:/Users/rrics/Documents/!!ResearchBMECOGSCI/gnet,0,0,0,prototype5.png,no,mono,no,18,no,black,no,no,768,1184,3.5.6,legacy,xpyriment,osweb,1.3.13,0,k,k,k,,43464,26807,43464,,2,legacy,900,1440,24,900,24,0,0,1440,1646647136514,1024,2,48000,-16,experiment,p5sarr1.png,0,even,MacIntel,139,139082,136072,139,139,397987,399498,393010,140617,393010,139,,,,,,visual_patterns,0,0,0,yes,1366
undefined,undefined,undefined,undefined,white,no,Mozilla,Netscape,"5.0 (Macintosh; Intel Mac OS X 10_15_7) AppleWebKit/605.1.15 (KHTML, like Gecko) Version/14.1.2 Safari/605.1.15",xpyriment,legacy,legacy,0,uniform,0,0,0,0,24,24,24,0,0,33,33,33,33,33,0,33,0,,,,,,0,,07-02-22,07-02-22,10:59:05,Mon Mar 07 2022 10:59:05 GMT+0100 (CET),The main experiment item,yes,0,0,C:/Users/rrics/Documents/!!ResearchBMECOGSCI/gnet,0,0,0,prototype5.png,no,mono,no,18,no,black,no,no,768,1184,3.5.6,legacy,xpyriment,osweb,1.3.13,0,k,k,k,,43464,26807,43464,,2,legacy,900,1440,24,900,24,0,0,1440,1646647136514,1024,2,48000,-16,experiment,p3sarrshacol1.png,0,even,MacIntel,139,139082,136072,139,139,404551,406059,399538,140617,399538,139,,,,,,visual_patterns,0,0,0,yes,1366
undefined,undefined,undefined,undefined,white,no,Mozilla,Netscape,"5.0 (Macintosh; Intel Mac OS X 10_15_7) AppleWebKit/605.1.15 (KHTML, like Gecko) Version/14.1.2 Safari/605.1.15",xpyriment,legacy,legacy,0,uniform,0,0,0,0,24,24,24,0,0,34,34,34,34,34,0,34,0,,,,,,0,,07-02-22,07-02-22,10:59:05,Mon Mar 07 2022 10:59:05 GMT+0100 (CET),The main experiment item,yes,0,0,C:/Users/rrics/Documents/!!ResearchBMECOGSCI/gnet,0,0,0,prototype5.png,no,mono,no,18,no,black,no,no,768,1184,3.5.6,legacy,xpyriment,osweb,1.3.13,0,k,k,k,,43464,26807,43464,,2,legacy,900,1440,24,900,24,0,0,1440,1646647136514,1024,2,48000,-16,experiment,prototype1.png,0,even,MacIntel,139,139082,136072,139,139,411075,412587,406094,140617,406094,139,,,,,,visual_patterns,0,0,0,yes,1366
undefined,undefined,undefined,undefined,white,no,Mozilla,Netscape,"5.0 (Macintosh; Intel Mac OS X 10_15_7) AppleWebKit/605.1.15 (KHTML, like Gecko) Version/14.1.2 Safari/605.1.15",xpyriment,legacy,legacy,0,uniform,0,0,0,0,24,24,24,0,0,35,35,35,35,35,0,35,0,,,,,,0,,07-02-22,07-02-22,10:59:05,Mon Mar 07 2022 10:59:05 GMT+0100 (CET),The main experiment item,yes,0,0,C:/Users/rrics/Documents/!!ResearchBMECOGSCI/gnet,0,0,0,prototype5.png,no,mono,no,18,no,black,no,no,768,1184,3.5.6,legacy,xpyriment,osweb,1.3.13,0,k,k,k,,43464,26807,43464,,2,legacy,900,1440,24,900,24,0,0,1440,1646647136514,1024,2,48000,-16,experiment,p4sarrshacol1.png,0,even,MacIntel,139,139082,136072,139,139,417603,419112,412625,140617,412625,139,,,,,,visual_patterns,0,0,0,yes,1366
undefined,undefined,undefined,undefined,white,no,Mozilla,Netscape,"5.0 (Macintosh; Intel Mac OS X 10_15_7) AppleWebKit/605.1.15 (KHTML, like Gecko) Version/14.1.2 Safari/605.1.15",xpyriment,legacy,legacy,0,uniform,0,0,0,0,24,24,24,0,0,36,36,36,36,36,0,36,0,,,,,,0,,07-02-22,07-02-22,10:59:05,Mon Mar 07 2022 10:59:05 GMT+0100 (CET),The main experiment item,yes,0,0,C:/Users/rrics/Documents/!!ResearchBMECOGSCI/gnet,0,0,0,prototype5.png,no,mono,no,18,no,black,no,no,768,1184,3.5.6,legacy,xpyriment,osweb,1.3.13,0,k,k,k,,43464,26807,43464,,2,legacy,900,1440,24,900,24,0,0,1440,1646647136514,1024,2,48000,-16,experiment,prototype3.png,0,even,MacIntel,139,139082,136072,139,139,424131,425636,419151,140617,419151,139,,,,,,visual_patterns,0,0,0,yes,1366
undefined,undefined,undefined,undefined,white,no,Mozilla,Netscape,"5.0 (Macintosh; Intel Mac OS X 10_15_7) AppleWebKit/605.1.15 (KHTML, like Gecko) Version/14.1.2 Safari/605.1.15",xpyriment,legacy,legacy,0,uniform,0,0,0,0,24,24,24,0,0,37,37,37,37,37,0,37,0,,,,,,0,,07-02-22,07-02-22,10:59:05,Mon Mar 07 2022 10:59:05 GMT+0100 (CET),The main experiment item,yes,0,0,C:/Users/rrics/Documents/!!ResearchBMECOGSCI/gnet,0,0,0,prototype5.png,no,mono,no,18,no,black,no,no,768,1184,3.5.6,legacy,xpyriment,osweb,1.3.13,0,k,k,k,,43464,26807,43464,,2,legacy,900,1440,24,900,24,0,0,1440,1646647136514,1024,2,48000,-16,experiment,prototype3.png,0,even,MacIntel,139,139082,136072,139,139,430655,432164,425671,140617,425671,139,,,,,,visual_patterns,0,0,0,yes,1366
undefined,undefined,undefined,undefined,white,no,Mozilla,Netscape,"5.0 (Macintosh; Intel Mac OS X 10_15_7) AppleWebKit/605.1.15 (KHTML, like Gecko) Version/14.1.2 Safari/605.1.15",xpyriment,legacy,legacy,0,uniform,0,0,0,0,24,24,24,0,0,38,38,38,38,38,0,38,0,,,,,,0,,07-02-22,07-02-22,10:59:05,Mon Mar 07 2022 10:59:05 GMT+0100 (CET),The main experiment item,yes,0,0,C:/Users/rrics/Documents/!!ResearchBMECOGSCI/gnet,0,0,0,prototype5.png,no,mono,no,18,no,black,no,no,768,1184,3.5.6,legacy,xpyriment,osweb,1.3.13,0,k,k,k,,43464,26807,43464,,2,legacy,900,1440,24,900,24,0,0,1440,1646647136514,1024,2,48000,-16,experiment,p7sarr1.png,0,even,MacIntel,139,139082,136072,139,139,437181,438691,432203,140617,432203,139,,,,,,visual_patterns,0,0,0,yes,1366
undefined,undefined,undefined,undefined,white,no,Mozilla,Netscape,"5.0 (Macintosh; Intel Mac OS X 10_15_7) AppleWebKit/605.1.15 (KHTML, like Gecko) Version/14.1.2 Safari/605.1.15",xpyriment,legacy,legacy,0,uniform,0,0,0,0,24,24,24,0,0,39,39,39,39,39,0,39,0,,,,,,0,,07-02-22,07-02-22,10:59:05,Mon Mar 07 2022 10:59:05 GMT+0100 (CET),The main experiment item,yes,0,0,C:/Users/rrics/Documents/!!ResearchBMECOGSCI/gnet,0,0,0,prototype5.png,no,mono,no,18,no,black,no,no,768,1184,3.5.6,legacy,xpyriment,osweb,1.3.13,0,k,k,k,,43464,26807,43464,,2,legacy,900,1440,24,900,24,0,0,1440,1646647136514,1024,2,48000,-16,experiment,p1sarrsha1.png,0,even,MacIntel,139,139082,136072,139,139,443711,445216,438733,140617,438733,139,,,,,,visual_patterns,0,0,0,yes,1366
undefined,undefined,undefined,undefined,white,no,Mozilla,Netscape,"5.0 (Macintosh; Intel Mac OS X 10_15_7) AppleWebKit/605.1.15 (KHTML, like Gecko) Version/14.1.2 Safari/605.1.15",xpyriment,legacy,legacy,0,uniform,0,0,0,0,24,24,24,0,0,40,40,40,40,40,0,40,0,,,,,,0,,07-02-22,07-02-22,10:59:05,Mon Mar 07 2022 10:59:05 GMT+0100 (CET),The main experiment item,yes,0,0,C:/Users/rrics/Documents/!!ResearchBMECOGSCI/gnet,0,0,0,prototype5.png,no,mono,no,18,no,black,no,no,768,1184,3.5.6,legacy,xpyriment,osweb,1.3.13,0,k,k,k,,43464,26807,43464,,2,legacy,900,1440,24,900,24,0,0,1440,1646647136514,1024,2,48000,-16,experiment,prototype5.png,0,even,MacIntel,139,139082,136072,139,139,450234,451740,445253,140617,445253,139,,,,,,visual_patterns,0,0,0,yes,1366
undefined,undefined,undefined,undefined,white,no,Mozilla,Netscape,"5.0 (Macintosh; Intel Mac OS X 10_15_7) AppleWebKit/605.1.15 (KHTML, like Gecko) Version/14.1.2 Safari/605.1.15",xpyriment,legacy,legacy,0,uniform,0,0,0,0,24,24,24,0,0,41,41,41,41,41,0,41,0,,,,,,0,,07-02-22,07-02-22,10:59:05,Mon Mar 07 2022 10:59:05 GMT+0100 (CET),The main experiment item,yes,0,0,C:/Users/rrics/Documents/!!ResearchBMECOGSCI/gnet,0,0,0,prototype5.png,no,mono,no,18,no,black,no,no,768,1184,3.5.6,legacy,xpyriment,osweb,1.3.13,0,k,k,k,,43464,26807,43464,,2,legacy,900,1440,24,900,24,0,0,1440,1646647136514,1024,2,48000,-16,experiment,p3sarrshacol2.png,0,even,MacIntel,139,139082,136072,139,139,456755,458266,451774,140617,451774,139,,,,,,visual_patterns,0,0,0,yes,1366
undefined,undefined,undefined,undefined,white,no,Mozilla,Netscape,"5.0 (Macintosh; Intel Mac OS X 10_15_7) AppleWebKit/605.1.15 (KHTML, like Gecko) Version/14.1.2 Safari/605.1.15",xpyriment,legacy,legacy,0,uniform,0,0,0,0,24,24,24,0,0,42,42,42,42,42,0,42,0,,,,,,0,,07-02-22,07-02-22,10:59:05,Mon Mar 07 2022 10:59:05 GMT+0100 (CET),The main experiment item,yes,0,0,C:/Users/rrics/Documents/!!ResearchBMECOGSCI/gnet,0,0,0,prototype5.png,no,mono,no,18,no,black,no,no,768,1184,3.5.6,legacy,xpyriment,osweb,1.3.13,0,k,k,k,,43464,26807,43464,,2,legacy,900,1440,24,900,24,0,0,1440,1646647136514,1024,2,48000,-16,experiment,p3sarrcol2.png,0,even,MacIntel,139,139082,136072,139,139,463289,464794,458309,140617,458309,139,,,,,,visual_patterns,0,0,0,yes,1366
undefined,undefined,undefined,undefined,white,no,Mozilla,Netscape,"5.0 (Macintosh; Intel Mac OS X 10_15_7) AppleWebKit/605.1.15 (KHTML, like Gecko) Version/14.1.2 Safari/605.1.15",xpyriment,legacy,legacy,0,uniform,0,0,0,0,24,24,24,0,0,43,43,43,43,43,0,43,0,,,,,,0,,07-02-22,07-02-22,10:59:05,Mon Mar 07 2022 10:59:05 GMT+0100 (CET),The main experiment item,yes,0,0,C:/Users/rrics/Documents/!!ResearchBMECOGSCI/gnet,0,0,0,prototype5.png,no,mono,no,18,no,black,no,no,768,1184,3.5.6,legacy,xpyriment,osweb,1.3.13,0,k,k,k,,43464,26807,43464,,2,legacy,900,1440,24,900,24,0,0,1440,1646647136514,1024,2,48000,-16,experiment,p3sarr2.png,0,even,MacIntel,139,139082,136072,139,139,469811,471321,464833,140617,464833,139,,,,,,visual_patterns,0,0,0,yes,1366
undefined,undefined,undefined,undefined,white,no,Mozilla,Netscape,"5.0 (Macintosh; Intel Mac OS X 10_15_7) AppleWebKit/605.1.15 (KHTML, like Gecko) Version/14.1.2 Safari/605.1.15",xpyriment,legacy,legacy,0,uniform,0,0,0,0,24,24,24,0,0,44,44,44,44,44,0,44,0,,,,,,0,,07-02-22,07-02-22,10:59:05,Mon Mar 07 2022 10:59:05 GMT+0100 (CET),The main experiment item,yes,0,0,C:/Users/rrics/Documents/!!ResearchBMECOGSCI/gnet,0,0,0,prototype5.png,no,mono,no,18,no,black,no,no,768,1184,3.5.6,legacy,xpyriment,osweb,1.3.13,0,k,k,k,,43464,26807,43464,,2,legacy,900,1440,24,900,24,0,0,1440,1646647136514,1024,2,48000,-16,experiment,p2sarrsha1.png,0,even,MacIntel,139,139082,136072,139,139,476339,477847,471360,140617,471360,139,,,,,,visual_patterns,0,0,0,yes,1366
undefined,undefined,undefined,undefined,white,no,Mozilla,Netscape,"5.0 (Macintosh; Intel Mac OS X 10_15_7) AppleWebKit/605.1.15 (KHTML, like Gecko) Version/14.1.2 Safari/605.1.15",xpyriment,legacy,legacy,0,uniform,0,0,0,0,24,24,24,0,0,45,45,45,45,45,0,45,0,,,,,,0,,07-02-22,07-02-22,10:59:05,Mon Mar 07 2022 10:59:05 GMT+0100 (CET),The main experiment item,yes,0,0,C:/Users/rrics/Documents/!!ResearchBMECOGSCI/gnet,0,0,0,prototype5.png,no,mono,no,18,no,black,no,no,768,1184,3.5.6,legacy,xpyriment,osweb,1.3.13,0,k,k,k,,43464,26807,43464,,2,legacy,900,1440,24,900,24,0,0,1440,1646647136514,1024,2,48000,-16,experiment,p4sarrsha1.png,0,even,MacIntel,139,139082,136072,139,139,482864,484374,477886,140617,477886,139,,,,,,visual_patterns,0,0,0,yes,1366
undefined,undefined,undefined,undefined,white,no,Mozilla,Netscape,"5.0 (Macintosh; Intel Mac OS X 10_15_7) AppleWebKit/605.1.15 (KHTML, like Gecko) Version/14.1.2 Safari/605.1.15",xpyriment,legacy,legacy,0,uniform,0,0,0,0,24,24,24,0,0,46,46,46,46,46,0,46,0,,,,,,0,,07-02-22,07-02-22,10:59:05,Mon Mar 07 2022 10:59:05 GMT+0100 (CET),The main experiment item,yes,0,0,C:/Users/rrics/Documents/!!ResearchBMECOGSCI/gnet,0,0,0,prototype5.png,no,mono,no,18,no,black,no,no,768,1184,3.5.6,legacy,xpyriment,osweb,1.3.13,0,k,k,k,,43464,26807,43464,,2,legacy,900,1440,24,900,24,0,0,1440,1646647136514,1024,2,48000,-16,experiment,p1sarrcol1.png,0,even,MacIntel,139,139082,136072,139,139,489396,490902,484415,140617,484415,139,,,,,,visual_patterns,0,0,0,yes,1366
undefined,undefined,undefined,undefined,white,no,Mozilla,Netscape,"5.0 (Macintosh; Intel Mac OS X 10_15_7) AppleWebKit/605.1.15 (KHTML, like Gecko) Version/14.1.2 Safari/605.1.15",xpyriment,legacy,legacy,0,uniform,0,0,0,0,24,24,24,0,0,47,47,47,47,47,0,47,0,,,,,,0,,07-02-22,07-02-22,10:59:05,Mon Mar 07 2022 10:59:05 GMT+0100 (CET),The main experiment item,yes,0,0,C:/Users/rrics/Documents/!!ResearchBMECOGSCI/gnet,0,0,0,prototype5.png,no,mono,no,18,no,black,no,no,768,1184,3.5.6,legacy,xpyriment,osweb,1.3.13,0,k,k,k,,43464,26807,43464,,2,legacy,900,1440,24,900,24,0,0,1440,1646647136514,1024,2,48000,-16,experiment,p1sarrsha2.png,0,even,MacIntel,139,139082,136072,139,139,495920,497425,490940,140617,490940,139,,,,,,visual_patterns,0,0,0,yes,1366
undefined,undefined,undefined,undefined,white,no,Mozilla,Netscape,"5.0 (Macintosh; Intel Mac OS X 10_15_7) AppleWebKit/605.1.15 (KHTML, like Gecko) Version/14.1.2 Safari/605.1.15",xpyriment,legacy,legacy,0,uniform,0,0,0,0,24,24,24,0,0,48,48,48,48,48,0,48,0,,,,,,0,,07-02-22,07-02-22,10:59:05,Mon Mar 07 2022 10:59:05 GMT+0100 (CET),The main experiment item,yes,0,0,C:/Users/rrics/Documents/!!ResearchBMECOGSCI/gnet,0,0,0,prototype5.png,no,mono,no,18,no,black,no,no,768,1184,3.5.6,legacy,xpyriment,osweb,1.3.13,0,k,k,k,,43464,26807,43464,,2,legacy,900,1440,24,900,24,0,0,1440,1646647136514,1024,2,48000,-16,experiment,p7sarr2.png,0,even,MacIntel,139,139082,136072,139,139,502441,503951,497465,140617,497465,139,,,,,,visual_patterns,0,0,0,yes,1366
undefined,undefined,undefined,undefined,white,no,Mozilla,Netscape,"5.0 (Macintosh; Intel Mac OS X 10_15_7) AppleWebKit/605.1.15 (KHTML, like Gecko) Version/14.1.2 Safari/605.1.15",xpyriment,legacy,legacy,0,uniform,0,0,0,0,24,24,24,0,0,49,49,49,49,49,0,49,0,,,,,,0,,07-02-22,07-02-22,10:59:05,Mon Mar 07 2022 10:59:05 GMT+0100 (CET),The main experiment item,yes,0,0,C:/Users/rrics/Documents/!!ResearchBMECOGSCI/gnet,0,0,0,prototype5.png,no,mono,no,18,no,black,no,no,768,1184,3.5.6,legacy,xpyriment,osweb,1.3.13,0,k,k,k,,43464,26807,43464,,2,legacy,900,1440,24,900,24,0,0,1440,1646647136514,1024,2,48000,-16,experiment,p4sarr1.png,0,even,MacIntel,139,139082,136072,139,139,508975,510479,503993,140617,503993,139,,,,,,visual_patterns,0,0,0,yes,1366
undefined,undefined,undefined,undefined,white,no,Mozilla,Netscape,"5.0 (Macintosh; Intel Mac OS X 10_15_7) AppleWebKit/605.1.15 (KHTML, like Gecko) Version/14.1.2 Safari/605.1.15",xpyriment,legacy,legacy,0,uniform,0,0,0,0,24,24,24,0,0,50,50,50,50,50,0,50,0,,,,,,0,,07-02-22,07-02-22,10:59:05,Mon Mar 07 2022 10:59:05 GMT+0100 (CET),The main experiment item,yes,0,0,C:/Users/rrics/Documents/!!ResearchBMECOGSCI/gnet,0,0,0,prototype5.png,no,mono,no,18,no,black,no,no,768,1184,3.5.6,legacy,xpyriment,osweb,1.3.13,0,k,k,k,,43464,26807,43464,,2,legacy,900,1440,24,900,24,0,0,1440,1646647136514,1024,2,48000,-16,experiment,p10sarr1.png,0,even,MacIntel,139,139082,136072,139,139,515501,517006,510521,140617,510521,139,,,,,,visual_patterns,0,0,0,yes,1366
undefined,undefined,undefined,undefined,white,no,Mozilla,Netscape,"5.0 (Macintosh; Intel Mac OS X 10_15_7) AppleWebKit/605.1.15 (KHTML, like Gecko) Version/14.1.2 Safari/605.1.15",xpyriment,legacy,legacy,0,uniform,0,0,0,0,24,24,24,0,0,51,51,51,51,51,0,51,0,,,,,,0,,07-02-22,07-02-22,10:59:05,Mon Mar 07 2022 10:59:05 GMT+0100 (CET),The main experiment item,yes,0,0,C:/Users/rrics/Documents/!!ResearchBMECOGSCI/gnet,0,0,0,prototype5.png,no,mono,no,18,no,black,no,no,768,1184,3.5.6,legacy,xpyriment,osweb,1.3.13,0,k,k,k,,43464,26807,43464,,2,legacy,900,1440,24,900,24,0,0,1440,1646647136514,1024,2,48000,-16,experiment,prototype3.png,0,even,MacIntel,139,139082,136072,139,139,522023,523530,517043,140617,517043,139,,,,,,visual_patterns,0,0,0,yes,1366
undefined,undefined,undefined,undefined,white,no,Mozilla,Netscape,"5.0 (Macintosh; Intel Mac OS X 10_15_7) AppleWebKit/605.1.15 (KHTML, like Gecko) Version/14.1.2 Safari/605.1.15",xpyriment,legacy,legacy,0,uniform,0,0,0,0,24,24,24,0,0,52,52,52,52,52,0,52,0,,,,,,0,,07-02-22,07-02-22,10:59:05,Mon Mar 07 2022 10:59:05 GMT+0100 (CET),The main experiment item,yes,0,0,C:/Users/rrics/Documents/!!ResearchBMECOGSCI/gnet,0,0,0,prototype5.png,no,mono,no,18,no,black,no,no,768,1184,3.5.6,legacy,xpyriment,osweb,1.3.13,0,k,k,k,,43464,26807,43464,,2,legacy,900,1440,24,900,24,0,0,1440,1646647136514,1024,2,48000,-16,experiment,p1sarr1.png,0,even,MacIntel,139,139082,136072,139,139,528548,530059,523569,140617,523569,139,,,,,,visual_patterns,0,0,0,yes,1366
undefined,undefined,undefined,undefined,white,no,Mozilla,Netscape,"5.0 (Macintosh; Intel Mac OS X 10_15_7) AppleWebKit/605.1.15 (KHTML, like Gecko) Version/14.1.2 Safari/605.1.15",xpyriment,legacy,legacy,0,uniform,0,0,0,0,24,24,24,0,0,53,53,53,53,53,0,53,0,,,,,,0,,07-02-22,07-02-22,10:59:05,Mon Mar 07 2022 10:59:05 GMT+0100 (CET),The main experiment item,yes,0,0,C:/Users/rrics/Documents/!!ResearchBMECOGSCI/gnet,0,0,0,prototype5.png,no,mono,no,18,no,black,no,no,768,1184,3.5.6,legacy,xpyriment,osweb,1.3.13,0,k,k,k,,43464,26807,43464,,2,legacy,900,1440,24,900,24,0,0,1440,1646647136514,1024,2,48000,-16,experiment,p1sarrcol2.png,0,even,MacIntel,139,139082,136072,139,139,535080,536587,530099,140617,530099,139,,,,,,visual_patterns,0,0,0,yes,1366
undefined,undefined,undefined,undefined,white,no,Mozilla,Netscape,"5.0 (Macintosh; Intel Mac OS X 10_15_7) AppleWebKit/605.1.15 (KHTML, like Gecko) Version/14.1.2 Safari/605.1.15",xpyriment,legacy,legacy,0,uniform,0,0,0,0,24,24,24,0,0,54,54,54,54,54,0,54,0,,,,,,0,,07-02-22,07-02-22,10:59:05,Mon Mar 07 2022 10:59:05 GMT+0100 (CET),The main experiment item,yes,0,0,C:/Users/rrics/Documents/!!ResearchBMECOGSCI/gnet,0,0,0,prototype5.png,no,mono,no,18,no,black,no,no,768,1184,3.5.6,legacy,xpyriment,osweb,1.3.13,0,k,k,k,,43464,26807,43464,,2,legacy,900,1440,24,900,24,0,0,1440,1646647136514,1024,2,48000,-16,experiment,p2sarrcol2.png,0,even,MacIntel,139,139082,136072,139,139,541605,543110,536626,140617,536626,139,,,,,,visual_patterns,0,0,0,yes,1366
undefined,undefined,undefined,undefined,white,no,Mozilla,Netscape,"5.0 (Macintosh; Intel Mac OS X 10_15_7) AppleWebKit/605.1.15 (KHTML, like Gecko) Version/14.1.2 Safari/605.1.15",xpyriment,legacy,legacy,0,uniform,0,0,0,0,24,24,24,0,0,55,55,55,55,55,0,55,0,,,,,,0,,07-02-22,07-02-22,10:59:05,Mon Mar 07 2022 10:59:05 GMT+0100 (CET),The main experiment item,yes,0,0,C:/Users/rrics/Documents/!!ResearchBMECOGSCI/gnet,0,0,0,prototype5.png,no,mono,no,18,no,black,no,no,768,1184,3.5.6,legacy,xpyriment,osweb,1.3.13,0,k,k,k,,43464,26807,43464,,2,legacy,900,1440,24,900,24,0,0,1440,1646647136514,1024,2,48000,-16,experiment,prototype4.png,0,even,MacIntel,139,139082,136072,139,139,548128,549641,543146,140617,543146,139,,,,,,visual_patterns,0,0,0,yes,1366
undefined,undefined,undefined,undefined,white,no,Mozilla,Netscape,"5.0 (Macintosh; Intel Mac OS X 10_15_7) AppleWebKit/605.1.15 (KHTML, like Gecko) Version/14.1.2 Safari/605.1.15",xpyriment,legacy,legacy,0,uniform,0,0,0,0,24,24,24,0,0,56,56,56,56,56,0,56,0,,,,,,0,,07-02-22,07-02-22,10:59:05,Mon Mar 07 2022 10:59:05 GMT+0100 (CET),The main experiment item,yes,0,0,C:/Users/rrics/Documents/!!ResearchBMECOGSCI/gnet,0,0,0,prototype5.png,no,mono,no,18,no,black,no,no,768,1184,3.5.6,legacy,xpyriment,osweb,1.3.13,0,k,k,k,,43464,26807,43464,,2,legacy,900,1440,24,900,24,0,0,1440,1646647136514,1024,2,48000,-16,experiment,p2sarrshacol1.png,0,even,MacIntel,139,139082,136072,139,139,554661,556167,549683,140617,549683,139,,,,,,visual_patterns,0,0,0,yes,1366
undefined,undefined,undefined,undefined,white,no,Mozilla,Netscape,"5.0 (Macintosh; Intel Mac OS X 10_15_7) AppleWebKit/605.1.15 (KHTML, like Gecko) Version/14.1.2 Safari/605.1.15",xpyriment,legacy,legacy,0,uniform,0,0,0,0,24,24,24,0,0,57,57,57,57,57,0,57,0,,,,,,0,,07-02-22,07-02-22,10:59:05,Mon Mar 07 2022 10:59:05 GMT+0100 (CET),The main experiment item,yes,0,0,C:/Users/rrics/Documents/!!ResearchBMECOGSCI/gnet,0,0,0,prototype5.png,no,mono,no,18,no,black,no,no,768,1184,3.5.6,legacy,xpyriment,osweb,1.3.13,0,k,k,k,,43464,26807,43464,,2,legacy,900,1440,24,900,24,0,0,1440,1646647136514,1024,2,48000,-16,experiment,prototype5.png,0,even,MacIntel,139,139082,136072,139,139,561189,562690,556209,140617,556209,139,,,,,,visual_patterns,0,0,0,yes,1366
undefined,undefined,undefined,undefined,white,no,Mozilla,Netscape,"5.0 (Macintosh; Intel Mac OS X 10_15_7) AppleWebKit/605.1.15 (KHTML, like Gecko) Version/14.1.2 Safari/605.1.15",xpyriment,legacy,legacy,0,uniform,0,0,0,0,24,24,24,0,0,58,58,58,58,58,0,58,0,,,,,,0,,07-02-22,07-02-22,10:59:05,Mon Mar 07 2022 10:59:05 GMT+0100 (CET),The main experiment item,yes,0,0,C:/Users/rrics/Documents/!!ResearchBMECOGSCI/gnet,0,0,0,prototype5.png,no,mono,no,18,no,black,no,no,768,1184,3.5.6,legacy,xpyriment,osweb,1.3.13,0,k,k,k,,43464,26807,43464,,2,legacy,900,1440,24,900,24,0,0,1440,1646647136514,1024,2,48000,-16,experiment,prototype2.png,0,even,MacIntel,139,139082,136072,139,139,567711,569220,562727,140617,562727,139,,,,,,visual_patterns,0,0,0,yes,1366
undefined,undefined,undefined,undefined,white,no,Mozilla,Netscape,"5.0 (Macintosh; Intel Mac OS X 10_15_7) AppleWebKit/605.1.15 (KHTML, like Gecko) Version/14.1.2 Safari/605.1.15",xpyriment,legacy,legacy,0,uniform,0,0,0,0,24,24,24,0,0,59,59,59,59,59,0,59,0,,,,,,0,,07-02-22,07-02-22,10:59:05,Mon Mar 07 2022 10:59:05 GMT+0100 (CET),The main experiment item,yes,0,0,C:/Users/rrics/Documents/!!ResearchBMECOGSCI/gnet,0,0,0,prototype5.png,no,mono,no,18,no,black,no,no,768,1184,3.5.6,legacy,xpyriment,osweb,1.3.13,0,k,k,k,,43464,26807,43464,,2,legacy,900,1440,24,900,24,0,0,1440,1646647136514,1024,2,48000,-16,experiment,prototype5.png,0,even,MacIntel,139,139082,136072,139,139,574240,575745,569259,140617,569259,139,,,,,,visual_patterns,0,0,0,yes,1366
undefined,undefined,undefined,undefined,white,no,Mozilla,Netscape,"5.0 (Macintosh; Intel Mac OS X 10_15_7) AppleWebKit/605.1.15 (KHTML, like Gecko) Version/14.1.2 Safari/605.1.15",xpyriment,legacy,legacy,0,uniform,0,0,0,0,24,24,24,0,0,60,60,60,60,60,0,60,0,,,,,,0,,07-02-22,07-02-22,10:59:05,Mon Mar 07 2022 10:59:05 GMT+0100 (CET),The main experiment item,yes,0,0,C:/Users/rrics/Documents/!!ResearchBMECOGSCI/gnet,0,0,0,prototype5.png,no,mono,no,18,no,black,no,no,768,1184,3.5.6,legacy,xpyriment,osweb,1.3.13,0,k,k,k,,43464,26807,43464,,2,legacy,900,1440,24,900,24,0,0,1440,1646647136514,1024,2,48000,-16,experiment,p1sarrshacol2.png,0,even,MacIntel,139,139082,136072,139,139,580762,582269,575782,140617,575782,139,,,,,,visual_patterns,0,0,0,yes,1366
undefined,undefined,undefined,undefined,white,no,Mozilla,Netscape,"5.0 (Macintosh; Intel Mac OS X 10_15_7) AppleWebKit/605.1.15 (KHTML, like Gecko) Version/14.1.2 Safari/605.1.15",xpyriment,legacy,legacy,0,uniform,0,0,0,0,24,24,24,0,0,61,61,61,61,61,0,61,0,,,,,,0,,07-02-22,07-02-22,10:59:05,Mon Mar 07 2022 10:59:05 GMT+0100 (CET),The main experiment item,yes,0,0,C:/Users/rrics/Documents/!!ResearchBMECOGSCI/gnet,0,0,0,prototype5.png,no,mono,no,18,no,black,no,no,768,1184,3.5.6,legacy,xpyriment,osweb,1.3.13,0,k,k,k,,43464,26807,43464,,2,legacy,900,1440,24,900,24,0,0,1440,1646647136514,1024,2,48000,-16,experiment,p2sarrcol1.png,0,even,MacIntel,139,139082,136072,139,139,587288,588795,582309,140617,582309,139,,,,,,visual_patterns,0,0,0,yes,1366
undefined,undefined,undefined,undefined,white,no,Mozilla,Netscape,"5.0 (Macintosh; Intel Mac OS X 10_15_7) AppleWebKit/605.1.15 (KHTML, like Gecko) Version/14.1.2 Safari/605.1.15",xpyriment,legacy,legacy,0,uniform,0,0,0,0,24,24,24,0,0,62,62,62,62,62,0,62,0,,,,,,0,,07-02-22,07-02-22,10:59:05,Mon Mar 07 2022 10:59:05 GMT+0100 (CET),The main experiment item,yes,0,0,C:/Users/rrics/Documents/!!ResearchBMECOGSCI/gnet,0,0,0,prototype5.png,no,mono,no,18,no,black,no,no,768,1184,3.5.6,legacy,xpyriment,osweb,1.3.13,0,k,k,k,,43464,26807,43464,,2,legacy,900,1440,24,900,24,0,0,1440,1646647136514,1024,2,48000,-16,experiment,p5sarr2.png,0,even,MacIntel,139,139082,136072,139,139,593816,595322,588835,140617,588834,139,,,,,,visual_patterns,0,0,0,yes,1366
undefined,undefined,undefined,undefined,white,no,Mozilla,Netscape,"5.0 (Macintosh; Intel Mac OS X 10_15_7) AppleWebKit/605.1.15 (KHTML, like Gecko) Version/14.1.2 Safari/605.1.15",xpyriment,legacy,legacy,0,uniform,0,0,0,0,24,24,24,0,0,63,63,63,63,63,0,63,0,,,,,,0,,07-02-22,07-02-22,10:59:05,Mon Mar 07 2022 10:59:05 GMT+0100 (CET),The main experiment item,yes,0,0,C:/Users/rrics/Documents/!!ResearchBMECOGSCI/gnet,0,0,0,prototype5.png,no,mono,no,18,no,black,no,no,768,1184,3.5.6,legacy,xpyriment,osweb,1.3.13,0,k,k,k,,43464,26807,43464,,2,legacy,900,1440,24,900,24,0,0,1440,1646647136514,1024,2,48000,-16,experiment,p10sarr2.png,0,even,MacIntel,139,139082,136072,139,139,600344,601849,595363,140617,595363,139,,,,,,visual_patterns,0,0,0,yes,1366
undefined,undefined,undefined,undefined,white,no,Mozilla,Netscape,"5.0 (Macintosh; Intel Mac OS X 10_15_7) AppleWebKit/605.1.15 (KHTML, like Gecko) Version/14.1.2 Safari/605.1.15",xpyriment,legacy,legacy,0,uniform,0,0,0,0,24,24,24,0,0,64,64,64,64,64,0,64,0,,,,,,0,,07-02-22,07-02-22,10:59:05,Mon Mar 07 2022 10:59:05 GMT+0100 (CET),The main experiment item,yes,0,0,C:/Users/rrics/Documents/!!ResearchBMECOGSCI/gnet,0,0,0,prototype5.png,no,mono,no,18,no,black,no,no,768,1184,3.5.6,legacy,xpyriment,osweb,1.3.13,0,k,k,k,,43464,26807,43464,,2,legacy,900,1440,24,900,24,0,0,1440,1646647136514,1024,2,48000,-16,experiment,prototype1.png,0,even,MacIntel,139,139082,136072,139,139,606864,608371,601885,140617,601885,139,,,,,,visual_patterns,0,0,0,yes,1366
undefined,undefined,undefined,undefined,white,no,Mozilla,Netscape,"5.0 (Macintosh; Intel Mac OS X 10_15_7) AppleWebKit/605.1.15 (KHTML, like Gecko) Version/14.1.2 Safari/605.1.15",xpyriment,legacy,legacy,0,uniform,0,0,0,0,24,24,24,0,0,65,65,65,65,65,0,65,0,,,,,,0,,07-02-22,07-02-22,10:59:05,Mon Mar 07 2022 10:59:05 GMT+0100 (CET),The main experiment item,yes,0,0,C:/Users/rrics/Documents/!!ResearchBMECOGSCI/gnet,0,0,0,prototype5.png,no,mono,no,18,no,black,no,no,768,1184,3.5.6,legacy,xpyriment,osweb,1.3.13,0,k,k,k,,43464,26807,43464,,2,legacy,900,1440,24,900,24,0,0,1440,1646647136514,1024,2,48000,-16,experiment,prototype4.png,0,even,MacIntel,139,139082,136072,139,139,613385,614899,608406,140617,608406,139,,,,,,visual_patterns,0,0,0,yes,1366
undefined,undefined,undefined,undefined,white,no,Mozilla,Netscape,"5.0 (Macintosh; Intel Mac OS X 10_15_7) AppleWebKit/605.1.15 (KHTML, like Gecko) Version/14.1.2 Safari/605.1.15",xpyriment,legacy,legacy,0,uniform,0,0,0,0,24,24,24,0,0,66,66,66,66,66,0,66,0,,,,,,0,,07-02-22,07-02-22,10:59:05,Mon Mar 07 2022 10:59:05 GMT+0100 (CET),The main experiment item,yes,0,0,C:/Users/rrics/Documents/!!ResearchBMECOGSCI/gnet,0,0,0,prototype5.png,no,mono,no,18,no,black,no,no,768,1184,3.5.6,legacy,xpyriment,osweb,1.3.13,0,k,k,k,,43464,26807,43464,,2,legacy,900,1440,24,900,24,0,0,1440,1646647136514,1024,2,48000,-16,experiment,p2sarrshacol2.png,0,even,MacIntel,139,139082,136072,139,139,619918,621423,614939,140617,614939,139,,,,,,visual_patterns,0,0,0,yes,1366
undefined,undefined,undefined,undefined,white,no,Mozilla,Netscape,"5.0 (Macintosh; Intel Mac OS X 10_15_7) AppleWebKit/605.1.15 (KHTML, like Gecko) Version/14.1.2 Safari/605.1.15",xpyriment,legacy,legacy,0,uniform,0,0,0,0,24,24,24,0,0,67,67,67,67,67,0,67,0,,,,,,0,,07-02-22,07-02-22,10:59:05,Mon Mar 07 2022 10:59:05 GMT+0100 (CET),The main experiment item,yes,0,0,C:/Users/rrics/Documents/!!ResearchBMECOGSCI/gnet,0,0,0,prototype5.png,no,mono,no,18,no,black,no,no,768,1184,3.5.6,legacy,xpyriment,osweb,1.3.13,0,k,k,k,,43464,26807,43464,,2,legacy,900,1440,24,900,24,0,0,1440,1646647136514,1024,2,48000,-16,experiment,p1sarr2.png,0,even,MacIntel,139,139082,136072,139,139,626438,627953,621462,140617,621462,139,,,,,,visual_patterns,0,0,0,yes,1366
undefined,undefined,undefined,undefined,white,no,Mozilla,Netscape,"5.0 (Macintosh; Intel Mac OS X 10_15_7) AppleWebKit/605.1.15 (KHTML, like Gecko) Version/14.1.2 Safari/605.1.15",xpyriment,legacy,legacy,0,uniform,0,0,0,0,24,24,24,0,0,68,68,68,68,68,0,68,0,,,,,,0,,07-02-22,07-02-22,10:59:05,Mon Mar 07 2022 10:59:05 GMT+0100 (CET),The main experiment item,yes,0,0,C:/Users/rrics/Documents/!!ResearchBMECOGSCI/gnet,0,0,0,prototype5.png,no,mono,no,18,no,black,no,no,768,1184,3.5.6,legacy,xpyriment,osweb,1.3.13,0,k,k,k,,43464,26807,43464,,2,legacy,900,1440,24,900,24,0,0,1440,1646647136514,1024,2,48000,-16,experiment,p6sarr2.png,0,even,MacIntel,139,139082,136072,139,139,632974,634479,627993,140617,627993,139,,,,,,visual_patterns,0,0,0,yes,1366
undefined,undefined,undefined,undefined,white,no,Mozilla,Netscape,"5.0 (Macintosh; Intel Mac OS X 10_15_7) AppleWebKit/605.1.15 (KHTML, like Gecko) Version/14.1.2 Safari/605.1.15",xpyriment,legacy,legacy,0,uniform,0,0,0,0,24,24,24,0,0,69,69,69,69,69,0,69,0,,,,,,0,,07-02-22,07-02-22,10:59:05,Mon Mar 07 2022 10:59:05 GMT+0100 (CET),The main experiment item,yes,0,0,C:/Users/rrics/Documents/!!ResearchBMECOGSCI/gnet,0,0,0,prototype5.png,no,mono,no,18,no,black,no,no,768,1184,3.5.6,legacy,xpyriment,osweb,1.3.13,0,k,k,k,,43464,26807,43464,,2,legacy,900,1440,24,900,24,0,0,1440,1646647136514,1024,2,48000,-16,experiment,prototype2.png,0,even,MacIntel,139,139082,136072,139,139,639496,641004,634515,140617,634515,139,,,,,,visual_patterns,0,0,0,yes,1366
undefined,undefined,undefined,undefined,white,no,Mozilla,Netscape,"5.0 (Macintosh; Intel Mac OS X 10_15_7) AppleWebKit/605.1.15 (KHTML, like Gecko) Version/14.1.2 Safari/605.1.15",xpyriment,legacy,legacy,0,uniform,0,0,0,0,24,24,24,0,0,70,70,70,70,70,0,70,0,,,,,,0,,07-02-22,07-02-22,10:59:05,Mon Mar 07 2022 10:59:05 GMT+0100 (CET),The main experiment item,yes,0,0,C:/Users/rrics/Documents/!!ResearchBMECOGSCI/gnet,0,0,0,prototype5.png,no,mono,no,18,no,black,no,no,768,1184,3.5.6,legacy,xpyriment,osweb,1.3.13,0,k,k,k,,43464,26807,43464,,2,legacy,900,1440,24,900,24,0,0,1440,1646647136514,1024,2,48000,-16,experiment,p1sarrshacol1.png,0,even,MacIntel,139,139082,136072,139,139,646021,647533,641042,140617,641042,139,,,,,,visual_patterns,0,0,0,yes,1366
undefined,undefined,undefined,undefined,white,no,Mozilla,Netscape,"5.0 (Macintosh; Intel Mac OS X 10_15_7) AppleWebKit/605.1.15 (KHTML, like Gecko) Version/14.1.2 Safari/605.1.15",xpyriment,legacy,legacy,0,uniform,0,0,0,0,24,24,24,0,0,71,71,71,71,71,0,71,0,,,,,,0,,07-02-22,07-02-22,10:59:05,Mon Mar 07 2022 10:59:05 GMT+0100 (CET),The main experiment item,yes,0,0,C:/Users/rrics/Documents/!!ResearchBMECOGSCI/gnet,0,0,0,prototype5.png,no,mono,no,18,no,black,no,no,768,1184,3.5.6,legacy,xpyriment,osweb,1.3.13,0,k,k,k,,43464,26807,43464,,2,legacy,900,1440,24,900,24,0,0,1440,1646647136514,1024,2,48000,-16,experiment,prototype1.png,0,even,MacIntel,139,139082,136072,139,139,652551,654058,647568,140617,647568,139,,,,,,visual_patterns,0,0,0,yes,1366
undefined,undefined,undefined,undefined,white,no,Mozilla,Netscape,"5.0 (Macintosh; Intel Mac OS X 10_15_7) AppleWebKit/605.1.15 (KHTML, like Gecko) Version/14.1.2 Safari/605.1.15",xpyriment,legacy,legacy,0,uniform,0,0,0,0,24,24,24,0,0,72,72,72,72,72,0,72,0,,,,,,0,,07-02-22,07-02-22,10:59:05,Mon Mar 07 2022 10:59:05 GMT+0100 (CET),The main experiment item,yes,0,0,C:/Users/rrics/Documents/!!ResearchBMECOGSCI/gnet,0,0,0,prototype5.png,no,mono,no,18,no,black,no,no,768,1184,3.5.6,legacy,xpyriment,osweb,1.3.13,0,k,k,k,,43464,26807,43464,,2,legacy,900,1440,24,900,24,0,0,1440,1646647136514,1024,2,48000,-16,experiment,prototype5.png,0,even,MacIntel,139,139082,136072,139,139,659077,660586,654096,140617,654096,139,,,,,,visual_patterns,0,0,0,yes,1366
undefined,undefined,undefined,undefined,white,no,Mozilla,Netscape,"5.0 (Macintosh; Intel Mac OS X 10_15_7) AppleWebKit/605.1.15 (KHTML, like Gecko) Version/14.1.2 Safari/605.1.15",xpyriment,legacy,legacy,0,uniform,0,0,0,0,24,24,24,0,0,73,73,73,73,73,0,73,0,,,,,,0,,07-02-22,07-02-22,10:59:05,Mon Mar 07 2022 10:59:05 GMT+0100 (CET),The main experiment item,yes,0,0,C:/Users/rrics/Documents/!!ResearchBMECOGSCI/gnet,0,0,0,prototype5.png,no,mono,no,18,no,black,no,no,768,1184,3.5.6,legacy,xpyriment,osweb,1.3.13,0,k,k,k,,43464,26807,43464,,2,legacy,900,1440,24,900,24,0,0,1440,1646647136514,1024,2,48000,-16,experiment,prototype3.png,0,even,MacIntel,139,139082,136072,139,139,665602,667108,660622,140617,660622,139,,,,,,visual_patterns,0,0,0,yes,1366
undefined,undefined,undefined,undefined,white,no,Mozilla,Netscape,"5.0 (Macintosh; Intel Mac OS X 10_15_7) AppleWebKit/605.1.15 (KHTML, like Gecko) Version/14.1.2 Safari/605.1.15",xpyriment,legacy,legacy,0,uniform,0,0,0,0,24,24,24,0,0,74,74,74,74,74,0,74,0,,,,,,0,,07-02-22,07-02-22,10:59:05,Mon Mar 07 2022 10:59:05 GMT+0100 (CET),The main experiment item,yes,0,0,C:/Users/rrics/Documents/!!ResearchBMECOGSCI/gnet,0,0,0,prototype5.png,no,mono,no,18,no,black,no,no,768,1184,3.5.6,legacy,xpyriment,osweb,1.3.13,0,k,k,k,,43464,26807,43464,,2,legacy,900,1440,24,900,24,0,0,1440,1646647136514,1024,2,48000,-16,experiment,prototype2.png,0,even,MacIntel,139,139082,136072,139,139,672126,673636,667145,140617,667144,139,,,,,,visual_patterns,0,0,0,yes,1366
undefined,undefined,undefined,undefined,white,no,Mozilla,Netscape,"5.0 (Macintosh; Intel Mac OS X 10_15_7) AppleWebKit/605.1.15 (KHTML, like Gecko) Version/14.1.2 Safari/605.1.15",xpyriment,legacy,legacy,0,uniform,0,0,0,0,24,24,24,0,0,74,74,74,74,74,0,74,0,0,0,0,0,0,0,0,07-02-22,07-02-22,10:59:05,Mon Mar 07 2022 10:59:05 GMT+0100 (CET),The main experiment item,yes,0,0,C:/Users/rrics/Documents/!!ResearchBMECOGSCI/gnet,0,0,0,prototype5.png,no,mono,no,18,no,black,no,no,768,1184,3.5.6,legacy,xpyriment,osweb,1.3.13,0,k,k,k,k,47324,26807,43464,47324,2,legacy,900,1440,24,900,24,0,0,1440,1646647136514,1024,2,48000,-16,experiment,p5sarrsha3.png,0,even,MacIntel,139,139082,136072,139,139,672126,673636,667145,140617,667144,139,724022,725527,721047,673664,721047,visual_patterns,0,0,0,yes,1366
undefined,undefined,undefined,undefined,white,no,Mozilla,Netscape,"5.0 (Macintosh; Intel Mac OS X 10_15_7) AppleWebKit/605.1.15 (KHTML, like Gecko) Version/14.1.2 Safari/605.1.15",xpyriment,legacy,legacy,0,uniform,0,0,0,0,24,24,24,0,0,74,74,74,74,74,0,74,0,1,1,1,1,1,0,1,07-02-22,07-02-22,10:59:05,Mon Mar 07 2022 10:59:05 GMT+0100 (CET),The main experiment item,yes,0,0,C:/Users/rrics/Documents/!!ResearchBMECOGSCI/gnet,0,0,0,prototype5.png,no,mono,no,18,no,black,no,no,768,1184,3.5.6,legacy,xpyriment,osweb,1.3.13,0,k,k,k,k,47324,26807,43464,47324,2,legacy,900,1440,24,900,24,0,0,1440,1646647136514,1024,2,48000,-16,experiment,p2sarrshacol1.png,0,even,MacIntel,139,139082,136072,139,139,672126,673636,667145,140617,667144,139,728547,730052,725564,673664,725564,visual_patterns,0,0,0,yes,1366
undefined,undefined,undefined,undefined,white,no,Mozilla,Netscape,"5.0 (Macintosh; Intel Mac OS X 10_15_7) AppleWebKit/605.1.15 (KHTML, like Gecko) Version/14.1.2 Safari/605.1.15",xpyriment,legacy,legacy,0,uniform,0,0,0,0,24,24,24,0,0,74,74,74,74,74,0,74,0,2,2,2,2,2,0,2,07-02-22,07-02-22,10:59:05,Mon Mar 07 2022 10:59:05 GMT+0100 (CET),The main experiment item,yes,0,0,C:/Users/rrics/Documents/!!ResearchBMECOGSCI/gnet,0,0,0,prototype5.png,no,mono,no,18,no,black,no,no,768,1184,3.5.6,legacy,xpyriment,osweb,1.3.13,0,k,k,k,k,47324,26807,43464,47324,2,legacy,900,1440,24,900,24,0,0,1440,1646647136514,1024,2,48000,-16,experiment,p4sarr4.png,0,even,MacIntel,139,139082,136072,139,139,672126,673636,667145,140617,667144,139,733072,734579,730093,673664,730093,visual_patterns,0,0,0,yes,1366
undefined,undefined,undefined,undefined,white,no,Mozilla,Netscape,"5.0 (Macintosh; Intel Mac OS X 10_15_7) AppleWebKit/605.1.15 (KHTML, like Gecko) Version/14.1.2 Safari/605.1.15",xpyriment,legacy,legacy,0,uniform,0,0,0,0,24,24,24,0,0,74,74,74,74,74,0,74,0,3,3,3,3,3,0,3,07-02-22,07-02-22,10:59:05,Mon Mar 07 2022 10:59:05 GMT+0100 (CET),The main experiment item,yes,0,0,C:/Users/rrics/Documents/!!ResearchBMECOGSCI/gnet,0,0,0,prototype5.png,no,mono,no,18,no,black,no,no,768,1184,3.5.6,legacy,xpyriment,osweb,1.3.13,0,k,k,k,k,47324,26807,43464,47324,2,legacy,900,1440,24,900,24,0,0,1440,1646647136514,1024,2,48000,-16,experiment,p5sarrsha2.png,0,even,MacIntel,139,139082,136072,139,139,672126,673636,667145,140617,667144,139,737598,739102,734615,673664,734615,visual_patterns,0,0,0,yes,1366
undefined,undefined,undefined,undefined,white,no,Mozilla,Netscape,"5.0 (Macintosh; Intel Mac OS X 10_15_7) AppleWebKit/605.1.15 (KHTML, like Gecko) Version/14.1.2 Safari/605.1.15",xpyriment,legacy,legacy,0,uniform,0,0,0,0,24,24,24,0,0,74,74,74,74,74,0,74,0,4,4,4,4,4,0,4,07-02-22,07-02-22,10:59:05,Mon Mar 07 2022 10:59:05 GMT+0100 (CET),The main experiment item,yes,0,0,C:/Users/rrics/Documents/!!ResearchBMECOGSCI/gnet,0,0,0,prototype5.png,no,mono,no,18,no,black,no,no,768,1184,3.5.6,legacy,xpyriment,osweb,1.3.13,0,k,k,k,k,47324,26807,43464,47324,2,legacy,900,1440,24,900,24,0,0,1440,1646647136514,1024,2,48000,-16,experiment,p7sarr2.png,0,even,MacIntel,139,139082,136072,139,139,672126,673636,667145,140617,667144,139,742119,743629,739139,673664,739139,visual_patterns,0,0,0,yes,1366
undefined,undefined,undefined,undefined,white,no,Mozilla,Netscape,"5.0 (Macintosh; Intel Mac OS X 10_15_7) AppleWebKit/605.1.15 (KHTML, like Gecko) Version/14.1.2 Safari/605.1.15",xpyriment,legacy,legacy,0,uniform,0,0,0,0,24,24,24,0,0,74,74,74,74,74,0,74,0,5,5,5,5,5,0,5,07-02-22,07-02-22,10:59:05,Mon Mar 07 2022 10:59:05 GMT+0100 (CET),The main experiment item,yes,0,0,C:/Users/rrics/Documents/!!ResearchBMECOGSCI/gnet,0,0,0,prototype5.png,no,mono,no,18,no,black,no,no,768,1184,3.5.6,legacy,xpyriment,osweb,1.3.13,0,k,k,k,k,47324,26807,43464,47324,2,legacy,900,1440,24,900,24,0,0,1440,1646647136514,1024,2,48000,-16,experiment,p1sarrsha4.png,0,even,MacIntel,139,139082,136072,139,139,672126,673636,667145,140617,667144,139,746649,748154,743667,673664,743667,visual_patterns,0,0,0,yes,1366
undefined,undefined,undefined,undefined,white,no,Mozilla,Netscape,"5.0 (Macintosh; Intel Mac OS X 10_15_7) AppleWebKit/605.1.15 (KHTML, like Gecko) Version/14.1.2 Safari/605.1.15",xpyriment,legacy,legacy,0,uniform,0,0,0,0,24,24,24,0,0,74,74,74,74,74,0,74,0,6,6,6,6,6,0,6,07-02-22,07-02-22,10:59:05,Mon Mar 07 2022 10:59:05 GMT+0100 (CET),The main experiment item,yes,0,0,C:/Users/rrics/Documents/!!ResearchBMECOGSCI/gnet,0,0,0,prototype5.png,no,mono,no,18,no,black,no,no,768,1184,3.5.6,legacy,xpyriment,osweb,1.3.13,0,k,k,k,k,47324,26807,43464,47324,2,legacy,900,1440,24,900,24,0,0,1440,1646647136514,1024,2,48000,-16,experiment,p3sarrcol2.png,0,even,MacIntel,139,139082,136072,139,139,672126,673636,667145,140617,667144,139,751176,752679,748193,673664,748193,visual_patterns,0,0,0,yes,1366
undefined,undefined,undefined,undefined,white,no,Mozilla,Netscape,"5.0 (Macintosh; Intel Mac OS X 10_15_7) AppleWebKit/605.1.15 (KHTML, like Gecko) Version/14.1.2 Safari/605.1.15",xpyriment,legacy,legacy,0,uniform,0,0,0,0,24,24,24,0,0,74,74,74,74,74,0,74,0,7,7,7,7,7,0,7,07-02-22,07-02-22,10:59:05,Mon Mar 07 2022 10:59:05 GMT+0100 (CET),The main experiment item,yes,0,0,C:/Users/rrics/Documents/!!ResearchBMECOGSCI/gnet,0,0,0,prototype5.png,no,mono,no,18,no,black,no,no,768,1184,3.5.6,legacy,xpyriment,osweb,1.3.13,0,k,k,k,k,47324,26807,43464,47324,2,legacy,900,1440,24,900,24,0,0,1440,1646647136514,1024,2,48000,-16,experiment,p3sarrcol3.png,0,even,MacIntel,139,139082,136072,139,139,672126,673636,667145,140617,667144,139,755699,757204,752718,673664,752718,visual_patterns,0,0,0,yes,1366
undefined,undefined,undefined,undefined,white,no,Mozilla,Netscape,"5.0 (Macintosh; Intel Mac OS X 10_15_7) AppleWebKit/605.1.15 (KHTML, like Gecko) Version/14.1.2 Safari/605.1.15",xpyriment,legacy,legacy,0,uniform,0,0,0,0,24,24,24,0,0,74,74,74,74,74,0,74,0,8,8,8,8,8,0,8,07-02-22,07-02-22,10:59:05,Mon Mar 07 2022 10:59:05 GMT+0100 (CET),The main experiment item,yes,0,0,C:/Users/rrics/Documents/!!ResearchBMECOGSCI/gnet,0,0,0,prototype5.png,no,mono,no,18,no,black,no,no,768,1184,3.5.6,legacy,xpyriment,osweb,1.3.13,0,k,k,k,k,47324,26807,43464,47324,2,legacy,900,1440,24,900,24,0,0,1440,1646647136514,1024,2,48000,-16,experiment,p1sarrsha1.png,0,even,MacIntel,139,139082,136072,139,139,672126,673636,667145,140617,667144,139,760223,761730,757241,673664,757241,visual_patterns,0,0,0,yes,1366
undefined,undefined,undefined,undefined,white,no,Mozilla,Netscape,"5.0 (Macintosh; Intel Mac OS X 10_15_7) AppleWebKit/605.1.15 (KHTML, like Gecko) Version/14.1.2 Safari/605.1.15",xpyriment,legacy,legacy,0,uniform,0,0,0,0,24,24,24,0,0,74,74,74,74,74,0,74,0,9,9,9,9,9,0,9,07-02-22,07-02-22,10:59:05,Mon Mar 07 2022 10:59:05 GMT+0100 (CET),The main experiment item,yes,0,0,C:/Users/rrics/Documents/!!ResearchBMECOGSCI/gnet,0,0,0,prototype5.png,no,mono,no,18,no,black,no,no,768,1184,3.5.6,legacy,xpyriment,osweb,1.3.13,0,k,k,k,k,47324,26807,43464,47324,2,legacy,900,1440,24,900,24,0,0,1440,1646647136514,1024,2,48000,-16,experiment,p4sarr1.png,0,even,MacIntel,139,139082,136072,139,139,672126,673636,667145,140617,667144,139,764747,766256,761766,673664,761766,visual_patterns,0,0,0,yes,1366
undefined,undefined,undefined,undefined,white,no,Mozilla,Netscape,"5.0 (Macintosh; Intel Mac OS X 10_15_7) AppleWebKit/605.1.15 (KHTML, like Gecko) Version/14.1.2 Safari/605.1.15",xpyriment,legacy,legacy,0,uniform,0,0,0,0,24,24,24,0,0,74,74,74,74,74,0,74,0,10,10,10,10,10,0,10,07-02-22,07-02-22,10:59:05,Mon Mar 07 2022 10:59:05 GMT+0100 (CET),The main experiment item,yes,0,0,C:/Users/rrics/Documents/!!ResearchBMECOGSCI/gnet,0,0,0,prototype5.png,no,mono,no,18,no,black,no,no,768,1184,3.5.6,legacy,xpyriment,osweb,1.3.13,0,k,k,k,k,47324,26807,43464,47324,2,legacy,900,1440,24,900,24,0,0,1440,1646647136514,1024,2,48000,-16,experiment,p9sarr2.png,0,even,MacIntel,139,139082,136072,139,139,672126,673636,667145,140617,667144,139,769270,770779,766291,673664,766291,visual_patterns,0,0,0,yes,1366
undefined,undefined,undefined,undefined,white,no,Mozilla,Netscape,"5.0 (Macintosh; Intel Mac OS X 10_15_7) AppleWebKit/605.1.15 (KHTML, like Gecko) Version/14.1.2 Safari/605.1.15",xpyriment,legacy,legacy,0,uniform,0,0,0,0,24,24,24,0,0,74,74,74,74,74,0,74,0,11,11,11,11,11,0,11,07-02-22,07-02-22,10:59:05,Mon Mar 07 2022 10:59:05 GMT+0100 (CET),The main experiment item,yes,0,0,C:/Users/rrics/Documents/!!ResearchBMECOGSCI/gnet,0,0,0,prototype5.png,no,mono,no,18,no,black,no,no,768,1184,3.5.6,legacy,xpyriment,osweb,1.3.13,0,k,k,k,k,47324,26807,43464,47324,2,legacy,900,1440,24,900,24,0,0,1440,1646647136514,1024,2,48000,-16,experiment,p1sarr2.png,0,even,MacIntel,139,139082,136072,139,139,672126,673636,667145,140617,667144,139,773807,775320,770827,673664,770827,visual_patterns,0,0,0,yes,1366
undefined,undefined,undefined,undefined,white,no,Mozilla,Netscape,"5.0 (Macintosh; Intel Mac OS X 10_15_7) AppleWebKit/605.1.15 (KHTML, like Gecko) Version/14.1.2 Safari/605.1.15",xpyriment,legacy,legacy,0,uniform,0,0,0,0,24,24,24,0,0,74,74,74,74,74,0,74,0,12,12,12,12,12,0,12,07-02-22,07-02-22,10:59:05,Mon Mar 07 2022 10:59:05 GMT+0100 (CET),The main experiment item,yes,0,0,C:/Users/rrics/Documents/!!ResearchBMECOGSCI/gnet,0,0,0,prototype5.png,no,mono,no,18,no,black,no,no,768,1184,3.5.6,legacy,xpyriment,osweb,1.3.13,0,k,k,k,k,47324,26807,43464,47324,2,legacy,900,1440,24,900,24,0,0,1440,1646647136514,1024,2,48000,-16,experiment,p3sarrcol4.png,0,even,MacIntel,139,139082,136072,139,139,672126,673636,667145,140617,667144,139,778338,779847,775359,673664,775359,visual_patterns,0,0,0,yes,1366
undefined,undefined,undefined,undefined,white,no,Mozilla,Netscape,"5.0 (Macintosh; Intel Mac OS X 10_15_7) AppleWebKit/605.1.15 (KHTML, like Gecko) Version/14.1.2 Safari/605.1.15",xpyriment,legacy,legacy,0,uniform,0,0,0,0,24,24,24,0,0,74,74,74,74,74,0,74,0,13,13,13,13,13,0,13,07-02-22,07-02-22,10:59:05,Mon Mar 07 2022 10:59:05 GMT+0100 (CET),The main experiment item,yes,0,0,C:/Users/rrics/Documents/!!ResearchBMECOGSCI/gnet,0,0,0,prototype5.png,no,mono,no,18,no,black,no,no,768,1184,3.5.6,legacy,xpyriment,osweb,1.3.13,0,k,k,k,k,47324,26807,43464,47324,2,legacy,900,1440,24,900,24,0,0,1440,1646647136514,1024,2,48000,-16,experiment,p2sarrshacol2.png,0,even,MacIntel,139,139082,136072,139,139,672126,673636,667145,140617,667144,139,782865,784373,779884,673664,779884,visual_patterns,0,0,0,yes,1366
undefined,undefined,undefined,undefined,white,no,Mozilla,Netscape,"5.0 (Macintosh; Intel Mac OS X 10_15_7) AppleWebKit/605.1.15 (KHTML, like Gecko) Version/14.1.2 Safari/605.1.15",xpyriment,legacy,legacy,0,uniform,0,0,0,0,24,24,24,0,0,74,74,74,74,74,0,74,0,14,14,14,14,14,0,14,07-02-22,07-02-22,10:59:05,Mon Mar 07 2022 10:59:05 GMT+0100 (CET),The main experiment item,yes,0,0,C:/Users/rrics/Documents/!!ResearchBMECOGSCI/gnet,0,0,0,prototype5.png,no,mono,no,18,no,black,no,no,768,1184,3.5.6,legacy,xpyriment,osweb,1.3.13,0,k,k,k,k,47324,26807,43464,47324,2,legacy,900,1440,24,900,24,0,0,1440,1646647136514,1024,2,48000,-16,experiment,p6sarr1.png,0,even,MacIntel,139,139082,136072,139,139,672126,673636,667145,140617,667144,139,787395,788898,784415,673664,784415,visual_patterns,0,0,0,yes,1366
undefined,undefined,undefined,undefined,white,no,Mozilla,Netscape,"5.0 (Macintosh; Intel Mac OS X 10_15_7) AppleWebKit/605.1.15 (KHTML, like Gecko) Version/14.1.2 Safari/605.1.15",xpyriment,legacy,legacy,0,uniform,0,0,0,0,24,24,24,0,0,74,74,74,74,74,0,74,0,15,15,15,15,15,0,15,07-02-22,07-02-22,10:59:05,Mon Mar 07 2022 10:59:05 GMT+0100 (CET),The main experiment item,yes,0,0,C:/Users/rrics/Documents/!!ResearchBMECOGSCI/gnet,0,0,0,prototype5.png,no,mono,no,18,no,black,no,no,768,1184,3.5.6,legacy,xpyriment,osweb,1.3.13,0,k,k,k,k,47324,26807,43464,47324,2,legacy,900,1440,24,900,24,0,0,1440,1646647136514,1024,2,48000,-16,experiment,p4sarrshacol3.png,0,even,MacIntel,139,139082,136072,139,139,672126,673636,667145,140617,667144,139,791917,793418,788938,673664,788938,visual_patterns,0,0,0,yes,1366
undefined,undefined,undefined,undefined,white,no,Mozilla,Netscape,"5.0 (Macintosh; Intel Mac OS X 10_15_7) AppleWebKit/605.1.15 (KHTML, like Gecko) Version/14.1.2 Safari/605.1.15",xpyriment,legacy,legacy,0,uniform,0,0,0,0,24,24,24,0,0,74,74,74,74,74,0,74,0,16,16,16,16,16,0,16,07-02-22,07-02-22,10:59:05,Mon Mar 07 2022 10:59:05 GMT+0100 (CET),The main experiment item,yes,0,0,C:/Users/rrics/Documents/!!ResearchBMECOGSCI/gnet,0,0,0,prototype5.png,no,mono,no,18,no,black,no,no,768,1184,3.5.6,legacy,xpyriment,osweb,1.3.13,0,k,k,k,k,47324,26807,43464,47324,2,legacy,900,1440,24,900,24,0,0,1440,1646647136514,1024,2,48000,-16,experiment,p4sarrshacol4.png,0,even,MacIntel,139,139082,136072,139,139,672126,673636,667145,140617,667144,139,796436,797947,793457,673664,793457,visual_patterns,0,0,0,yes,1366
undefined,undefined,undefined,undefined,white,no,Mozilla,Netscape,"5.0 (Macintosh; Intel Mac OS X 10_15_7) AppleWebKit/605.1.15 (KHTML, like Gecko) Version/14.1.2 Safari/605.1.15",xpyriment,legacy,legacy,0,uniform,0,0,0,0,24,24,24,0,0,74,74,74,74,74,0,74,0,17,17,17,17,17,0,17,07-02-22,07-02-22,10:59:05,Mon Mar 07 2022 10:59:05 GMT+0100 (CET),The main experiment item,yes,0,0,C:/Users/rrics/Documents/!!ResearchBMECOGSCI/gnet,0,0,0,prototype5.png,no,mono,no,18,no,black,no,no,768,1184,3.5.6,legacy,xpyriment,osweb,1.3.13,0,k,k,k,k,47324,26807,43464,47324,2,legacy,900,1440,24,900,24,0,0,1440,1646647136514,1024,2,48000,-16,experiment,p2sarrcol1.png,0,even,MacIntel,139,139082,136072,139,139,672126,673636,667145,140617,667144,139,800968,802473,797986,673664,797986,visual_patterns,0,0,0,yes,1366
undefined,undefined,undefined,undefined,white,no,Mozilla,Netscape,"5.0 (Macintosh; Intel Mac OS X 10_15_7) AppleWebKit/605.1.15 (KHTML, like Gecko) Version/14.1.2 Safari/605.1.15",xpyriment,legacy,legacy,0,uniform,0,0,0,0,24,24,24,0,0,74,74,74,74,74,0,74,0,18,18,18,18,18,0,18,07-02-22,07-02-22,10:59:05,Mon Mar 07 2022 10:59:05 GMT+0100 (CET),The main experiment item,yes,0,0,C:/Users/rrics/Documents/!!ResearchBMECOGSCI/gnet,0,0,0,prototype5.png,no,mono,no,18,no,black,no,no,768,1184,3.5.6,legacy,xpyriment,osweb,1.3.13,0,k,k,k,k,47324,26807,43464,47324,2,legacy,900,1440,24,900,24,0,0,1440,1646647136514,1024,2,48000,-16,experiment,p1sarr4.png,0,even,MacIntel,139,139082,136072,139,139,672126,673636,667145,140617,667144,139,805495,806998,802513,673664,802513,visual_patterns,0,0,0,yes,1366
undefined,undefined,undefined,undefined,white,no,Mozilla,Netscape,"5.0 (Macintosh; Intel Mac OS X 10_15_7) AppleWebKit/605.1.15 (KHTML, like Gecko) Version/14.1.2 Safari/605.1.15",xpyriment,legacy,legacy,0,uniform,0,0,0,0,24,24,24,0,0,74,74,74,74,74,0,74,0,19,19,19,19,19,0,19,07-02-22,07-02-22,10:59:05,Mon Mar 07 2022 10:59:05 GMT+0100 (CET),The main experiment item,yes,0,0,C:/Users/rrics/Documents/!!ResearchBMECOGSCI/gnet,0,0,0,prototype5.png,no,mono,no,18,no,black,no,no,768,1184,3.5.6,legacy,xpyriment,osweb,1.3.13,0,k,k,k,k,47324,26807,43464,47324,2,legacy,900,1440,24,900,24,0,0,1440,1646647136514,1024,2,48000,-16,experiment,p10sarr1.png,0,even,MacIntel,139,139082,136072,139,139,672126,673636,667145,140617,667144,139,810016,811522,807034,673664,807034,visual_patterns,0,0,0,yes,1366
undefined,undefined,undefined,undefined,white,no,Mozilla,Netscape,"5.0 (Macintosh; Intel Mac OS X 10_15_7) AppleWebKit/605.1.15 (KHTML, like Gecko) Version/14.1.2 Safari/605.1.15",xpyriment,legacy,legacy,0,uniform,0,0,0,0,24,24,24,0,0,74,74,74,74,74,0,74,0,20,20,20,20,20,0,20,07-02-22,07-02-22,10:59:05,Mon Mar 07 2022 10:59:05 GMT+0100 (CET),The main experiment item,yes,0,0,C:/Users/rrics/Documents/!!ResearchBMECOGSCI/gnet,0,0,0,prototype5.png,no,mono,no,18,no,black,no,no,768,1184,3.5.6,legacy,xpyriment,osweb,1.3.13,0,k,k,k,k,47324,26807,43464,47324,2,legacy,900,1440,24,900,24,0,0,1440,1646647136514,1024,2,48000,-16,experiment,p8sarr3.png,0,even,MacIntel,139,139082,136072,139,139,672126,673636,667145,140617,667144,139,814545,816049,811563,673664,811563,visual_patterns,0,0,0,yes,1366
undefined,undefined,undefined,undefined,white,no,Mozilla,Netscape,"5.0 (Macintosh; Intel Mac OS X 10_15_7) AppleWebKit/605.1.15 (KHTML, like Gecko) Version/14.1.2 Safari/605.1.15",xpyriment,legacy,legacy,0,uniform,0,0,0,0,24,24,24,0,0,74,74,74,74,74,0,74,0,21,21,21,21,21,0,21,07-02-22,07-02-22,10:59:05,Mon Mar 07 2022 10:59:05 GMT+0100 (CET),The main experiment item,yes,0,0,C:/Users/rrics/Documents/!!ResearchBMECOGSCI/gnet,0,0,0,prototype5.png,no,mono,no,18,no,black,no,no,768,1184,3.5.6,legacy,xpyriment,osweb,1.3.13,0,k,k,k,k,47324,26807,43464,47324,2,legacy,900,1440,24,900,24,0,0,1440,1646647136514,1024,2,48000,-16,experiment,p9sarr4.png,0,even,MacIntel,139,139082,136072,139,139,672126,673636,667145,140617,667144,139,819070,820575,816088,673664,816088,visual_patterns,0,0,0,yes,1366
undefined,undefined,undefined,undefined,white,no,Mozilla,Netscape,"5.0 (Macintosh; Intel Mac OS X 10_15_7) AppleWebKit/605.1.15 (KHTML, like Gecko) Version/14.1.2 Safari/605.1.15",xpyriment,legacy,legacy,0,uniform,0,0,0,0,24,24,24,0,0,74,74,74,74,74,0,74,0,22,22,22,22,22,0,22,07-02-22,07-02-22,10:59:05,Mon Mar 07 2022 10:59:05 GMT+0100 (CET),The main experiment item,yes,0,0,C:/Users/rrics/Documents/!!ResearchBMECOGSCI/gnet,0,0,0,prototype5.png,no,mono,no,18,no,black,no,no,768,1184,3.5.6,legacy,xpyriment,osweb,1.3.13,0,k,k,k,k,47324,26807,43464,47324,2,legacy,900,1440,24,900,24,0,0,1440,1646647136514,1024,2,48000,-16,experiment,p5sarrcol2.png,0,even,MacIntel,139,139082,136072,139,139,672126,673636,667145,140617,667144,139,823591,825099,820611,673664,820611,visual_patterns,0,0,0,yes,1366
undefined,undefined,undefined,undefined,white,no,Mozilla,Netscape,"5.0 (Macintosh; Intel Mac OS X 10_15_7) AppleWebKit/605.1.15 (KHTML, like Gecko) Version/14.1.2 Safari/605.1.15",xpyriment,legacy,legacy,0,uniform,0,0,0,0,24,24,24,0,0,74,74,74,74,74,0,74,0,23,23,23,23,23,0,23,07-02-22,07-02-22,10:59:05,Mon Mar 07 2022 10:59:05 GMT+0100 (CET),The main experiment item,yes,0,0,C:/Users/rrics/Documents/!!ResearchBMECOGSCI/gnet,0,0,0,prototype5.png,no,mono,no,18,no,black,no,no,768,1184,3.5.6,legacy,xpyriment,osweb,1.3.13,0,k,k,k,k,47324,26807,43464,47324,2,legacy,900,1440,24,900,24,0,0,1440,1646647136514,1024,2,48000,-16,experiment,p7sarr4.png,0,even,MacIntel,139,139082,136072,139,139,672126,673636,667145,140617,667144,139,828124,829641,825142,673664,825142,visual_patterns,0,0,0,yes,1366
undefined,undefined,undefined,undefined,white,no,Mozilla,Netscape,"5.0 (Macintosh; Intel Mac OS X 10_15_7) AppleWebKit/605.1.15 (KHTML, like Gecko) Version/14.1.2 Safari/605.1.15",xpyriment,legacy,legacy,0,uniform,0,0,0,0,24,24,24,0,0,74,74,74,74,74,0,74,0,24,24,24,24,24,0,24,07-02-22,07-02-22,10:59:05,Mon Mar 07 2022 10:59:05 GMT+0100 (CET),The main experiment item,yes,0,0,C:/Users/rrics/Documents/!!ResearchBMECOGSCI/gnet,0,0,0,prototype5.png,no,mono,no,18,no,black,no,no,768,1184,3.5.6,legacy,xpyriment,osweb,1.3.13,0,k,k,k,k,47324,26807,43464,47324,2,legacy,900,1440,24,900,24,0,0,1440,1646647136514,1024,2,48000,-16,experiment,p3sarrsha3.png,0,even,MacIntel,139,139082,136072,139,139,672126,673636,667145,140617,667144,139,832660,834165,829682,673664,829682,visual_patterns,0,0,0,yes,1366
undefined,undefined,undefined,undefined,white,no,Mozilla,Netscape,"5.0 (Macintosh; Intel Mac OS X 10_15_7) AppleWebKit/605.1.15 (KHTML, like Gecko) Version/14.1.2 Safari/605.1.15",xpyriment,legacy,legacy,0,uniform,0,0,0,0,24,24,24,0,0,74,74,74,74,74,0,74,0,25,25,25,25,25,0,25,07-02-22,07-02-22,10:59:05,Mon Mar 07 2022 10:59:05 GMT+0100 (CET),The main experiment item,yes,0,0,C:/Users/rrics/Documents/!!ResearchBMECOGSCI/gnet,0,0,0,prototype5.png,no,mono,no,18,no,black,no,no,768,1184,3.5.6,legacy,xpyriment,osweb,1.3.13,0,k,k,k,k,47324,26807,43464,47324,2,legacy,900,1440,24,900,24,0,0,1440,1646647136514,1024,2,48000,-16,experiment,p8sarr4.png,0,even,MacIntel,139,139082,136072,139,139,672126,673636,667145,140617,667144,139,837182,838693,834204,673664,834204,visual_patterns,0,0,0,yes,1366
undefined,undefined,undefined,undefined,white,no,Mozilla,Netscape,"5.0 (Macintosh; Intel Mac OS X 10_15_7) AppleWebKit/605.1.15 (KHTML, like Gecko) Version/14.1.2 Safari/605.1.15",xpyriment,legacy,legacy,0,uniform,0,0,0,0,24,24,24,0,0,74,74,74,74,74,0,74,0,26,26,26,26,26,0,26,07-02-22,07-02-22,10:59:05,Mon Mar 07 2022 10:59:05 GMT+0100 (CET),The main experiment item,yes,0,0,C:/Users/rrics/Documents/!!ResearchBMECOGSCI/gnet,0,0,0,prototype5.png,no,mono,no,18,no,black,no,no,768,1184,3.5.6,legacy,xpyriment,osweb,1.3.13,0,k,k,k,k,47324,26807,43464,47324,2,legacy,900,1440,24,900,24,0,0,1440,1646647136514,1024,2,48000,-16,experiment,p2sarrshacol4.png,0,even,MacIntel,139,139082,136072,139,139,672126,673636,667145,140617,667144,139,841714,843218,838735,673664,838734,visual_patterns,0,0,0,yes,1366
undefined,undefined,undefined,undefined,white,no,Mozilla,Netscape,"5.0 (Macintosh; Intel Mac OS X 10_15_7) AppleWebKit/605.1.15 (KHTML, like Gecko) Version/14.1.2 Safari/605.1.15",xpyriment,legacy,legacy,0,uniform,0,0,0,0,24,24,24,0,0,74,74,74,74,74,0,74,0,27,27,27,27,27,0,27,07-02-22,07-02-22,10:59:05,Mon Mar 07 2022 10:59:05 GMT+0100 (CET),The main experiment item,yes,0,0,C:/Users/rrics/Documents/!!ResearchBMECOGSCI/gnet,0,0,0,prototype5.png,no,mono,no,18,no,black,no,no,768,1184,3.5.6,legacy,xpyriment,osweb,1.3.13,0,k,k,k,k,47324,26807,43464,47324,2,legacy,900,1440,24,900,24,0,0,1440,1646647136514,1024,2,48000,-16,experiment,p4sarrshacol1.png,0,even,MacIntel,139,139082,136072,139,139,672126,673636,667145,140617,667144,139,846237,847742,843254,673664,843254,visual_patterns,0,0,0,yes,1366
undefined,undefined,undefined,undefined,white,no,Mozilla,Netscape,"5.0 (Macintosh; Intel Mac OS X 10_15_7) AppleWebKit/605.1.15 (KHTML, like Gecko) Version/14.1.2 Safari/605.1.15",xpyriment,legacy,legacy,0,uniform,0,0,0,0,24,24,24,0,0,74,74,74,74,74,0,74,0,28,28,28,28,28,0,28,07-02-22,07-02-22,10:59:05,Mon Mar 07 2022 10:59:05 GMT+0100 (CET),The main experiment item,yes,0,0,C:/Users/rrics/Documents/!!ResearchBMECOGSCI/gnet,0,0,0,prototype5.png,no,mono,no,18,no,black,no,no,768,1184,3.5.6,legacy,xpyriment,osweb,1.3.13,0,k,k,k,k,47324,26807,43464,47324,2,legacy,900,1440,24,900,24,0,0,1440,1646647136514,1024,2,48000,-16,experiment,p1sarrshacol3.png,0,even,MacIntel,139,139082,136072,139,139,672126,673636,667145,140617,667144,139,850760,852269,847781,673664,847781,visual_patterns,0,0,0,yes,1366
undefined,undefined,undefined,undefined,white,no,Mozilla,Netscape,"5.0 (Macintosh; Intel Mac OS X 10_15_7) AppleWebKit/605.1.15 (KHTML, like Gecko) Version/14.1.2 Safari/605.1.15",xpyriment,legacy,legacy,0,uniform,0,0,0,0,24,24,24,0,0,74,74,74,74,74,0,74,0,29,29,29,29,29,0,29,07-02-22,07-02-22,10:59:05,Mon Mar 07 2022 10:59:05 GMT+0100 (CET),The main experiment item,yes,0,0,C:/Users/rrics/Documents/!!ResearchBMECOGSCI/gnet,0,0,0,prototype5.png,no,mono,no,18,no,black,no,no,768,1184,3.5.6,legacy,xpyriment,osweb,1.3.13,0,k,k,k,k,47324,26807,43464,47324,2,legacy,900,1440,24,900,24,0,0,1440,1646647136514,1024,2,48000,-16,experiment,p2sarrsha1.png,0,even,MacIntel,139,139082,136072,139,139,672126,673636,667145,140617,667144,139,855291,856792,852307,673664,852307,visual_patterns,0,0,0,yes,1366
undefined,undefined,undefined,undefined,white,no,Mozilla,Netscape,"5.0 (Macintosh; Intel Mac OS X 10_15_7) AppleWebKit/605.1.15 (KHTML, like Gecko) Version/14.1.2 Safari/605.1.15",xpyriment,legacy,legacy,0,uniform,0,0,0,0,24,24,24,0,0,74,74,74,74,74,0,74,0,30,30,30,30,30,0,30,07-02-22,07-02-22,10:59:05,Mon Mar 07 2022 10:59:05 GMT+0100 (CET),The main experiment item,yes,0,0,C:/Users/rrics/Documents/!!ResearchBMECOGSCI/gnet,0,0,0,prototype5.png,no,mono,no,18,no,black,no,no,768,1184,3.5.6,legacy,xpyriment,osweb,1.3.13,0,k,k,k,k,47324,26807,43464,47324,2,legacy,900,1440,24,900,24,0,0,1440,1646647136514,1024,2,48000,-16,experiment,p3sarr2.png,0,even,MacIntel,139,139082,136072,139,139,672126,673636,667145,140617,667144,139,859811,861318,856828,673664,856828,visual_patterns,0,0,0,yes,1366
undefined,undefined,undefined,undefined,white,no,Mozilla,Netscape,"5.0 (Macintosh; Intel Mac OS X 10_15_7) AppleWebKit/605.1.15 (KHTML, like Gecko) Version/14.1.2 Safari/605.1.15",xpyriment,legacy,legacy,0,uniform,0,0,0,0,24,24,24,0,0,74,74,74,74,74,0,74,0,31,31,31,31,31,0,31,07-02-22,07-02-22,10:59:05,Mon Mar 07 2022 10:59:05 GMT+0100 (CET),The main experiment item,yes,0,0,C:/Users/rrics/Documents/!!ResearchBMECOGSCI/gnet,0,0,0,prototype5.png,no,mono,no,18,no,black,no,no,768,1184,3.5.6,legacy,xpyriment,osweb,1.3.13,0,k,k,k,k,47324,26807,43464,47324,2,legacy,900,1440,24,900,24,0,0,1440,1646647136514,1024,2,48000,-16,experiment,p3sarrshacol3.png,0,even,MacIntel,139,139082,136072,139,139,672126,673636,667145,140617,667144,139,864335,865843,861358,673664,861358,visual_patterns,0,0,0,yes,1366
undefined,undefined,undefined,undefined,white,no,Mozilla,Netscape,"5.0 (Macintosh; Intel Mac OS X 10_15_7) AppleWebKit/605.1.15 (KHTML, like Gecko) Version/14.1.2 Safari/605.1.15",xpyriment,legacy,legacy,0,uniform,0,0,0,0,24,24,24,0,0,74,74,74,74,74,0,74,0,32,32,32,32,32,0,32,07-02-22,07-02-22,10:59:05,Mon Mar 07 2022 10:59:05 GMT+0100 (CET),The main experiment item,yes,0,0,C:/Users/rrics/Documents/!!ResearchBMECOGSCI/gnet,0,0,0,prototype5.png,no,mono,no,18,no,black,no,no,768,1184,3.5.6,legacy,xpyriment,osweb,1.3.13,0,k,k,k,k,47324,26807,43464,47324,2,legacy,900,1440,24,900,24,0,0,1440,1646647136514,1024,2,48000,-16,experiment,p2sarrcol4.png,0,even,MacIntel,139,139082,136072,139,139,672126,673636,667145,140617,667144,139,868864,870369,865880,673664,865880,visual_patterns,0,0,0,yes,1366
undefined,undefined,undefined,undefined,white,no,Mozilla,Netscape,"5.0 (Macintosh; Intel Mac OS X 10_15_7) AppleWebKit/605.1.15 (KHTML, like Gecko) Version/14.1.2 Safari/605.1.15",xpyriment,legacy,legacy,0,uniform,0,0,0,0,24,24,24,0,0,74,74,74,74,74,0,74,0,33,33,33,33,33,0,33,07-02-22,07-02-22,10:59:05,Mon Mar 07 2022 10:59:05 GMT+0100 (CET),The main experiment item,yes,0,0,C:/Users/rrics/Documents/!!ResearchBMECOGSCI/gnet,0,0,0,prototype5.png,no,mono,no,18,no,black,no,no,768,1184,3.5.6,legacy,xpyriment,osweb,1.3.13,0,k,k,k,k,47324,26807,43464,47324,2,legacy,900,1440,24,900,24,0,0,1440,1646647136514,1024,2,48000,-16,experiment,p5sarrcol1.png,0,even,MacIntel,139,139082,136072,139,139,672126,673636,667145,140617,667144,139,873392,874894,870408,673664,870408,visual_patterns,0,0,0,yes,1366
undefined,undefined,undefined,undefined,white,no,Mozilla,Netscape,"5.0 (Macintosh; Intel Mac OS X 10_15_7) AppleWebKit/605.1.15 (KHTML, like Gecko) Version/14.1.2 Safari/605.1.15",xpyriment,legacy,legacy,0,uniform,0,0,0,0,24,24,24,0,0,74,74,74,74,74,0,74,0,34,34,34,34,34,0,34,07-02-22,07-02-22,10:59:05,Mon Mar 07 2022 10:59:05 GMT+0100 (CET),The main experiment item,yes,0,0,C:/Users/rrics/Documents/!!ResearchBMECOGSCI/gnet,0,0,0,prototype5.png,no,mono,no,18,no,black,no,no,768,1184,3.5.6,legacy,xpyriment,osweb,1.3.13,0,k,k,k,k,47324,26807,43464,47324,2,legacy,900,1440,24,900,24,0,0,1440,1646647136514,1024,2,48000,-16,experiment,p8sarr2.png,0,even,MacIntel,139,139082,136072,139,139,672126,673636,667145,140617,667144,139,877912,879420,874931,673664,874930,visual_patterns,0,0,0,yes,1366
undefined,undefined,undefined,undefined,white,no,Mozilla,Netscape,"5.0 (Macintosh; Intel Mac OS X 10_15_7) AppleWebKit/605.1.15 (KHTML, like Gecko) Version/14.1.2 Safari/605.1.15",xpyriment,legacy,legacy,0,uniform,0,0,0,0,24,24,24,0,0,74,74,74,74,74,0,74,0,35,35,35,35,35,0,35,07-02-22,07-02-22,10:59:05,Mon Mar 07 2022 10:59:05 GMT+0100 (CET),The main experiment item,yes,0,0,C:/Users/rrics/Documents/!!ResearchBMECOGSCI/gnet,0,0,0,prototype5.png,no,mono,no,18,no,black,no,no,768,1184,3.5.6,legacy,xpyriment,osweb,1.3.13,0,k,k,k,k,47324,26807,43464,47324,2,legacy,900,1440,24,900,24,0,0,1440,1646647136514,1024,2,48000,-16,experiment,p5sarr3.png,0,even,MacIntel,139,139082,136072,139,139,672126,673636,667145,140617,667144,139,882441,883943,879460,673664,879460,visual_patterns,0,0,0,yes,1366
undefined,undefined,undefined,undefined,white,no,Mozilla,Netscape,"5.0 (Macintosh; Intel Mac OS X 10_15_7) AppleWebKit/605.1.15 (KHTML, like Gecko) Version/14.1.2 Safari/605.1.15",xpyriment,legacy,legacy,0,uniform,0,0,0,0,24,24,24,0,0,74,74,74,74,74,0,74,0,36,36,36,36,36,0,36,07-02-22,07-02-22,10:59:05,Mon Mar 07 2022 10:59:05 GMT+0100 (CET),The main experiment item,yes,0,0,C:/Users/rrics/Documents/!!ResearchBMECOGSCI/gnet,0,0,0,prototype5.png,no,mono,no,18,no,black,no,no,768,1184,3.5.6,legacy,xpyriment,osweb,1.3.13,0,k,k,k,k,47324,26807,43464,47324,2,legacy,900,1440,24,900,24,0,0,1440,1646647136514,1024,2,48000,-16,experiment,p7sarr1.png,0,even,MacIntel,139,139082,136072,139,139,672126,673636,667145,140617,667144,139,886960,888468,883979,673664,883979,visual_patterns,0,0,0,yes,1366
undefined,undefined,undefined,undefined,white,no,Mozilla,Netscape,"5.0 (Macintosh; Intel Mac OS X 10_15_7) AppleWebKit/605.1.15 (KHTML, like Gecko) Version/14.1.2 Safari/605.1.15",xpyriment,legacy,legacy,0,uniform,0,0,0,0,24,24,24,0,0,74,74,74,74,74,0,74,0,37,37,37,37,37,0,37,07-02-22,07-02-22,10:59:05,Mon Mar 07 2022 10:59:05 GMT+0100 (CET),The main experiment item,yes,0,0,C:/Users/rrics/Documents/!!ResearchBMECOGSCI/gnet,0,0,0,prototype5.png,no,mono,no,18,no,black,no,no,768,1184,3.5.6,legacy,xpyriment,osweb,1.3.13,0,k,k,k,k,47324,26807,43464,47324,2,legacy,900,1440,24,900,24,0,0,1440,1646647136514,1024,2,48000,-16,experiment,p1sarrcol4.png,0,even,MacIntel,139,139082,136072,139,139,672126,673636,667145,140617,667144,139,891485,892994,888506,673664,888506,visual_patterns,0,0,0,yes,1366
undefined,undefined,undefined,undefined,white,no,Mozilla,Netscape,"5.0 (Macintosh; Intel Mac OS X 10_15_7) AppleWebKit/605.1.15 (KHTML, like Gecko) Version/14.1.2 Safari/605.1.15",xpyriment,legacy,legacy,0,uniform,0,0,0,0,24,24,24,0,0,74,74,74,74,74,0,74,0,38,38,38,38,38,0,38,07-02-22,07-02-22,10:59:05,Mon Mar 07 2022 10:59:05 GMT+0100 (CET),The main experiment item,yes,0,0,C:/Users/rrics/Documents/!!ResearchBMECOGSCI/gnet,0,0,0,prototype5.png,no,mono,no,18,no,black,no,no,768,1184,3.5.6,legacy,xpyriment,osweb,1.3.13,0,k,k,k,k,47324,26807,43464,47324,2,legacy,900,1440,24,900,24,0,0,1440,1646647136514,1024,2,48000,-16,experiment,p3sarrsha4.png,0,even,MacIntel,139,139082,136072,139,139,672126,673636,667145,140617,667144,139,896019,897533,893037,673664,893037,visual_patterns,0,0,0,yes,1366
undefined,undefined,undefined,undefined,white,no,Mozilla,Netscape,"5.0 (Macintosh; Intel Mac OS X 10_15_7) AppleWebKit/605.1.15 (KHTML, like Gecko) Version/14.1.2 Safari/605.1.15",xpyriment,legacy,legacy,0,uniform,0,0,0,0,24,24,24,0,0,74,74,74,74,74,0,74,0,39,39,39,39,39,0,39,07-02-22,07-02-22,10:59:05,Mon Mar 07 2022 10:59:05 GMT+0100 (CET),The main experiment item,yes,0,0,C:/Users/rrics/Documents/!!ResearchBMECOGSCI/gnet,0,0,0,prototype5.png,no,mono,no,18,no,black,no,no,768,1184,3.5.6,legacy,xpyriment,osweb,1.3.13,0,k,k,k,k,47324,26807,43464,47324,2,legacy,900,1440,24,900,24,0,0,1440,1646647136514,1024,2,48000,-16,experiment,p3sarr1.png,0,even,MacIntel,139,139082,136072,139,139,672126,673636,667145,140617,667144,139,900555,902057,897571,673664,897571,visual_patterns,0,0,0,yes,1366
undefined,undefined,undefined,undefined,white,no,Mozilla,Netscape,"5.0 (Macintosh; Intel Mac OS X 10_15_7) AppleWebKit/605.1.15 (KHTML, like Gecko) Version/14.1.2 Safari/605.1.15",xpyriment,legacy,legacy,0,uniform,0,0,0,0,24,24,24,0,0,74,74,74,74,74,0,74,0,40,40,40,40,40,0,40,07-02-22,07-02-22,10:59:05,Mon Mar 07 2022 10:59:05 GMT+0100 (CET),The main experiment item,yes,0,0,C:/Users/rrics/Documents/!!ResearchBMECOGSCI/gnet,0,0,0,prototype5.png,no,mono,no,18,no,black,no,no,768,1184,3.5.6,legacy,xpyriment,osweb,1.3.13,0,k,k,k,k,47324,26807,43464,47324,2,legacy,900,1440,24,900,24,0,0,1440,1646647136514,1024,2,48000,-16,experiment,p2sarrsha3.png,0,even,MacIntel,139,139082,136072,139,139,672126,673636,667145,140617,667144,139,905076,906584,902095,673664,902095,visual_patterns,0,0,0,yes,1366
undefined,undefined,undefined,undefined,white,no,Mozilla,Netscape,"5.0 (Macintosh; Intel Mac OS X 10_15_7) AppleWebKit/605.1.15 (KHTML, like Gecko) Version/14.1.2 Safari/605.1.15",xpyriment,legacy,legacy,0,uniform,0,0,0,0,24,24,24,0,0,74,74,74,74,74,0,74,0,41,41,41,41,41,0,41,07-02-22,07-02-22,10:59:05,Mon Mar 07 2022 10:59:05 GMT+0100 (CET),The main experiment item,yes,0,0,C:/Users/rrics/Documents/!!ResearchBMECOGSCI/gnet,0,0,0,prototype5.png,no,mono,no,18,no,black,no,no,768,1184,3.5.6,legacy,xpyriment,osweb,1.3.13,0,k,k,k,k,47324,26807,43464,47324,2,legacy,900,1440,24,900,24,0,0,1440,1646647136514,1024,2,48000,-16,experiment,p9sarr3.png,0,even,MacIntel,139,139082,136072,139,139,672126,673636,667145,140617,667144,139,909601,911109,906623,673664,906623,visual_patterns,0,0,0,yes,1366
undefined,undefined,undefined,undefined,white,no,Mozilla,Netscape,"5.0 (Macintosh; Intel Mac OS X 10_15_7) AppleWebKit/605.1.15 (KHTML, like Gecko) Version/14.1.2 Safari/605.1.15",xpyriment,legacy,legacy,0,uniform,0,0,0,0,24,24,24,0,0,74,74,74,74,74,0,74,0,42,42,42,42,42,0,42,07-02-22,07-02-22,10:59:05,Mon Mar 07 2022 10:59:05 GMT+0100 (CET),The main experiment item,yes,0,0,C:/Users/rrics/Documents/!!ResearchBMECOGSCI/gnet,0,0,0,prototype5.png,no,mono,no,18,no,black,no,no,768,1184,3.5.6,legacy,xpyriment,osweb,1.3.13,0,k,k,k,k,47324,26807,43464,47324,2,legacy,900,1440,24,900,24,0,0,1440,1646647136514,1024,2,48000,-16,experiment,p10sarr4.png,0,even,MacIntel,139,139082,136072,139,139,672126,673636,667145,140617,667144,139,914127,915635,911149,673664,911148,visual_patterns,0,0,0,yes,1366
undefined,undefined,undefined,undefined,white,no,Mozilla,Netscape,"5.0 (Macintosh; Intel Mac OS X 10_15_7) AppleWebKit/605.1.15 (KHTML, like Gecko) Version/14.1.2 Safari/605.1.15",xpyriment,legacy,legacy,0,uniform,0,0,0,0,24,24,24,0,0,74,74,74,74,74,0,74,0,43,43,43,43,43,0,43,07-02-22,07-02-22,10:59:05,Mon Mar 07 2022 10:59:05 GMT+0100 (CET),The main experiment item,yes,0,0,C:/Users/rrics/Documents/!!ResearchBMECOGSCI/gnet,0,0,0,prototype5.png,no,mono,no,18,no,black,no,no,768,1184,3.5.6,legacy,xpyriment,osweb,1.3.13,0,k,k,k,k,47324,26807,43464,47324,2,legacy,900,1440,24,900,24,0,0,1440,1646647136514,1024,2,48000,-16,experiment,p4sarrcol1.png,0,even,MacIntel,139,139082,136072,139,139,672126,673636,667145,140617,667144,139,918657,920160,915674,673664,915674,visual_patterns,0,0,0,yes,1366
undefined,undefined,undefined,undefined,white,no,Mozilla,Netscape,"5.0 (Macintosh; Intel Mac OS X 10_15_7) AppleWebKit/605.1.15 (KHTML, like Gecko) Version/14.1.2 Safari/605.1.15",xpyriment,legacy,legacy,0,uniform,0,0,0,0,24,24,24,0,0,74,74,74,74,74,0,74,0,44,44,44,44,44,0,44,07-02-22,07-02-22,10:59:05,Mon Mar 07 2022 10:59:05 GMT+0100 (CET),The main experiment item,yes,0,0,C:/Users/rrics/Documents/!!ResearchBMECOGSCI/gnet,0,0,0,prototype5.png,no,mono,no,18,no,black,no,no,768,1184,3.5.6,legacy,xpyriment,osweb,1.3.13,0,k,k,k,k,47324,26807,43464,47324,2,legacy,900,1440,24,900,24,0,0,1440,1646647136514,1024,2,48000,-16,experiment,p5sarrshacol4.png,0,even,MacIntel,139,139082,136072,139,139,672126,673636,667145,140617,667144,139,923180,924684,920200,673664,920200,visual_patterns,0,0,0,yes,1366
undefined,undefined,undefined,undefined,white,no,Mozilla,Netscape,"5.0 (Macintosh; Intel Mac OS X 10_15_7) AppleWebKit/605.1.15 (KHTML, like Gecko) Version/14.1.2 Safari/605.1.15",xpyriment,legacy,legacy,0,uniform,0,0,0,0,24,24,24,0,0,74,74,74,74,74,0,74,0,45,45,45,45,45,0,45,07-02-22,07-02-22,10:59:05,Mon Mar 07 2022 10:59:05 GMT+0100 (CET),The main experiment item,yes,0,0,C:/Users/rrics/Documents/!!ResearchBMECOGSCI/gnet,0,0,0,prototype5.png,no,mono,no,18,no,black,no,no,768,1184,3.5.6,legacy,xpyriment,osweb,1.3.13,0,k,k,k,k,47324,26807,43464,47324,2,legacy,900,1440,24,900,24,0,0,1440,1646647136514,1024,2,48000,-16,experiment,p3sarr3.png,0,even,MacIntel,139,139082,136072,139,139,672126,673636,667145,140617,667144,139,927703,929211,924724,673664,924724,visual_patterns,0,0,0,yes,1366
undefined,undefined,undefined,undefined,white,no,Mozilla,Netscape,"5.0 (Macintosh; Intel Mac OS X 10_15_7) AppleWebKit/605.1.15 (KHTML, like Gecko) Version/14.1.2 Safari/605.1.15",xpyriment,legacy,legacy,0,uniform,0,0,0,0,24,24,24,0,0,74,74,74,74,74,0,74,0,46,46,46,46,46,0,46,07-02-22,07-02-22,10:59:05,Mon Mar 07 2022 10:59:05 GMT+0100 (CET),The main experiment item,yes,0,0,C:/Users/rrics/Documents/!!ResearchBMECOGSCI/gnet,0,0,0,prototype5.png,no,mono,no,18,no,black,no,no,768,1184,3.5.6,legacy,xpyriment,osweb,1.3.13,0,k,k,k,k,47324,26807,43464,47324,2,legacy,900,1440,24,900,24,0,0,1440,1646647136514,1024,2,48000,-16,experiment,p2sarr3.png,0,even,MacIntel,139,139082,136072,139,139,672126,673636,667145,140617,667144,139,932232,933737,929250,673664,929250,visual_patterns,0,0,0,yes,1366
undefined,undefined,undefined,undefined,white,no,Mozilla,Netscape,"5.0 (Macintosh; Intel Mac OS X 10_15_7) AppleWebKit/605.1.15 (KHTML, like Gecko) Version/14.1.2 Safari/605.1.15",xpyriment,legacy,legacy,0,uniform,0,0,0,0,24,24,24,0,0,74,74,74,74,74,0,74,0,47,47,47,47,47,0,47,07-02-22,07-02-22,10:59:05,Mon Mar 07 2022 10:59:05 GMT+0100 (CET),The main experiment item,yes,0,0,C:/Users/rrics/Documents/!!ResearchBMECOGSCI/gnet,0,0,0,prototype5.png,no,mono,no,18,no,black,no,no,768,1184,3.5.6,legacy,xpyriment,osweb,1.3.13,0,k,k,k,k,47324,26807,43464,47324,2,legacy,900,1440,24,900,24,0,0,1440,1646647136514,1024,2,48000,-16,experiment,p4sarr2.png,0,even,MacIntel,139,139082,136072,139,139,672126,673636,667145,140617,667144,139,936755,938261,933772,673664,933772,visual_patterns,0,0,0,yes,1366
undefined,undefined,undefined,undefined,white,no,Mozilla,Netscape,"5.0 (Macintosh; Intel Mac OS X 10_15_7) AppleWebKit/605.1.15 (KHTML, like Gecko) Version/14.1.2 Safari/605.1.15",xpyriment,legacy,legacy,0,uniform,0,0,0,0,24,24,24,0,0,74,74,74,74,74,0,74,0,48,48,48,48,48,0,48,07-02-22,07-02-22,10:59:05,Mon Mar 07 2022 10:59:05 GMT+0100 (CET),The main experiment item,yes,0,0,C:/Users/rrics/Documents/!!ResearchBMECOGSCI/gnet,0,0,0,prototype5.png,no,mono,no,18,no,black,no,no,768,1184,3.5.6,legacy,xpyriment,osweb,1.3.13,0,k,k,k,k,47324,26807,43464,47324,2,legacy,900,1440,24,900,24,0,0,1440,1646647136514,1024,2,48000,-16,experiment,p2sarrshacol3.png,0,even,MacIntel,139,139082,136072,139,139,672126,673636,667145,140617,667144,139,941286,942801,938306,673664,938306,visual_patterns,0,0,0,yes,1366
undefined,undefined,undefined,undefined,white,no,Mozilla,Netscape,"5.0 (Macintosh; Intel Mac OS X 10_15_7) AppleWebKit/605.1.15 (KHTML, like Gecko) Version/14.1.2 Safari/605.1.15",xpyriment,legacy,legacy,0,uniform,0,0,0,0,24,24,24,0,0,74,74,74,74,74,0,74,0,49,49,49,49,49,0,49,07-02-22,07-02-22,10:59:05,Mon Mar 07 2022 10:59:05 GMT+0100 (CET),The main experiment item,yes,0,0,C:/Users/rrics/Documents/!!ResearchBMECOGSCI/gnet,0,0,0,prototype5.png,no,mono,no,18,no,black,no,no,768,1184,3.5.6,legacy,xpyriment,osweb,1.3.13,0,k,k,k,k,47324,26807,43464,47324,2,legacy,900,1440,24,900,24,0,0,1440,1646647136514,1024,2,48000,-16,experiment,p2sarrcol2.png,0,even,MacIntel,139,139082,136072,139,139,672126,673636,667145,140617,667144,139,945818,947328,942837,673664,942837,visual_patterns,0,0,0,yes,1366
undefined,undefined,undefined,undefined,white,no,Mozilla,Netscape,"5.0 (Macintosh; Intel Mac OS X 10_15_7) AppleWebKit/605.1.15 (KHTML, like Gecko) Version/14.1.2 Safari/605.1.15",xpyriment,legacy,legacy,0,uniform,0,0,0,0,24,24,24,0,0,74,74,74,74,74,0,74,0,50,50,50,50,50,0,50,07-02-22,07-02-22,10:59:05,Mon Mar 07 2022 10:59:05 GMT+0100 (CET),The main experiment item,yes,0,0,C:/Users/rrics/Documents/!!ResearchBMECOGSCI/gnet,0,0,0,prototype5.png,no,mono,no,18,no,black,no,no,768,1184,3.5.6,legacy,xpyriment,osweb,1.3.13,0,k,k,k,k,47324,26807,43464,47324,2,legacy,900,1440,24,900,24,0,0,1440,1646647136514,1024,2,48000,-16,experiment,p4sarrsha3.png,0,even,MacIntel,139,139082,136072,139,139,672126,673636,667145,140617,667144,139,950346,951851,947368,673664,947368,visual_patterns,0,0,0,yes,1366
undefined,undefined,undefined,undefined,white,no,Mozilla,Netscape,"5.0 (Macintosh; Intel Mac OS X 10_15_7) AppleWebKit/605.1.15 (KHTML, like Gecko) Version/14.1.2 Safari/605.1.15",xpyriment,legacy,legacy,0,uniform,0,0,0,0,24,24,24,0,0,74,74,74,74,74,0,74,0,51,51,51,51,51,0,51,07-02-22,07-02-22,10:59:05,Mon Mar 07 2022 10:59:05 GMT+0100 (CET),The main experiment item,yes,0,0,C:/Users/rrics/Documents/!!ResearchBMECOGSCI/gnet,0,0,0,prototype5.png,no,mono,no,18,no,black,no,no,768,1184,3.5.6,legacy,xpyriment,osweb,1.3.13,0,k,k,k,k,47324,26807,43464,47324,2,legacy,900,1440,24,900,24,0,0,1440,1646647136514,1024,2,48000,-16,experiment,p4sarrsha1.png,0,even,MacIntel,139,139082,136072,139,139,672126,673636,667145,140617,667144,139,954871,956378,951888,673664,951888,visual_patterns,0,0,0,yes,1366
