acc,accuracy,average_response_time,avg_rt,background,bidi,browser_codename,browser_name,browser_version,canvas_backend,clock_backend,color_backend,compensation,coordinates,count_end,count_experiment,count_osweb,count_prestudy,count_prestudy_isi,count_prestudy_sequence,count_prestudy_stimpres,count_start,count_study,count_study_coroutines,count_study_isi,count_study_logger,count_study_response,count_study_sequence,count_study_start,count_study_stimpres,count_test,count_test_coroutines,count_test_isi,count_test_logger,count_test_response,count_test_sequence,count_test_start,count_test_stimpres,date_startdate,date_startdateUTC,date_starttime,datetime,description,disable_garbage_collection,experiment_debug,experiment_parameters,experiment_path,experiment_pilot,experiment_taskname,experiment_taskversion,fampict,font_bold,font_family,font_italic,font_size,font_underline,foreground,form_clicks,fullscreen,height,jatosStudyResultId,jatosVersion,keyboard_backend,mouse_backend,opensesame_codename,opensesame_version,repeat_cycle,response,response_start,response_study_start,response_test_start,response_time,response_time_start,response_time_study_start,response_time_test_start,round_decimals,sampler_backend,screen_availableHeight,screen_availableWidth,screen_colorDepth,screen_height,screen_pixelDepth,screen_screenX,screen_screenY,screen_width,sessionid,sound_buf_size,sound_channels,sound_freq,sound_sample_size,start,stim,subject_nr,subject_parity,system_os,time_prestudy,time_prestudy_isi,time_prestudy_stimpres,time_start,time_study,time_study_isi,time_study_logger,time_study_response,time_study_start,time_study_stimpres,time_test,time_test_isi,time_test_logger,time_test_response,time_test_start,time_test_stimpres,title,total_correct,total_response_time,total_responses,uniform_coordinates,width
undefined,undefined,undefined,undefined,white,no,Mozilla,Netscape,"5.0 (Macintosh; Intel Mac OS X 10_15_7) AppleWebKit/605.1.15 (KHTML, like Gecko) Version/15.1 Safari/605.1.15",xpyriment,legacy,legacy,0,uniform,0,0,0,0,24,24,24,0,0,0,0,0,0,0,0,0,0,,,,,,0,,07-02-22,07-02-22,13:45:07,Mon Mar 07 2022 13:45:07 GMT+0100 (CET),The main experiment item,yes,0,0,C:/Users/rrics/Documents/!!ResearchBMECOGSCI/gnet,0,0,0,prototype2.png,no,mono,no,18,no,black,no,no,768,1185,3.5.6,legacy,xpyriment,osweb,1.3.13,0,space,space,space,,19967,13438,19967,,2,legacy,900,1440,24,900,24,0,0,1440,1646657183414,1024,2,48000,-16,experiment,p6sarr1.png,1,odd,MacIntel,96,125817,122802,96,96,152359,153866,147371,127351,147371,96,,,,,,visual_patterns,0,0,0,yes,1366
undefined,undefined,undefined,undefined,white,no,Mozilla,Netscape,"5.0 (Macintosh; Intel Mac OS X 10_15_7) AppleWebKit/605.1.15 (KHTML, like Gecko) Version/15.1 Safari/605.1.15",xpyriment,legacy,legacy,0,uniform,0,0,0,0,24,24,24,0,0,1,1,1,1,1,0,1,0,,,,,,0,,07-02-22,07-02-22,13:45:07,Mon Mar 07 2022 13:45:07 GMT+0100 (CET),The main experiment item,yes,0,0,C:/Users/rrics/Documents/!!ResearchBMECOGSCI/gnet,0,0,0,prototype2.png,no,mono,no,18,no,black,no,no,768,1185,3.5.6,legacy,xpyriment,osweb,1.3.13,0,space,space,space,,19967,13438,19967,,2,legacy,900,1440,24,900,24,0,0,1440,1646657183414,1024,2,48000,-16,experiment,prototype3.png,1,odd,MacIntel,96,125817,122802,96,96,158881,160383,153895,127351,153895,96,,,,,,visual_patterns,0,0,0,yes,1366
undefined,undefined,undefined,undefined,white,no,Mozilla,Netscape,"5.0 (Macintosh; Intel Mac OS X 10_15_7) AppleWebKit/605.1.15 (KHTML, like Gecko) Version/15.1 Safari/605.1.15",xpyriment,legacy,legacy,0,uniform,0,0,0,0,24,24,24,0,0,2,2,2,2,2,0,2,0,,,,,,0,,07-02-22,07-02-22,13:45:07,Mon Mar 07 2022 13:45:07 GMT+0100 (CET),The main experiment item,yes,0,0,C:/Users/rrics/Documents/!!ResearchBMECOGSCI/gnet,0,0,0,prototype2.png,no,mono,no,18,no,black,no,no,768,1185,3.5.6,legacy,xpyriment,osweb,1.3.13,0,space,space,space,,19967,13438,19967,,2,legacy,900,1440,24,900,24,0,0,1440,1646657183414,1024,2,48000,-16,experiment,p3sarr1.png,1,odd,MacIntel,96,125817,122802,96,96,165404,166916,160415,127351,160415,96,,,,,,visual_patterns,0,0,0,yes,1366
undefined,undefined,undefined,undefined,white,no,Mozilla,Netscape,"5.0 (Macintosh; Intel Mac OS X 10_15_7) AppleWebKit/605.1.15 (KHTML, like Gecko) Version/15.1 Safari/605.1.15",xpyriment,legacy,legacy,0,uniform,0,0,0,0,24,24,24,0,0,3,3,3,3,3,0,3,0,,,,,,0,,07-02-22,07-02-22,13:45:07,Mon Mar 07 2022 13:45:07 GMT+0100 (CET),The main experiment item,yes,0,0,C:/Users/rrics/Documents/!!ResearchBMECOGSCI/gnet,0,0,0,prototype2.png,no,mono,no,18,no,black,no,no,768,1185,3.5.6,legacy,xpyriment,osweb,1.3.13,0,space,space,space,,19967,13438,19967,,2,legacy,900,1440,24,900,24,0,0,1440,1646657183414,1024,2,48000,-16,experiment,p9sarr2.png,1,odd,MacIntel,96,125817,122802,96,96,171935,173450,166950,127351,166950,96,,,,,,visual_patterns,0,0,0,yes,1366
undefined,undefined,undefined,undefined,white,no,Mozilla,Netscape,"5.0 (Macintosh; Intel Mac OS X 10_15_7) AppleWebKit/605.1.15 (KHTML, like Gecko) Version/15.1 Safari/605.1.15",xpyriment,legacy,legacy,0,uniform,0,0,0,0,24,24,24,0,0,4,4,4,4,4,0,4,0,,,,,,0,,07-02-22,07-02-22,13:45:07,Mon Mar 07 2022 13:45:07 GMT+0100 (CET),The main experiment item,yes,0,0,C:/Users/rrics/Documents/!!ResearchBMECOGSCI/gnet,0,0,0,prototype2.png,no,mono,no,18,no,black,no,no,768,1185,3.5.6,legacy,xpyriment,osweb,1.3.13,0,space,space,space,,19967,13438,19967,,2,legacy,900,1440,24,900,24,0,0,1440,1646657183414,1024,2,48000,-16,experiment,p4sarr2.png,1,odd,MacIntel,96,125817,122802,96,96,178469,179986,173483,127351,173483,96,,,,,,visual_patterns,0,0,0,yes,1366
undefined,undefined,undefined,undefined,white,no,Mozilla,Netscape,"5.0 (Macintosh; Intel Mac OS X 10_15_7) AppleWebKit/605.1.15 (KHTML, like Gecko) Version/15.1 Safari/605.1.15",xpyriment,legacy,legacy,0,uniform,0,0,0,0,24,24,24,0,0,5,5,5,5,5,0,5,0,,,,,,0,,07-02-22,07-02-22,13:45:07,Mon Mar 07 2022 13:45:07 GMT+0100 (CET),The main experiment item,yes,0,0,C:/Users/rrics/Documents/!!ResearchBMECOGSCI/gnet,0,0,0,prototype2.png,no,mono,no,18,no,black,no,no,768,1185,3.5.6,legacy,xpyriment,osweb,1.3.13,0,space,space,space,,19967,13438,19967,,2,legacy,900,1440,24,900,24,0,0,1440,1646657183414,1024,2,48000,-16,experiment,p4sarrshacol2.png,1,odd,MacIntel,96,125817,122802,96,96,185007,186518,180020,127351,180020,96,,,,,,visual_patterns,0,0,0,yes,1366
undefined,undefined,undefined,undefined,white,no,Mozilla,Netscape,"5.0 (Macintosh; Intel Mac OS X 10_15_7) AppleWebKit/605.1.15 (KHTML, like Gecko) Version/15.1 Safari/605.1.15",xpyriment,legacy,legacy,0,uniform,0,0,0,0,24,24,24,0,0,6,6,6,6,6,0,6,0,,,,,,0,,07-02-22,07-02-22,13:45:07,Mon Mar 07 2022 13:45:07 GMT+0100 (CET),The main experiment item,yes,0,0,C:/Users/rrics/Documents/!!ResearchBMECOGSCI/gnet,0,0,0,prototype2.png,no,mono,no,18,no,black,no,no,768,1185,3.5.6,legacy,xpyriment,osweb,1.3.13,0,space,space,space,,19967,13438,19967,,2,legacy,900,1440,24,900,24,0,0,1440,1646657183414,1024,2,48000,-16,experiment,p5sarrsha2.png,1,odd,MacIntel,96,125817,122802,96,96,191536,193051,186550,127351,186550,96,,,,,,visual_patterns,0,0,0,yes,1366
undefined,undefined,undefined,undefined,white,no,Mozilla,Netscape,"5.0 (Macintosh; Intel Mac OS X 10_15_7) AppleWebKit/605.1.15 (KHTML, like Gecko) Version/15.1 Safari/605.1.15",xpyriment,legacy,legacy,0,uniform,0,0,0,0,24,24,24,0,0,7,7,7,7,7,0,7,0,,,,,,0,,07-02-22,07-02-22,13:45:07,Mon Mar 07 2022 13:45:07 GMT+0100 (CET),The main experiment item,yes,0,0,C:/Users/rrics/Documents/!!ResearchBMECOGSCI/gnet,0,0,0,prototype2.png,no,mono,no,18,no,black,no,no,768,1185,3.5.6,legacy,xpyriment,osweb,1.3.13,0,space,space,space,,19967,13438,19967,,2,legacy,900,1440,24,900,24,0,0,1440,1646657183414,1024,2,48000,-16,experiment,p2sarr1.png,1,odd,MacIntel,96,125817,122802,96,96,198070,199585,193083,127351,193083,96,,,,,,visual_patterns,0,0,0,yes,1366
undefined,undefined,undefined,undefined,white,no,Mozilla,Netscape,"5.0 (Macintosh; Intel Mac OS X 10_15_7) AppleWebKit/605.1.15 (KHTML, like Gecko) Version/15.1 Safari/605.1.15",xpyriment,legacy,legacy,0,uniform,0,0,0,0,24,24,24,0,0,8,8,8,8,8,0,8,0,,,,,,0,,07-02-22,07-02-22,13:45:07,Mon Mar 07 2022 13:45:07 GMT+0100 (CET),The main experiment item,yes,0,0,C:/Users/rrics/Documents/!!ResearchBMECOGSCI/gnet,0,0,0,prototype2.png,no,mono,no,18,no,black,no,no,768,1185,3.5.6,legacy,xpyriment,osweb,1.3.13,0,space,space,space,,19967,13438,19967,,2,legacy,900,1440,24,900,24,0,0,1440,1646657183414,1024,2,48000,-16,experiment,prototype4.png,1,odd,MacIntel,96,125817,122802,96,96,204599,206102,199613,127351,199613,96,,,,,,visual_patterns,0,0,0,yes,1366
undefined,undefined,undefined,undefined,white,no,Mozilla,Netscape,"5.0 (Macintosh; Intel Mac OS X 10_15_7) AppleWebKit/605.1.15 (KHTML, like Gecko) Version/15.1 Safari/605.1.15",xpyriment,legacy,legacy,0,uniform,0,0,0,0,24,24,24,0,0,9,9,9,9,9,0,9,0,,,,,,0,,07-02-22,07-02-22,13:45:07,Mon Mar 07 2022 13:45:07 GMT+0100 (CET),The main experiment item,yes,0,0,C:/Users/rrics/Documents/!!ResearchBMECOGSCI/gnet,0,0,0,prototype2.png,no,mono,no,18,no,black,no,no,768,1185,3.5.6,legacy,xpyriment,osweb,1.3.13,0,space,space,space,,19967,13438,19967,,2,legacy,900,1440,24,900,24,0,0,1440,1646657183414,1024,2,48000,-16,experiment,p5sarrsha1.png,1,odd,MacIntel,96,125817,122802,96,96,211121,212636,206133,127351,206133,96,,,,,,visual_patterns,0,0,0,yes,1366
undefined,undefined,undefined,undefined,white,no,Mozilla,Netscape,"5.0 (Macintosh; Intel Mac OS X 10_15_7) AppleWebKit/605.1.15 (KHTML, like Gecko) Version/15.1 Safari/605.1.15",xpyriment,legacy,legacy,0,uniform,0,0,0,0,24,24,24,0,0,10,10,10,10,10,0,10,0,,,,,,0,,07-02-22,07-02-22,13:45:07,Mon Mar 07 2022 13:45:07 GMT+0100 (CET),The main experiment item,yes,0,0,C:/Users/rrics/Documents/!!ResearchBMECOGSCI/gnet,0,0,0,prototype2.png,no,mono,no,18,no,black,no,no,768,1185,3.5.6,legacy,xpyriment,osweb,1.3.13,0,space,space,space,,19967,13438,19967,,2,legacy,900,1440,24,900,24,0,0,1440,1646657183414,1024,2,48000,-16,experiment,p5sarrcol1.png,1,odd,MacIntel,96,125817,122802,96,96,217657,219170,212670,127351,212670,96,,,,,,visual_patterns,0,0,0,yes,1366
undefined,undefined,undefined,undefined,white,no,Mozilla,Netscape,"5.0 (Macintosh; Intel Mac OS X 10_15_7) AppleWebKit/605.1.15 (KHTML, like Gecko) Version/15.1 Safari/605.1.15",xpyriment,legacy,legacy,0,uniform,0,0,0,0,24,24,24,0,0,11,11,11,11,11,0,11,0,,,,,,0,,07-02-22,07-02-22,13:45:07,Mon Mar 07 2022 13:45:07 GMT+0100 (CET),The main experiment item,yes,0,0,C:/Users/rrics/Documents/!!ResearchBMECOGSCI/gnet,0,0,0,prototype2.png,no,mono,no,18,no,black,no,no,768,1185,3.5.6,legacy,xpyriment,osweb,1.3.13,0,space,space,space,,19967,13438,19967,,2,legacy,900,1440,24,900,24,0,0,1440,1646657183414,1024,2,48000,-16,experiment,p8sarr2.png,1,odd,MacIntel,96,125817,122802,96,96,224188,225704,219202,127351,219202,96,,,,,,visual_patterns,0,0,0,yes,1366
undefined,undefined,undefined,undefined,white,no,Mozilla,Netscape,"5.0 (Macintosh; Intel Mac OS X 10_15_7) AppleWebKit/605.1.15 (KHTML, like Gecko) Version/15.1 Safari/605.1.15",xpyriment,legacy,legacy,0,uniform,0,0,0,0,24,24,24,0,0,12,12,12,12,12,0,12,0,,,,,,0,,07-02-22,07-02-22,13:45:07,Mon Mar 07 2022 13:45:07 GMT+0100 (CET),The main experiment item,yes,0,0,C:/Users/rrics/Documents/!!ResearchBMECOGSCI/gnet,0,0,0,prototype2.png,no,mono,no,18,no,black,no,no,768,1185,3.5.6,legacy,xpyriment,osweb,1.3.13,0,space,space,space,,19967,13438,19967,,2,legacy,900,1440,24,900,24,0,0,1440,1646657183414,1024,2,48000,-16,experiment,p5sarrshacol2.png,1,odd,MacIntel,96,125817,122802,96,96,230722,232237,225736,127351,225736,96,,,,,,visual_patterns,0,0,0,yes,1366
undefined,undefined,undefined,undefined,white,no,Mozilla,Netscape,"5.0 (Macintosh; Intel Mac OS X 10_15_7) AppleWebKit/605.1.15 (KHTML, like Gecko) Version/15.1 Safari/605.1.15",xpyriment,legacy,legacy,0,uniform,0,0,0,0,24,24,24,0,0,13,13,13,13,13,0,13,0,,,,,,0,,07-02-22,07-02-22,13:45:07,Mon Mar 07 2022 13:45:07 GMT+0100 (CET),The main experiment item,yes,0,0,C:/Users/rrics/Documents/!!ResearchBMECOGSCI/gnet,0,0,0,prototype2.png,no,mono,no,18,no,black,no,no,768,1185,3.5.6,legacy,xpyriment,osweb,1.3.13,0,space,space,space,,19967,13438,19967,,2,legacy,900,1440,24,900,24,0,0,1440,1646657183414,1024,2,48000,-16,experiment,p8sarr1.png,1,odd,MacIntel,96,125817,122802,96,96,237263,238771,232278,127351,232278,96,,,,,,visual_patterns,0,0,0,yes,1366
undefined,undefined,undefined,undefined,white,no,Mozilla,Netscape,"5.0 (Macintosh; Intel Mac OS X 10_15_7) AppleWebKit/605.1.15 (KHTML, like Gecko) Version/15.1 Safari/605.1.15",xpyriment,legacy,legacy,0,uniform,0,0,0,0,24,24,24,0,0,14,14,14,14,14,0,14,0,,,,,,0,,07-02-22,07-02-22,13:45:07,Mon Mar 07 2022 13:45:07 GMT+0100 (CET),The main experiment item,yes,0,0,C:/Users/rrics/Documents/!!ResearchBMECOGSCI/gnet,0,0,0,prototype2.png,no,mono,no,18,no,black,no,no,768,1185,3.5.6,legacy,xpyriment,osweb,1.3.13,0,space,space,space,,19967,13438,19967,,2,legacy,900,1440,24,900,24,0,0,1440,1646657183414,1024,2,48000,-16,experiment,p3sarrcol1.png,1,odd,MacIntel,96,125817,122802,96,96,243791,245305,238803,127351,238803,96,,,,,,visual_patterns,0,0,0,yes,1366
undefined,undefined,undefined,undefined,white,no,Mozilla,Netscape,"5.0 (Macintosh; Intel Mac OS X 10_15_7) AppleWebKit/605.1.15 (KHTML, like Gecko) Version/15.1 Safari/605.1.15",xpyriment,legacy,legacy,0,uniform,0,0,0,0,24,24,24,0,0,15,15,15,15,15,0,15,0,,,,,,0,,07-02-22,07-02-22,13:45:07,Mon Mar 07 2022 13:45:07 GMT+0100 (CET),The main experiment item,yes,0,0,C:/Users/rrics/Documents/!!ResearchBMECOGSCI/gnet,0,0,0,prototype2.png,no,mono,no,18,no,black,no,no,768,1185,3.5.6,legacy,xpyriment,osweb,1.3.13,0,space,space,space,,19967,13438,19967,,2,legacy,900,1440,24,900,24,0,0,1440,1646657183414,1024,2,48000,-16,experiment,prototype1.png,1,odd,MacIntel,96,125817,122802,96,96,250324,251841,245336,127351,245336,96,,,,,,visual_patterns,0,0,0,yes,1366
undefined,undefined,undefined,undefined,white,no,Mozilla,Netscape,"5.0 (Macintosh; Intel Mac OS X 10_15_7) AppleWebKit/605.1.15 (KHTML, like Gecko) Version/15.1 Safari/605.1.15",xpyriment,legacy,legacy,0,uniform,0,0,0,0,24,24,24,0,0,16,16,16,16,16,0,16,0,,,,,,0,,07-02-22,07-02-22,13:45:07,Mon Mar 07 2022 13:45:07 GMT+0100 (CET),The main experiment item,yes,0,0,C:/Users/rrics/Documents/!!ResearchBMECOGSCI/gnet,0,0,0,prototype2.png,no,mono,no,18,no,black,no,no,768,1185,3.5.6,legacy,xpyriment,osweb,1.3.13,0,space,space,space,,19967,13438,19967,,2,legacy,900,1440,24,900,24,0,0,1440,1646657183414,1024,2,48000,-16,experiment,p2sarr2.png,1,odd,MacIntel,96,125817,122802,96,96,256860,258373,251874,127351,251874,96,,,,,,visual_patterns,0,0,0,yes,1366
undefined,undefined,undefined,undefined,white,no,Mozilla,Netscape,"5.0 (Macintosh; Intel Mac OS X 10_15_7) AppleWebKit/605.1.15 (KHTML, like Gecko) Version/15.1 Safari/605.1.15",xpyriment,legacy,legacy,0,uniform,0,0,0,0,24,24,24,0,0,17,17,17,17,17,0,17,0,,,,,,0,,07-02-22,07-02-22,13:45:07,Mon Mar 07 2022 13:45:07 GMT+0100 (CET),The main experiment item,yes,0,0,C:/Users/rrics/Documents/!!ResearchBMECOGSCI/gnet,0,0,0,prototype2.png,no,mono,no,18,no,black,no,no,768,1185,3.5.6,legacy,xpyriment,osweb,1.3.13,0,space,space,space,,19967,13438,19967,,2,legacy,900,1440,24,900,24,0,0,1440,1646657183414,1024,2,48000,-16,experiment,p3sarrsha2.png,1,odd,MacIntel,96,125817,122802,96,96,263392,264909,258405,127351,258405,96,,,,,,visual_patterns,0,0,0,yes,1366
undefined,undefined,undefined,undefined,white,no,Mozilla,Netscape,"5.0 (Macintosh; Intel Mac OS X 10_15_7) AppleWebKit/605.1.15 (KHTML, like Gecko) Version/15.1 Safari/605.1.15",xpyriment,legacy,legacy,0,uniform,0,0,0,0,24,24,24,0,0,18,18,18,18,18,0,18,0,,,,,,0,,07-02-22,07-02-22,13:45:07,Mon Mar 07 2022 13:45:07 GMT+0100 (CET),The main experiment item,yes,0,0,C:/Users/rrics/Documents/!!ResearchBMECOGSCI/gnet,0,0,0,prototype2.png,no,mono,no,18,no,black,no,no,768,1185,3.5.6,legacy,xpyriment,osweb,1.3.13,0,space,space,space,,19967,13438,19967,,2,legacy,900,1440,24,900,24,0,0,1440,1646657183414,1024,2,48000,-16,experiment,prototype4.png,1,odd,MacIntel,96,125817,122802,96,96,269920,271424,264936,127351,264936,96,,,,,,visual_patterns,0,0,0,yes,1366
undefined,undefined,undefined,undefined,white,no,Mozilla,Netscape,"5.0 (Macintosh; Intel Mac OS X 10_15_7) AppleWebKit/605.1.15 (KHTML, like Gecko) Version/15.1 Safari/605.1.15",xpyriment,legacy,legacy,0,uniform,0,0,0,0,24,24,24,0,0,19,19,19,19,19,0,19,0,,,,,,0,,07-02-22,07-02-22,13:45:07,Mon Mar 07 2022 13:45:07 GMT+0100 (CET),The main experiment item,yes,0,0,C:/Users/rrics/Documents/!!ResearchBMECOGSCI/gnet,0,0,0,prototype2.png,no,mono,no,18,no,black,no,no,768,1185,3.5.6,legacy,xpyriment,osweb,1.3.13,0,space,space,space,,19967,13438,19967,,2,legacy,900,1440,24,900,24,0,0,1440,1646657183414,1024,2,48000,-16,experiment,p3sarrsha1.png,1,odd,MacIntel,96,125817,122802,96,96,276444,277957,271457,127351,271457,96,,,,,,visual_patterns,0,0,0,yes,1366
undefined,undefined,undefined,undefined,white,no,Mozilla,Netscape,"5.0 (Macintosh; Intel Mac OS X 10_15_7) AppleWebKit/605.1.15 (KHTML, like Gecko) Version/15.1 Safari/605.1.15",xpyriment,legacy,legacy,0,uniform,0,0,0,0,24,24,24,0,0,20,20,20,20,20,0,20,0,,,,,,0,,07-02-22,07-02-22,13:45:07,Mon Mar 07 2022 13:45:07 GMT+0100 (CET),The main experiment item,yes,0,0,C:/Users/rrics/Documents/!!ResearchBMECOGSCI/gnet,0,0,0,prototype2.png,no,mono,no,18,no,black,no,no,768,1185,3.5.6,legacy,xpyriment,osweb,1.3.13,0,space,space,space,,19967,13438,19967,,2,legacy,900,1440,24,900,24,0,0,1440,1646657183414,1024,2,48000,-16,experiment,prototype2.png,1,odd,MacIntel,96,125817,122802,96,96,282970,284474,277985,127351,277985,96,,,,,,visual_patterns,0,0,0,yes,1366
undefined,undefined,undefined,undefined,white,no,Mozilla,Netscape,"5.0 (Macintosh; Intel Mac OS X 10_15_7) AppleWebKit/605.1.15 (KHTML, like Gecko) Version/15.1 Safari/605.1.15",xpyriment,legacy,legacy,0,uniform,0,0,0,0,24,24,24,0,0,21,21,21,21,21,0,21,0,,,,,,0,,07-02-22,07-02-22,13:45:07,Mon Mar 07 2022 13:45:07 GMT+0100 (CET),The main experiment item,yes,0,0,C:/Users/rrics/Documents/!!ResearchBMECOGSCI/gnet,0,0,0,prototype2.png,no,mono,no,18,no,black,no,no,768,1185,3.5.6,legacy,xpyriment,osweb,1.3.13,0,space,space,space,,19967,13438,19967,,2,legacy,900,1440,24,900,24,0,0,1440,1646657183414,1024,2,48000,-16,experiment,p4sarrcol2.png,1,odd,MacIntel,96,125817,122802,96,96,289859,291374,284506,127351,284506,96,,,,,,visual_patterns,0,0,0,yes,1366
undefined,undefined,undefined,undefined,white,no,Mozilla,Netscape,"5.0 (Macintosh; Intel Mac OS X 10_15_7) AppleWebKit/605.1.15 (KHTML, like Gecko) Version/15.1 Safari/605.1.15",xpyriment,legacy,legacy,0,uniform,0,0,0,0,24,24,24,0,0,22,22,22,22,22,0,22,0,,,,,,0,,07-02-22,07-02-22,13:45:07,Mon Mar 07 2022 13:45:07 GMT+0100 (CET),The main experiment item,yes,0,0,C:/Users/rrics/Documents/!!ResearchBMECOGSCI/gnet,0,0,0,prototype2.png,no,mono,no,18,no,black,no,no,768,1185,3.5.6,legacy,xpyriment,osweb,1.3.13,0,space,space,space,,19967,13438,19967,,2,legacy,900,1440,24,900,24,0,0,1440,1646657183414,1024,2,48000,-16,experiment,p5sarrshacol1.png,1,odd,MacIntel,96,125817,122802,96,96,296388,297892,291410,127351,291409,96,,,,,,visual_patterns,0,0,0,yes,1366
undefined,undefined,undefined,undefined,white,no,Mozilla,Netscape,"5.0 (Macintosh; Intel Mac OS X 10_15_7) AppleWebKit/605.1.15 (KHTML, like Gecko) Version/15.1 Safari/605.1.15",xpyriment,legacy,legacy,0,uniform,0,0,0,0,24,24,24,0,0,23,23,23,23,23,0,23,0,,,,,,0,,07-02-22,07-02-22,13:45:07,Mon Mar 07 2022 13:45:07 GMT+0100 (CET),The main experiment item,yes,0,0,C:/Users/rrics/Documents/!!ResearchBMECOGSCI/gnet,0,0,0,prototype2.png,no,mono,no,18,no,black,no,no,768,1185,3.5.6,legacy,xpyriment,osweb,1.3.13,0,space,space,space,,19967,13438,19967,,2,legacy,900,1440,24,900,24,0,0,1440,1646657183414,1024,2,48000,-16,experiment,prototype2.png,1,odd,MacIntel,96,125817,122802,96,96,302905,304409,297922,127351,297922,96,,,,,,visual_patterns,0,0,0,yes,1366
undefined,undefined,undefined,undefined,white,no,Mozilla,Netscape,"5.0 (Macintosh; Intel Mac OS X 10_15_7) AppleWebKit/605.1.15 (KHTML, like Gecko) Version/15.1 Safari/605.1.15",xpyriment,legacy,legacy,0,uniform,0,0,0,0,24,24,24,0,0,24,24,24,24,24,0,24,0,,,,,,0,,07-02-22,07-02-22,13:45:07,Mon Mar 07 2022 13:45:07 GMT+0100 (CET),The main experiment item,yes,0,0,C:/Users/rrics/Documents/!!ResearchBMECOGSCI/gnet,0,0,0,prototype2.png,no,mono,no,18,no,black,no,no,768,1185,3.5.6,legacy,xpyriment,osweb,1.3.13,0,space,space,space,,19967,13438,19967,,2,legacy,900,1440,24,900,24,0,0,1440,1646657183414,1024,2,48000,-16,experiment,p4sarrsha2.png,1,odd,MacIntel,96,125817,122802,96,96,309425,310928,304453,127351,304453,96,,,,,,visual_patterns,0,0,0,yes,1366
undefined,undefined,undefined,undefined,white,no,Mozilla,Netscape,"5.0 (Macintosh; Intel Mac OS X 10_15_7) AppleWebKit/605.1.15 (KHTML, like Gecko) Version/15.1 Safari/605.1.15",xpyriment,legacy,legacy,0,uniform,0,0,0,0,24,24,24,0,0,25,25,25,25,25,0,25,0,,,,,,0,,07-02-22,07-02-22,13:45:07,Mon Mar 07 2022 13:45:07 GMT+0100 (CET),The main experiment item,yes,0,0,C:/Users/rrics/Documents/!!ResearchBMECOGSCI/gnet,0,0,0,prototype2.png,no,mono,no,18,no,black,no,no,768,1185,3.5.6,legacy,xpyriment,osweb,1.3.13,0,space,space,space,,19967,13438,19967,,2,legacy,900,1440,24,900,24,0,0,1440,1646657183414,1024,2,48000,-16,experiment,p9sarr1.png,1,odd,MacIntel,96,125817,122802,96,96,315949,317460,310962,127351,310961,96,,,,,,visual_patterns,0,0,0,yes,1366
undefined,undefined,undefined,undefined,white,no,Mozilla,Netscape,"5.0 (Macintosh; Intel Mac OS X 10_15_7) AppleWebKit/605.1.15 (KHTML, like Gecko) Version/15.1 Safari/605.1.15",xpyriment,legacy,legacy,0,uniform,0,0,0,0,24,24,24,0,0,26,26,26,26,26,0,26,0,,,,,,0,,07-02-22,07-02-22,13:45:07,Mon Mar 07 2022 13:45:07 GMT+0100 (CET),The main experiment item,yes,0,0,C:/Users/rrics/Documents/!!ResearchBMECOGSCI/gnet,0,0,0,prototype2.png,no,mono,no,18,no,black,no,no,768,1185,3.5.6,legacy,xpyriment,osweb,1.3.13,0,space,space,space,,19967,13438,19967,,2,legacy,900,1440,24,900,24,0,0,1440,1646657183414,1024,2,48000,-16,experiment,prototype1.png,1,odd,MacIntel,96,125817,122802,96,96,322471,323977,317487,127351,317487,96,,,,,,visual_patterns,0,0,0,yes,1366
undefined,undefined,undefined,undefined,white,no,Mozilla,Netscape,"5.0 (Macintosh; Intel Mac OS X 10_15_7) AppleWebKit/605.1.15 (KHTML, like Gecko) Version/15.1 Safari/605.1.15",xpyriment,legacy,legacy,0,uniform,0,0,0,0,24,24,24,0,0,27,27,27,27,27,0,27,0,,,,,,0,,07-02-22,07-02-22,13:45:07,Mon Mar 07 2022 13:45:07 GMT+0100 (CET),The main experiment item,yes,0,0,C:/Users/rrics/Documents/!!ResearchBMECOGSCI/gnet,0,0,0,prototype2.png,no,mono,no,18,no,black,no,no,768,1185,3.5.6,legacy,xpyriment,osweb,1.3.13,0,space,space,space,,19967,13438,19967,,2,legacy,900,1440,24,900,24,0,0,1440,1646657183414,1024,2,48000,-16,experiment,p4sarrcol1.png,1,odd,MacIntel,96,125817,122802,96,96,328995,330511,324012,127351,324012,96,,,,,,visual_patterns,0,0,0,yes,1366
undefined,undefined,undefined,undefined,white,no,Mozilla,Netscape,"5.0 (Macintosh; Intel Mac OS X 10_15_7) AppleWebKit/605.1.15 (KHTML, like Gecko) Version/15.1 Safari/605.1.15",xpyriment,legacy,legacy,0,uniform,0,0,0,0,24,24,24,0,0,28,28,28,28,28,0,28,0,,,,,,0,,07-02-22,07-02-22,13:45:07,Mon Mar 07 2022 13:45:07 GMT+0100 (CET),The main experiment item,yes,0,0,C:/Users/rrics/Documents/!!ResearchBMECOGSCI/gnet,0,0,0,prototype2.png,no,mono,no,18,no,black,no,no,768,1185,3.5.6,legacy,xpyriment,osweb,1.3.13,0,space,space,space,,19967,13438,19967,,2,legacy,900,1440,24,900,24,0,0,1440,1646657183414,1024,2,48000,-16,experiment,prototype4.png,1,odd,MacIntel,96,125817,122802,96,96,335525,337028,330539,127351,330539,96,,,,,,visual_patterns,0,0,0,yes,1366
undefined,undefined,undefined,undefined,white,no,Mozilla,Netscape,"5.0 (Macintosh; Intel Mac OS X 10_15_7) AppleWebKit/605.1.15 (KHTML, like Gecko) Version/15.1 Safari/605.1.15",xpyriment,legacy,legacy,0,uniform,0,0,0,0,24,24,24,0,0,29,29,29,29,29,0,29,0,,,,,,0,,07-02-22,07-02-22,13:45:07,Mon Mar 07 2022 13:45:07 GMT+0100 (CET),The main experiment item,yes,0,0,C:/Users/rrics/Documents/!!ResearchBMECOGSCI/gnet,0,0,0,prototype2.png,no,mono,no,18,no,black,no,no,768,1185,3.5.6,legacy,xpyriment,osweb,1.3.13,0,space,space,space,,19967,13438,19967,,2,legacy,900,1440,24,900,24,0,0,1440,1646657183414,1024,2,48000,-16,experiment,prototype5.png,1,odd,MacIntel,96,125817,122802,96,96,342041,343545,337056,127351,337055,96,,,,,,visual_patterns,0,0,0,yes,1366
undefined,undefined,undefined,undefined,white,no,Mozilla,Netscape,"5.0 (Macintosh; Intel Mac OS X 10_15_7) AppleWebKit/605.1.15 (KHTML, like Gecko) Version/15.1 Safari/605.1.15",xpyriment,legacy,legacy,0,uniform,0,0,0,0,24,24,24,0,0,30,30,30,30,30,0,30,0,,,,,,0,,07-02-22,07-02-22,13:45:07,Mon Mar 07 2022 13:45:07 GMT+0100 (CET),The main experiment item,yes,0,0,C:/Users/rrics/Documents/!!ResearchBMECOGSCI/gnet,0,0,0,prototype2.png,no,mono,no,18,no,black,no,no,768,1185,3.5.6,legacy,xpyriment,osweb,1.3.13,0,space,space,space,,19967,13438,19967,,2,legacy,900,1440,24,900,24,0,0,1440,1646657183414,1024,2,48000,-16,experiment,p5sarrcol2.png,1,odd,MacIntel,96,125817,122802,96,96,348561,350062,343577,127351,343577,96,,,,,,visual_patterns,0,0,0,yes,1366
undefined,undefined,undefined,undefined,white,no,Mozilla,Netscape,"5.0 (Macintosh; Intel Mac OS X 10_15_7) AppleWebKit/605.1.15 (KHTML, like Gecko) Version/15.1 Safari/605.1.15",xpyriment,legacy,legacy,0,uniform,0,0,0,0,24,24,24,0,0,31,31,31,31,31,0,31,0,,,,,,0,,07-02-22,07-02-22,13:45:07,Mon Mar 07 2022 13:45:07 GMT+0100 (CET),The main experiment item,yes,0,0,C:/Users/rrics/Documents/!!ResearchBMECOGSCI/gnet,0,0,0,prototype2.png,no,mono,no,18,no,black,no,no,768,1185,3.5.6,legacy,xpyriment,osweb,1.3.13,0,space,space,space,,19967,13438,19967,,2,legacy,900,1440,24,900,24,0,0,1440,1646657183414,1024,2,48000,-16,experiment,p2sarrsha2.png,1,odd,MacIntel,96,125817,122802,96,96,355080,356596,350093,127351,350093,96,,,,,,visual_patterns,0,0,0,yes,1366
undefined,undefined,undefined,undefined,white,no,Mozilla,Netscape,"5.0 (Macintosh; Intel Mac OS X 10_15_7) AppleWebKit/605.1.15 (KHTML, like Gecko) Version/15.1 Safari/605.1.15",xpyriment,legacy,legacy,0,uniform,0,0,0,0,24,24,24,0,0,32,32,32,32,32,0,32,0,,,,,,0,,07-02-22,07-02-22,13:45:07,Mon Mar 07 2022 13:45:07 GMT+0100 (CET),The main experiment item,yes,0,0,C:/Users/rrics/Documents/!!ResearchBMECOGSCI/gnet,0,0,0,prototype2.png,no,mono,no,18,no,black,no,no,768,1185,3.5.6,legacy,xpyriment,osweb,1.3.13,0,space,space,space,,19967,13438,19967,,2,legacy,900,1440,24,900,24,0,0,1440,1646657183414,1024,2,48000,-16,experiment,p5sarr1.png,1,odd,MacIntel,96,125817,122802,96,96,361617,363130,356628,127351,356628,96,,,,,,visual_patterns,0,0,0,yes,1366
undefined,undefined,undefined,undefined,white,no,Mozilla,Netscape,"5.0 (Macintosh; Intel Mac OS X 10_15_7) AppleWebKit/605.1.15 (KHTML, like Gecko) Version/15.1 Safari/605.1.15",xpyriment,legacy,legacy,0,uniform,0,0,0,0,24,24,24,0,0,33,33,33,33,33,0,33,0,,,,,,0,,07-02-22,07-02-22,13:45:07,Mon Mar 07 2022 13:45:07 GMT+0100 (CET),The main experiment item,yes,0,0,C:/Users/rrics/Documents/!!ResearchBMECOGSCI/gnet,0,0,0,prototype2.png,no,mono,no,18,no,black,no,no,768,1185,3.5.6,legacy,xpyriment,osweb,1.3.13,0,space,space,space,,19967,13438,19967,,2,legacy,900,1440,24,900,24,0,0,1440,1646657183414,1024,2,48000,-16,experiment,p3sarrshacol1.png,1,odd,MacIntel,96,125817,122802,96,96,368146,369647,363161,127351,363160,96,,,,,,visual_patterns,0,0,0,yes,1366
undefined,undefined,undefined,undefined,white,no,Mozilla,Netscape,"5.0 (Macintosh; Intel Mac OS X 10_15_7) AppleWebKit/605.1.15 (KHTML, like Gecko) Version/15.1 Safari/605.1.15",xpyriment,legacy,legacy,0,uniform,0,0,0,0,24,24,24,0,0,34,34,34,34,34,0,34,0,,,,,,0,,07-02-22,07-02-22,13:45:07,Mon Mar 07 2022 13:45:07 GMT+0100 (CET),The main experiment item,yes,0,0,C:/Users/rrics/Documents/!!ResearchBMECOGSCI/gnet,0,0,0,prototype2.png,no,mono,no,18,no,black,no,no,768,1185,3.5.6,legacy,xpyriment,osweb,1.3.13,0,space,space,space,,19967,13438,19967,,2,legacy,900,1440,24,900,24,0,0,1440,1646657183414,1024,2,48000,-16,experiment,prototype1.png,1,odd,MacIntel,96,125817,122802,96,96,374658,376164,369675,127351,369675,96,,,,,,visual_patterns,0,0,0,yes,1366
undefined,undefined,undefined,undefined,white,no,Mozilla,Netscape,"5.0 (Macintosh; Intel Mac OS X 10_15_7) AppleWebKit/605.1.15 (KHTML, like Gecko) Version/15.1 Safari/605.1.15",xpyriment,legacy,legacy,0,uniform,0,0,0,0,24,24,24,0,0,35,35,35,35,35,0,35,0,,,,,,0,,07-02-22,07-02-22,13:45:07,Mon Mar 07 2022 13:45:07 GMT+0100 (CET),The main experiment item,yes,0,0,C:/Users/rrics/Documents/!!ResearchBMECOGSCI/gnet,0,0,0,prototype2.png,no,mono,no,18,no,black,no,no,768,1185,3.5.6,legacy,xpyriment,osweb,1.3.13,0,space,space,space,,19967,13438,19967,,2,legacy,900,1440,24,900,24,0,0,1440,1646657183414,1024,2,48000,-16,experiment,p4sarrshacol1.png,1,odd,MacIntel,96,125817,122802,96,96,381186,382699,376195,127351,376195,96,,,,,,visual_patterns,0,0,0,yes,1366
undefined,undefined,undefined,undefined,white,no,Mozilla,Netscape,"5.0 (Macintosh; Intel Mac OS X 10_15_7) AppleWebKit/605.1.15 (KHTML, like Gecko) Version/15.1 Safari/605.1.15",xpyriment,legacy,legacy,0,uniform,0,0,0,0,24,24,24,0,0,36,36,36,36,36,0,36,0,,,,,,0,,07-02-22,07-02-22,13:45:07,Mon Mar 07 2022 13:45:07 GMT+0100 (CET),The main experiment item,yes,0,0,C:/Users/rrics/Documents/!!ResearchBMECOGSCI/gnet,0,0,0,prototype2.png,no,mono,no,18,no,black,no,no,768,1185,3.5.6,legacy,xpyriment,osweb,1.3.13,0,space,space,space,,19967,13438,19967,,2,legacy,900,1440,24,900,24,0,0,1440,1646657183414,1024,2,48000,-16,experiment,prototype3.png,1,odd,MacIntel,96,125817,122802,96,96,387710,389215,382727,127351,382727,96,,,,,,visual_patterns,0,0,0,yes,1366
undefined,undefined,undefined,undefined,white,no,Mozilla,Netscape,"5.0 (Macintosh; Intel Mac OS X 10_15_7) AppleWebKit/605.1.15 (KHTML, like Gecko) Version/15.1 Safari/605.1.15",xpyriment,legacy,legacy,0,uniform,0,0,0,0,24,24,24,0,0,37,37,37,37,37,0,37,0,,,,,,0,,07-02-22,07-02-22,13:45:07,Mon Mar 07 2022 13:45:07 GMT+0100 (CET),The main experiment item,yes,0,0,C:/Users/rrics/Documents/!!ResearchBMECOGSCI/gnet,0,0,0,prototype2.png,no,mono,no,18,no,black,no,no,768,1185,3.5.6,legacy,xpyriment,osweb,1.3.13,0,space,space,space,,19967,13438,19967,,2,legacy,900,1440,24,900,24,0,0,1440,1646657183414,1024,2,48000,-16,experiment,prototype3.png,1,odd,MacIntel,96,125817,122802,96,96,394225,395732,389242,127351,389242,96,,,,,,visual_patterns,0,0,0,yes,1366
undefined,undefined,undefined,undefined,white,no,Mozilla,Netscape,"5.0 (Macintosh; Intel Mac OS X 10_15_7) AppleWebKit/605.1.15 (KHTML, like Gecko) Version/15.1 Safari/605.1.15",xpyriment,legacy,legacy,0,uniform,0,0,0,0,24,24,24,0,0,38,38,38,38,38,0,38,0,,,,,,0,,07-02-22,07-02-22,13:45:07,Mon Mar 07 2022 13:45:07 GMT+0100 (CET),The main experiment item,yes,0,0,C:/Users/rrics/Documents/!!ResearchBMECOGSCI/gnet,0,0,0,prototype2.png,no,mono,no,18,no,black,no,no,768,1185,3.5.6,legacy,xpyriment,osweb,1.3.13,0,space,space,space,,19967,13438,19967,,2,legacy,900,1440,24,900,24,0,0,1440,1646657183414,1024,2,48000,-16,experiment,p7sarr1.png,1,odd,MacIntel,96,125817,122802,96,96,400749,402266,395763,127351,395763,96,,,,,,visual_patterns,0,0,0,yes,1366
undefined,undefined,undefined,undefined,white,no,Mozilla,Netscape,"5.0 (Macintosh; Intel Mac OS X 10_15_7) AppleWebKit/605.1.15 (KHTML, like Gecko) Version/15.1 Safari/605.1.15",xpyriment,legacy,legacy,0,uniform,0,0,0,0,24,24,24,0,0,39,39,39,39,39,0,39,0,,,,,,0,,07-02-22,07-02-22,13:45:07,Mon Mar 07 2022 13:45:07 GMT+0100 (CET),The main experiment item,yes,0,0,C:/Users/rrics/Documents/!!ResearchBMECOGSCI/gnet,0,0,0,prototype2.png,no,mono,no,18,no,black,no,no,768,1185,3.5.6,legacy,xpyriment,osweb,1.3.13,0,space,space,space,,19967,13438,19967,,2,legacy,900,1440,24,900,24,0,0,1440,1646657183414,1024,2,48000,-16,experiment,p1sarrsha1.png,1,odd,MacIntel,96,125817,122802,96,96,407286,408799,402297,127351,402296,96,,,,,,visual_patterns,0,0,0,yes,1366
undefined,undefined,undefined,undefined,white,no,Mozilla,Netscape,"5.0 (Macintosh; Intel Mac OS X 10_15_7) AppleWebKit/605.1.15 (KHTML, like Gecko) Version/15.1 Safari/605.1.15",xpyriment,legacy,legacy,0,uniform,0,0,0,0,24,24,24,0,0,40,40,40,40,40,0,40,0,,,,,,0,,07-02-22,07-02-22,13:45:07,Mon Mar 07 2022 13:45:07 GMT+0100 (CET),The main experiment item,yes,0,0,C:/Users/rrics/Documents/!!ResearchBMECOGSCI/gnet,0,0,0,prototype2.png,no,mono,no,18,no,black,no,no,768,1185,3.5.6,legacy,xpyriment,osweb,1.3.13,0,space,space,space,,19967,13438,19967,,2,legacy,900,1440,24,900,24,0,0,1440,1646657183414,1024,2,48000,-16,experiment,prototype5.png,1,odd,MacIntel,96,125817,122802,96,96,413810,415316,408828,127351,408828,96,,,,,,visual_patterns,0,0,0,yes,1366
undefined,undefined,undefined,undefined,white,no,Mozilla,Netscape,"5.0 (Macintosh; Intel Mac OS X 10_15_7) AppleWebKit/605.1.15 (KHTML, like Gecko) Version/15.1 Safari/605.1.15",xpyriment,legacy,legacy,0,uniform,0,0,0,0,24,24,24,0,0,41,41,41,41,41,0,41,0,,,,,,0,,07-02-22,07-02-22,13:45:07,Mon Mar 07 2022 13:45:07 GMT+0100 (CET),The main experiment item,yes,0,0,C:/Users/rrics/Documents/!!ResearchBMECOGSCI/gnet,0,0,0,prototype2.png,no,mono,no,18,no,black,no,no,768,1185,3.5.6,legacy,xpyriment,osweb,1.3.13,0,space,space,space,,19967,13438,19967,,2,legacy,900,1440,24,900,24,0,0,1440,1646657183414,1024,2,48000,-16,experiment,p3sarrshacol2.png,1,odd,MacIntel,96,125817,122802,96,96,420336,421850,415348,127351,415348,96,,,,,,visual_patterns,0,0,0,yes,1366
undefined,undefined,undefined,undefined,white,no,Mozilla,Netscape,"5.0 (Macintosh; Intel Mac OS X 10_15_7) AppleWebKit/605.1.15 (KHTML, like Gecko) Version/15.1 Safari/605.1.15",xpyriment,legacy,legacy,0,uniform,0,0,0,0,24,24,24,0,0,42,42,42,42,42,0,42,0,,,,,,0,,07-02-22,07-02-22,13:45:07,Mon Mar 07 2022 13:45:07 GMT+0100 (CET),The main experiment item,yes,0,0,C:/Users/rrics/Documents/!!ResearchBMECOGSCI/gnet,0,0,0,prototype2.png,no,mono,no,18,no,black,no,no,768,1185,3.5.6,legacy,xpyriment,osweb,1.3.13,0,space,space,space,,19967,13438,19967,,2,legacy,900,1440,24,900,24,0,0,1440,1646657183414,1024,2,48000,-16,experiment,p3sarrcol2.png,1,odd,MacIntel,96,125817,122802,96,96,426871,428384,421884,127351,421884,96,,,,,,visual_patterns,0,0,0,yes,1366
undefined,undefined,undefined,undefined,white,no,Mozilla,Netscape,"5.0 (Macintosh; Intel Mac OS X 10_15_7) AppleWebKit/605.1.15 (KHTML, like Gecko) Version/15.1 Safari/605.1.15",xpyriment,legacy,legacy,0,uniform,0,0,0,0,24,24,24,0,0,43,43,43,43,43,0,43,0,,,,,,0,,07-02-22,07-02-22,13:45:07,Mon Mar 07 2022 13:45:07 GMT+0100 (CET),The main experiment item,yes,0,0,C:/Users/rrics/Documents/!!ResearchBMECOGSCI/gnet,0,0,0,prototype2.png,no,mono,no,18,no,black,no,no,768,1185,3.5.6,legacy,xpyriment,osweb,1.3.13,0,space,space,space,,19967,13438,19967,,2,legacy,900,1440,24,900,24,0,0,1440,1646657183414,1024,2,48000,-16,experiment,p3sarr2.png,1,odd,MacIntel,96,125817,122802,96,96,433400,434901,428416,127351,428415,96,,,,,,visual_patterns,0,0,0,yes,1366
undefined,undefined,undefined,undefined,white,no,Mozilla,Netscape,"5.0 (Macintosh; Intel Mac OS X 10_15_7) AppleWebKit/605.1.15 (KHTML, like Gecko) Version/15.1 Safari/605.1.15",xpyriment,legacy,legacy,0,uniform,0,0,0,0,24,24,24,0,0,44,44,44,44,44,0,44,0,,,,,,0,,07-02-22,07-02-22,13:45:07,Mon Mar 07 2022 13:45:07 GMT+0100 (CET),The main experiment item,yes,0,0,C:/Users/rrics/Documents/!!ResearchBMECOGSCI/gnet,0,0,0,prototype2.png,no,mono,no,18,no,black,no,no,768,1185,3.5.6,legacy,xpyriment,osweb,1.3.13,0,space,space,space,,19967,13438,19967,,2,legacy,900,1440,24,900,24,0,0,1440,1646657183414,1024,2,48000,-16,experiment,p2sarrsha1.png,1,odd,MacIntel,96,125817,122802,96,96,439917,441418,434933,127351,434933,96,,,,,,visual_patterns,0,0,0,yes,1366
undefined,undefined,undefined,undefined,white,no,Mozilla,Netscape,"5.0 (Macintosh; Intel Mac OS X 10_15_7) AppleWebKit/605.1.15 (KHTML, like Gecko) Version/15.1 Safari/605.1.15",xpyriment,legacy,legacy,0,uniform,0,0,0,0,24,24,24,0,0,45,45,45,45,45,0,45,0,,,,,,0,,07-02-22,07-02-22,13:45:07,Mon Mar 07 2022 13:45:07 GMT+0100 (CET),The main experiment item,yes,0,0,C:/Users/rrics/Documents/!!ResearchBMECOGSCI/gnet,0,0,0,prototype2.png,no,mono,no,18,no,black,no,no,768,1185,3.5.6,legacy,xpyriment,osweb,1.3.13,0,space,space,space,,19967,13438,19967,,2,legacy,900,1440,24,900,24,0,0,1440,1646657183414,1024,2,48000,-16,experiment,p4sarrsha1.png,1,odd,MacIntel,96,125817,122802,96,96,446434,447935,441450,127351,441449,96,,,,,,visual_patterns,0,0,0,yes,1366
undefined,undefined,undefined,undefined,white,no,Mozilla,Netscape,"5.0 (Macintosh; Intel Mac OS X 10_15_7) AppleWebKit/605.1.15 (KHTML, like Gecko) Version/15.1 Safari/605.1.15",xpyriment,legacy,legacy,0,uniform,0,0,0,0,24,24,24,0,0,46,46,46,46,46,0,46,0,,,,,,0,,07-02-22,07-02-22,13:45:07,Mon Mar 07 2022 13:45:07 GMT+0100 (CET),The main experiment item,yes,0,0,C:/Users/rrics/Documents/!!ResearchBMECOGSCI/gnet,0,0,0,prototype2.png,no,mono,no,18,no,black,no,no,768,1185,3.5.6,legacy,xpyriment,osweb,1.3.13,0,space,space,space,,19967,13438,19967,,2,legacy,900,1440,24,900,24,0,0,1440,1646657183414,1024,2,48000,-16,experiment,p1sarrcol1.png,1,odd,MacIntel,96,125817,122802,96,96,452953,454469,447966,127351,447966,96,,,,,,visual_patterns,0,0,0,yes,1366
undefined,undefined,undefined,undefined,white,no,Mozilla,Netscape,"5.0 (Macintosh; Intel Mac OS X 10_15_7) AppleWebKit/605.1.15 (KHTML, like Gecko) Version/15.1 Safari/605.1.15",xpyriment,legacy,legacy,0,uniform,0,0,0,0,24,24,24,0,0,47,47,47,47,47,0,47,0,,,,,,0,,07-02-22,07-02-22,13:45:07,Mon Mar 07 2022 13:45:07 GMT+0100 (CET),The main experiment item,yes,0,0,C:/Users/rrics/Documents/!!ResearchBMECOGSCI/gnet,0,0,0,prototype2.png,no,mono,no,18,no,black,no,no,768,1185,3.5.6,legacy,xpyriment,osweb,1.3.13,0,space,space,space,,19967,13438,19967,,2,legacy,900,1440,24,900,24,0,0,1440,1646657183414,1024,2,48000,-16,experiment,p1sarrsha2.png,1,odd,MacIntel,96,125817,122802,96,96,459486,461003,454500,127351,454500,96,,,,,,visual_patterns,0,0,0,yes,1366
undefined,undefined,undefined,undefined,white,no,Mozilla,Netscape,"5.0 (Macintosh; Intel Mac OS X 10_15_7) AppleWebKit/605.1.15 (KHTML, like Gecko) Version/15.1 Safari/605.1.15",xpyriment,legacy,legacy,0,uniform,0,0,0,0,24,24,24,0,0,48,48,48,48,48,0,48,0,,,,,,0,,07-02-22,07-02-22,13:45:07,Mon Mar 07 2022 13:45:07 GMT+0100 (CET),The main experiment item,yes,0,0,C:/Users/rrics/Documents/!!ResearchBMECOGSCI/gnet,0,0,0,prototype2.png,no,mono,no,18,no,black,no,no,768,1185,3.5.6,legacy,xpyriment,osweb,1.3.13,0,space,space,space,,19967,13438,19967,,2,legacy,900,1440,24,900,24,0,0,1440,1646657183414,1024,2,48000,-16,experiment,p7sarr2.png,1,odd,MacIntel,96,125817,122802,96,96,466022,467537,461037,127351,461037,96,,,,,,visual_patterns,0,0,0,yes,1366
undefined,undefined,undefined,undefined,white,no,Mozilla,Netscape,"5.0 (Macintosh; Intel Mac OS X 10_15_7) AppleWebKit/605.1.15 (KHTML, like Gecko) Version/15.1 Safari/605.1.15",xpyriment,legacy,legacy,0,uniform,0,0,0,0,24,24,24,0,0,49,49,49,49,49,0,49,0,,,,,,0,,07-02-22,07-02-22,13:45:07,Mon Mar 07 2022 13:45:07 GMT+0100 (CET),The main experiment item,yes,0,0,C:/Users/rrics/Documents/!!ResearchBMECOGSCI/gnet,0,0,0,prototype2.png,no,mono,no,18,no,black,no,no,768,1185,3.5.6,legacy,xpyriment,osweb,1.3.13,0,space,space,space,,19967,13438,19967,,2,legacy,900,1440,24,900,24,0,0,1440,1646657183414,1024,2,48000,-16,experiment,p4sarr1.png,1,odd,MacIntel,96,125817,122802,96,96,472557,474070,467569,127351,467568,96,,,,,,visual_patterns,0,0,0,yes,1366
undefined,undefined,undefined,undefined,white,no,Mozilla,Netscape,"5.0 (Macintosh; Intel Mac OS X 10_15_7) AppleWebKit/605.1.15 (KHTML, like Gecko) Version/15.1 Safari/605.1.15",xpyriment,legacy,legacy,0,uniform,0,0,0,0,24,24,24,0,0,50,50,50,50,50,0,50,0,,,,,,0,,07-02-22,07-02-22,13:45:07,Mon Mar 07 2022 13:45:07 GMT+0100 (CET),The main experiment item,yes,0,0,C:/Users/rrics/Documents/!!ResearchBMECOGSCI/gnet,0,0,0,prototype2.png,no,mono,no,18,no,black,no,no,768,1185,3.5.6,legacy,xpyriment,osweb,1.3.13,0,space,space,space,,19967,13438,19967,,2,legacy,900,1440,24,900,24,0,0,1440,1646657183414,1024,2,48000,-16,experiment,p10sarr1.png,1,odd,MacIntel,96,125817,122802,96,96,479089,480604,474102,127351,474102,96,,,,,,visual_patterns,0,0,0,yes,1366
undefined,undefined,undefined,undefined,white,no,Mozilla,Netscape,"5.0 (Macintosh; Intel Mac OS X 10_15_7) AppleWebKit/605.1.15 (KHTML, like Gecko) Version/15.1 Safari/605.1.15",xpyriment,legacy,legacy,0,uniform,0,0,0,0,24,24,24,0,0,51,51,51,51,51,0,51,0,,,,,,0,,07-02-22,07-02-22,13:45:07,Mon Mar 07 2022 13:45:07 GMT+0100 (CET),The main experiment item,yes,0,0,C:/Users/rrics/Documents/!!ResearchBMECOGSCI/gnet,0,0,0,prototype2.png,no,mono,no,18,no,black,no,no,768,1185,3.5.6,legacy,xpyriment,osweb,1.3.13,0,space,space,space,,19967,13438,19967,,2,legacy,900,1440,24,900,24,0,0,1440,1646657183414,1024,2,48000,-16,experiment,prototype3.png,1,odd,MacIntel,96,125817,122802,96,96,485616,487121,480633,127351,480633,96,,,,,,visual_patterns,0,0,0,yes,1366
undefined,undefined,undefined,undefined,white,no,Mozilla,Netscape,"5.0 (Macintosh; Intel Mac OS X 10_15_7) AppleWebKit/605.1.15 (KHTML, like Gecko) Version/15.1 Safari/605.1.15",xpyriment,legacy,legacy,0,uniform,0,0,0,0,24,24,24,0,0,52,52,52,52,52,0,52,0,,,,,,0,,07-02-22,07-02-22,13:45:07,Mon Mar 07 2022 13:45:07 GMT+0100 (CET),The main experiment item,yes,0,0,C:/Users/rrics/Documents/!!ResearchBMECOGSCI/gnet,0,0,0,prototype2.png,no,mono,no,18,no,black,no,no,768,1185,3.5.6,legacy,xpyriment,osweb,1.3.13,0,space,space,space,,19967,13438,19967,,2,legacy,900,1440,24,900,24,0,0,1440,1646657183414,1024,2,48000,-16,experiment,p1sarr1.png,1,odd,MacIntel,96,125817,122802,96,96,492139,493655,487153,127351,487153,96,,,,,,visual_patterns,0,0,0,yes,1366
undefined,undefined,undefined,undefined,white,no,Mozilla,Netscape,"5.0 (Macintosh; Intel Mac OS X 10_15_7) AppleWebKit/605.1.15 (KHTML, like Gecko) Version/15.1 Safari/605.1.15",xpyriment,legacy,legacy,0,uniform,0,0,0,0,24,24,24,0,0,53,53,53,53,53,0,53,0,,,,,,0,,07-02-22,07-02-22,13:45:07,Mon Mar 07 2022 13:45:07 GMT+0100 (CET),The main experiment item,yes,0,0,C:/Users/rrics/Documents/!!ResearchBMECOGSCI/gnet,0,0,0,prototype2.png,no,mono,no,18,no,black,no,no,768,1185,3.5.6,legacy,xpyriment,osweb,1.3.13,0,space,space,space,,19967,13438,19967,,2,legacy,900,1440,24,900,24,0,0,1440,1646657183414,1024,2,48000,-16,experiment,p1sarrcol2.png,1,odd,MacIntel,96,125817,122802,96,96,498675,500188,493687,127351,493686,96,,,,,,visual_patterns,0,0,0,yes,1366
undefined,undefined,undefined,undefined,white,no,Mozilla,Netscape,"5.0 (Macintosh; Intel Mac OS X 10_15_7) AppleWebKit/605.1.15 (KHTML, like Gecko) Version/15.1 Safari/605.1.15",xpyriment,legacy,legacy,0,uniform,0,0,0,0,24,24,24,0,0,54,54,54,54,54,0,54,0,,,,,,0,,07-02-22,07-02-22,13:45:07,Mon Mar 07 2022 13:45:07 GMT+0100 (CET),The main experiment item,yes,0,0,C:/Users/rrics/Documents/!!ResearchBMECOGSCI/gnet,0,0,0,prototype2.png,no,mono,no,18,no,black,no,no,768,1185,3.5.6,legacy,xpyriment,osweb,1.3.13,0,space,space,space,,19967,13438,19967,,2,legacy,900,1440,24,900,24,0,0,1440,1646657183414,1024,2,48000,-16,experiment,p2sarrcol2.png,1,odd,MacIntel,96,125817,122802,96,96,505209,506723,500224,127351,500224,96,,,,,,visual_patterns,0,0,0,yes,1366
undefined,undefined,undefined,undefined,white,no,Mozilla,Netscape,"5.0 (Macintosh; Intel Mac OS X 10_15_7) AppleWebKit/605.1.15 (KHTML, like Gecko) Version/15.1 Safari/605.1.15",xpyriment,legacy,legacy,0,uniform,0,0,0,0,24,24,24,0,0,55,55,55,55,55,0,55,0,,,,,,0,,07-02-22,07-02-22,13:45:07,Mon Mar 07 2022 13:45:07 GMT+0100 (CET),The main experiment item,yes,0,0,C:/Users/rrics/Documents/!!ResearchBMECOGSCI/gnet,0,0,0,prototype2.png,no,mono,no,18,no,black,no,no,768,1185,3.5.6,legacy,xpyriment,osweb,1.3.13,0,space,space,space,,19967,13438,19967,,2,legacy,900,1440,24,900,24,0,0,1440,1646657183414,1024,2,48000,-16,experiment,prototype4.png,1,odd,MacIntel,96,125817,122802,96,96,511735,513240,506750,127351,506750,96,,,,,,visual_patterns,0,0,0,yes,1366
undefined,undefined,undefined,undefined,white,no,Mozilla,Netscape,"5.0 (Macintosh; Intel Mac OS X 10_15_7) AppleWebKit/605.1.15 (KHTML, like Gecko) Version/15.1 Safari/605.1.15",xpyriment,legacy,legacy,0,uniform,0,0,0,0,24,24,24,0,0,56,56,56,56,56,0,56,0,,,,,,0,,07-02-22,07-02-22,13:45:07,Mon Mar 07 2022 13:45:07 GMT+0100 (CET),The main experiment item,yes,0,0,C:/Users/rrics/Documents/!!ResearchBMECOGSCI/gnet,0,0,0,prototype2.png,no,mono,no,18,no,black,no,no,768,1185,3.5.6,legacy,xpyriment,osweb,1.3.13,0,space,space,space,,19967,13438,19967,,2,legacy,900,1440,24,900,24,0,0,1440,1646657183414,1024,2,48000,-16,experiment,p2sarrshacol1.png,1,odd,MacIntel,96,125817,122802,96,96,518258,519773,513272,127351,513272,96,,,,,,visual_patterns,0,0,0,yes,1366
undefined,undefined,undefined,undefined,white,no,Mozilla,Netscape,"5.0 (Macintosh; Intel Mac OS X 10_15_7) AppleWebKit/605.1.15 (KHTML, like Gecko) Version/15.1 Safari/605.1.15",xpyriment,legacy,legacy,0,uniform,0,0,0,0,24,24,24,0,0,57,57,57,57,57,0,57,0,,,,,,0,,07-02-22,07-02-22,13:45:07,Mon Mar 07 2022 13:45:07 GMT+0100 (CET),The main experiment item,yes,0,0,C:/Users/rrics/Documents/!!ResearchBMECOGSCI/gnet,0,0,0,prototype2.png,no,mono,no,18,no,black,no,no,768,1185,3.5.6,legacy,xpyriment,osweb,1.3.13,0,space,space,space,,19967,13438,19967,,2,legacy,900,1440,24,900,24,0,0,1440,1646657183414,1024,2,48000,-16,experiment,prototype5.png,1,odd,MacIntel,96,125817,122802,96,96,524785,526291,519802,127351,519802,96,,,,,,visual_patterns,0,0,0,yes,1366
undefined,undefined,undefined,undefined,white,no,Mozilla,Netscape,"5.0 (Macintosh; Intel Mac OS X 10_15_7) AppleWebKit/605.1.15 (KHTML, like Gecko) Version/15.1 Safari/605.1.15",xpyriment,legacy,legacy,0,uniform,0,0,0,0,24,24,24,0,0,58,58,58,58,58,0,58,0,,,,,,0,,07-02-22,07-02-22,13:45:07,Mon Mar 07 2022 13:45:07 GMT+0100 (CET),The main experiment item,yes,0,0,C:/Users/rrics/Documents/!!ResearchBMECOGSCI/gnet,0,0,0,prototype2.png,no,mono,no,18,no,black,no,no,768,1185,3.5.6,legacy,xpyriment,osweb,1.3.13,0,space,space,space,,19967,13438,19967,,2,legacy,900,1440,24,900,24,0,0,1440,1646657183414,1024,2,48000,-16,experiment,prototype2.png,1,odd,MacIntel,96,125817,122802,96,96,531306,532808,526320,127351,526320,96,,,,,,visual_patterns,0,0,0,yes,1366
undefined,undefined,undefined,undefined,white,no,Mozilla,Netscape,"5.0 (Macintosh; Intel Mac OS X 10_15_7) AppleWebKit/605.1.15 (KHTML, like Gecko) Version/15.1 Safari/605.1.15",xpyriment,legacy,legacy,0,uniform,0,0,0,0,24,24,24,0,0,59,59,59,59,59,0,59,0,,,,,,0,,07-02-22,07-02-22,13:45:07,Mon Mar 07 2022 13:45:07 GMT+0100 (CET),The main experiment item,yes,0,0,C:/Users/rrics/Documents/!!ResearchBMECOGSCI/gnet,0,0,0,prototype2.png,no,mono,no,18,no,black,no,no,768,1185,3.5.6,legacy,xpyriment,osweb,1.3.13,0,space,space,space,,19967,13438,19967,,2,legacy,900,1440,24,900,24,0,0,1440,1646657183414,1024,2,48000,-16,experiment,prototype5.png,1,odd,MacIntel,96,125817,122802,96,96,537823,539325,532835,127351,532835,96,,,,,,visual_patterns,0,0,0,yes,1366
undefined,undefined,undefined,undefined,white,no,Mozilla,Netscape,"5.0 (Macintosh; Intel Mac OS X 10_15_7) AppleWebKit/605.1.15 (KHTML, like Gecko) Version/15.1 Safari/605.1.15",xpyriment,legacy,legacy,0,uniform,0,0,0,0,24,24,24,0,0,60,60,60,60,60,0,60,0,,,,,,0,,07-02-22,07-02-22,13:45:07,Mon Mar 07 2022 13:45:07 GMT+0100 (CET),The main experiment item,yes,0,0,C:/Users/rrics/Documents/!!ResearchBMECOGSCI/gnet,0,0,0,prototype2.png,no,mono,no,18,no,black,no,no,768,1185,3.5.6,legacy,xpyriment,osweb,1.3.13,0,space,space,space,,19967,13438,19967,,2,legacy,900,1440,24,900,24,0,0,1440,1646657183414,1024,2,48000,-16,experiment,p1sarrshacol2.png,1,odd,MacIntel,96,125817,122802,96,96,544343,545859,539356,127351,539356,96,,,,,,visual_patterns,0,0,0,yes,1366
undefined,undefined,undefined,undefined,white,no,Mozilla,Netscape,"5.0 (Macintosh; Intel Mac OS X 10_15_7) AppleWebKit/605.1.15 (KHTML, like Gecko) Version/15.1 Safari/605.1.15",xpyriment,legacy,legacy,0,uniform,0,0,0,0,24,24,24,0,0,61,61,61,61,61,0,61,0,,,,,,0,,07-02-22,07-02-22,13:45:07,Mon Mar 07 2022 13:45:07 GMT+0100 (CET),The main experiment item,yes,0,0,C:/Users/rrics/Documents/!!ResearchBMECOGSCI/gnet,0,0,0,prototype2.png,no,mono,no,18,no,black,no,no,768,1185,3.5.6,legacy,xpyriment,osweb,1.3.13,0,space,space,space,,19967,13438,19967,,2,legacy,900,1440,24,900,24,0,0,1440,1646657183414,1024,2,48000,-16,experiment,p2sarrcol1.png,1,odd,MacIntel,96,125817,122802,96,96,550878,552392,545890,127351,545890,96,,,,,,visual_patterns,0,0,0,yes,1366
undefined,undefined,undefined,undefined,white,no,Mozilla,Netscape,"5.0 (Macintosh; Intel Mac OS X 10_15_7) AppleWebKit/605.1.15 (KHTML, like Gecko) Version/15.1 Safari/605.1.15",xpyriment,legacy,legacy,0,uniform,0,0,0,0,24,24,24,0,0,62,62,62,62,62,0,62,0,,,,,,0,,07-02-22,07-02-22,13:45:07,Mon Mar 07 2022 13:45:07 GMT+0100 (CET),The main experiment item,yes,0,0,C:/Users/rrics/Documents/!!ResearchBMECOGSCI/gnet,0,0,0,prototype2.png,no,mono,no,18,no,black,no,no,768,1185,3.5.6,legacy,xpyriment,osweb,1.3.13,0,space,space,space,,19967,13438,19967,,2,legacy,900,1440,24,900,24,0,0,1440,1646657183414,1024,2,48000,-16,experiment,p5sarr2.png,1,odd,MacIntel,96,125817,122802,96,96,557411,558926,552426,127351,552426,96,,,,,,visual_patterns,0,0,0,yes,1366
undefined,undefined,undefined,undefined,white,no,Mozilla,Netscape,"5.0 (Macintosh; Intel Mac OS X 10_15_7) AppleWebKit/605.1.15 (KHTML, like Gecko) Version/15.1 Safari/605.1.15",xpyriment,legacy,legacy,0,uniform,0,0,0,0,24,24,24,0,0,63,63,63,63,63,0,63,0,,,,,,0,,07-02-22,07-02-22,13:45:07,Mon Mar 07 2022 13:45:07 GMT+0100 (CET),The main experiment item,yes,0,0,C:/Users/rrics/Documents/!!ResearchBMECOGSCI/gnet,0,0,0,prototype2.png,no,mono,no,18,no,black,no,no,768,1185,3.5.6,legacy,xpyriment,osweb,1.3.13,0,space,space,space,,19967,13438,19967,,2,legacy,900,1440,24,900,24,0,0,1440,1646657183414,1024,2,48000,-16,experiment,p10sarr2.png,1,odd,MacIntel,96,125817,122802,96,96,563944,565460,558958,127351,558958,96,,,,,,visual_patterns,0,0,0,yes,1366
undefined,undefined,undefined,undefined,white,no,Mozilla,Netscape,"5.0 (Macintosh; Intel Mac OS X 10_15_7) AppleWebKit/605.1.15 (KHTML, like Gecko) Version/15.1 Safari/605.1.15",xpyriment,legacy,legacy,0,uniform,0,0,0,0,24,24,24,0,0,64,64,64,64,64,0,64,0,,,,,,0,,07-02-22,07-02-22,13:45:07,Mon Mar 07 2022 13:45:07 GMT+0100 (CET),The main experiment item,yes,0,0,C:/Users/rrics/Documents/!!ResearchBMECOGSCI/gnet,0,0,0,prototype2.png,no,mono,no,18,no,black,no,no,768,1185,3.5.6,legacy,xpyriment,osweb,1.3.13,0,space,space,space,,19967,13438,19967,,2,legacy,900,1440,24,900,24,0,0,1440,1646657183414,1024,2,48000,-16,experiment,prototype1.png,1,odd,MacIntel,96,125817,122802,96,96,570473,571977,565489,127351,565489,96,,,,,,visual_patterns,0,0,0,yes,1366
undefined,undefined,undefined,undefined,white,no,Mozilla,Netscape,"5.0 (Macintosh; Intel Mac OS X 10_15_7) AppleWebKit/605.1.15 (KHTML, like Gecko) Version/15.1 Safari/605.1.15",xpyriment,legacy,legacy,0,uniform,0,0,0,0,24,24,24,0,0,65,65,65,65,65,0,65,0,,,,,,0,,07-02-22,07-02-22,13:45:07,Mon Mar 07 2022 13:45:07 GMT+0100 (CET),The main experiment item,yes,0,0,C:/Users/rrics/Documents/!!ResearchBMECOGSCI/gnet,0,0,0,prototype2.png,no,mono,no,18,no,black,no,no,768,1185,3.5.6,legacy,xpyriment,osweb,1.3.13,0,space,space,space,,19967,13438,19967,,2,legacy,900,1440,24,900,24,0,0,1440,1646657183414,1024,2,48000,-16,experiment,prototype4.png,1,odd,MacIntel,96,125817,122802,96,96,576994,578511,572007,127351,572006,96,,,,,,visual_patterns,0,0,0,yes,1366
undefined,undefined,undefined,undefined,white,no,Mozilla,Netscape,"5.0 (Macintosh; Intel Mac OS X 10_15_7) AppleWebKit/605.1.15 (KHTML, like Gecko) Version/15.1 Safari/605.1.15",xpyriment,legacy,legacy,0,uniform,0,0,0,0,24,24,24,0,0,66,66,66,66,66,0,66,0,,,,,,0,,07-02-22,07-02-22,13:45:07,Mon Mar 07 2022 13:45:07 GMT+0100 (CET),The main experiment item,yes,0,0,C:/Users/rrics/Documents/!!ResearchBMECOGSCI/gnet,0,0,0,prototype2.png,no,mono,no,18,no,black,no,no,768,1185,3.5.6,legacy,xpyriment,osweb,1.3.13,0,space,space,space,,19967,13438,19967,,2,legacy,900,1440,24,900,24,0,0,1440,1646657183414,1024,2,48000,-16,experiment,p2sarrshacol2.png,1,odd,MacIntel,96,125817,122802,96,96,583529,585045,578545,127351,578545,96,,,,,,visual_patterns,0,0,0,yes,1366
undefined,undefined,undefined,undefined,white,no,Mozilla,Netscape,"5.0 (Macintosh; Intel Mac OS X 10_15_7) AppleWebKit/605.1.15 (KHTML, like Gecko) Version/15.1 Safari/605.1.15",xpyriment,legacy,legacy,0,uniform,0,0,0,0,24,24,24,0,0,67,67,67,67,67,0,67,0,,,,,,0,,07-02-22,07-02-22,13:45:07,Mon Mar 07 2022 13:45:07 GMT+0100 (CET),The main experiment item,yes,0,0,C:/Users/rrics/Documents/!!ResearchBMECOGSCI/gnet,0,0,0,prototype2.png,no,mono,no,18,no,black,no,no,768,1185,3.5.6,legacy,xpyriment,osweb,1.3.13,0,space,space,space,,19967,13438,19967,,2,legacy,900,1440,24,900,24,0,0,1440,1646657183414,1024,2,48000,-16,experiment,p1sarr2.png,1,odd,MacIntel,96,125817,122802,96,96,590061,591578,585076,127351,585076,96,,,,,,visual_patterns,0,0,0,yes,1366
undefined,undefined,undefined,undefined,white,no,Mozilla,Netscape,"5.0 (Macintosh; Intel Mac OS X 10_15_7) AppleWebKit/605.1.15 (KHTML, like Gecko) Version/15.1 Safari/605.1.15",xpyriment,legacy,legacy,0,uniform,0,0,0,0,24,24,24,0,0,68,68,68,68,68,0,68,0,,,,,,0,,07-02-22,07-02-22,13:45:07,Mon Mar 07 2022 13:45:07 GMT+0100 (CET),The main experiment item,yes,0,0,C:/Users/rrics/Documents/!!ResearchBMECOGSCI/gnet,0,0,0,prototype2.png,no,mono,no,18,no,black,no,no,768,1185,3.5.6,legacy,xpyriment,osweb,1.3.13,0,space,space,space,,19967,13438,19967,,2,legacy,900,1440,24,900,24,0,0,1440,1646657183414,1024,2,48000,-16,experiment,p6sarr2.png,1,odd,MacIntel,96,125817,122802,96,96,596597,598112,591611,127351,591611,96,,,,,,visual_patterns,0,0,0,yes,1366
undefined,undefined,undefined,undefined,white,no,Mozilla,Netscape,"5.0 (Macintosh; Intel Mac OS X 10_15_7) AppleWebKit/605.1.15 (KHTML, like Gecko) Version/15.1 Safari/605.1.15",xpyriment,legacy,legacy,0,uniform,0,0,0,0,24,24,24,0,0,69,69,69,69,69,0,69,0,,,,,,0,,07-02-22,07-02-22,13:45:07,Mon Mar 07 2022 13:45:07 GMT+0100 (CET),The main experiment item,yes,0,0,C:/Users/rrics/Documents/!!ResearchBMECOGSCI/gnet,0,0,0,prototype2.png,no,mono,no,18,no,black,no,no,768,1185,3.5.6,legacy,xpyriment,osweb,1.3.13,0,space,space,space,,19967,13438,19967,,2,legacy,900,1440,24,900,24,0,0,1440,1646657183414,1024,2,48000,-16,experiment,prototype2.png,1,odd,MacIntel,96,125817,122802,96,96,603128,604629,598141,127351,598141,96,,,,,,visual_patterns,0,0,0,yes,1366
undefined,undefined,undefined,undefined,white,no,Mozilla,Netscape,"5.0 (Macintosh; Intel Mac OS X 10_15_7) AppleWebKit/605.1.15 (KHTML, like Gecko) Version/15.1 Safari/605.1.15",xpyriment,legacy,legacy,0,uniform,0,0,0,0,24,24,24,0,0,70,70,70,70,70,0,70,0,,,,,,0,,07-02-22,07-02-22,13:45:07,Mon Mar 07 2022 13:45:07 GMT+0100 (CET),The main experiment item,yes,0,0,C:/Users/rrics/Documents/!!ResearchBMECOGSCI/gnet,0,0,0,prototype2.png,no,mono,no,18,no,black,no,no,768,1185,3.5.6,legacy,xpyriment,osweb,1.3.13,0,space,space,space,,19967,13438,19967,,2,legacy,900,1440,24,900,24,0,0,1440,1646657183414,1024,2,48000,-16,experiment,p1sarrshacol1.png,1,odd,MacIntel,96,125817,122802,96,96,609653,611163,604665,127351,604665,96,,,,,,visual_patterns,0,0,0,yes,1366
undefined,undefined,undefined,undefined,white,no,Mozilla,Netscape,"5.0 (Macintosh; Intel Mac OS X 10_15_7) AppleWebKit/605.1.15 (KHTML, like Gecko) Version/15.1 Safari/605.1.15",xpyriment,legacy,legacy,0,uniform,0,0,0,0,24,24,24,0,0,71,71,71,71,71,0,71,0,,,,,,0,,07-02-22,07-02-22,13:45:07,Mon Mar 07 2022 13:45:07 GMT+0100 (CET),The main experiment item,yes,0,0,C:/Users/rrics/Documents/!!ResearchBMECOGSCI/gnet,0,0,0,prototype2.png,no,mono,no,18,no,black,no,no,768,1185,3.5.6,legacy,xpyriment,osweb,1.3.13,0,space,space,space,,19967,13438,19967,,2,legacy,900,1440,24,900,24,0,0,1440,1646657183414,1024,2,48000,-16,experiment,prototype1.png,1,odd,MacIntel,96,125817,122802,96,96,616176,617680,611192,127351,611192,96,,,,,,visual_patterns,0,0,0,yes,1366
undefined,undefined,undefined,undefined,white,no,Mozilla,Netscape,"5.0 (Macintosh; Intel Mac OS X 10_15_7) AppleWebKit/605.1.15 (KHTML, like Gecko) Version/15.1 Safari/605.1.15",xpyriment,legacy,legacy,0,uniform,0,0,0,0,24,24,24,0,0,72,72,72,72,72,0,72,0,,,,,,0,,07-02-22,07-02-22,13:45:07,Mon Mar 07 2022 13:45:07 GMT+0100 (CET),The main experiment item,yes,0,0,C:/Users/rrics/Documents/!!ResearchBMECOGSCI/gnet,0,0,0,prototype2.png,no,mono,no,18,no,black,no,no,768,1185,3.5.6,legacy,xpyriment,osweb,1.3.13,0,space,space,space,,19967,13438,19967,,2,legacy,900,1440,24,900,24,0,0,1440,1646657183414,1024,2,48000,-16,experiment,prototype5.png,1,odd,MacIntel,96,125817,122802,96,96,622695,624197,617708,127351,617708,96,,,,,,visual_patterns,0,0,0,yes,1366
undefined,undefined,undefined,undefined,white,no,Mozilla,Netscape,"5.0 (Macintosh; Intel Mac OS X 10_15_7) AppleWebKit/605.1.15 (KHTML, like Gecko) Version/15.1 Safari/605.1.15",xpyriment,legacy,legacy,0,uniform,0,0,0,0,24,24,24,0,0,73,73,73,73,73,0,73,0,,,,,,0,,07-02-22,07-02-22,13:45:07,Mon Mar 07 2022 13:45:07 GMT+0100 (CET),The main experiment item,yes,0,0,C:/Users/rrics/Documents/!!ResearchBMECOGSCI/gnet,0,0,0,prototype2.png,no,mono,no,18,no,black,no,no,768,1185,3.5.6,legacy,xpyriment,osweb,1.3.13,0,space,space,space,,19967,13438,19967,,2,legacy,900,1440,24,900,24,0,0,1440,1646657183414,1024,2,48000,-16,experiment,prototype3.png,1,odd,MacIntel,96,125817,122802,96,96,629213,630714,624226,127351,624226,96,,,,,,visual_patterns,0,0,0,yes,1366
undefined,undefined,undefined,undefined,white,no,Mozilla,Netscape,"5.0 (Macintosh; Intel Mac OS X 10_15_7) AppleWebKit/605.1.15 (KHTML, like Gecko) Version/15.1 Safari/605.1.15",xpyriment,legacy,legacy,0,uniform,0,0,0,0,24,24,24,0,0,74,74,74,74,74,0,74,0,,,,,,0,,07-02-22,07-02-22,13:45:07,Mon Mar 07 2022 13:45:07 GMT+0100 (CET),The main experiment item,yes,0,0,C:/Users/rrics/Documents/!!ResearchBMECOGSCI/gnet,0,0,0,prototype2.png,no,mono,no,18,no,black,no,no,768,1185,3.5.6,legacy,xpyriment,osweb,1.3.13,0,space,space,space,,19967,13438,19967,,2,legacy,900,1440,24,900,24,0,0,1440,1646657183414,1024,2,48000,-16,experiment,prototype2.png,1,odd,MacIntel,96,125817,122802,96,96,635725,637231,630742,127351,630742,96,,,,,,visual_patterns,0,0,0,yes,1366
undefined,undefined,undefined,undefined,white,no,Mozilla,Netscape,"5.0 (Macintosh; Intel Mac OS X 10_15_7) AppleWebKit/605.1.15 (KHTML, like Gecko) Version/15.1 Safari/605.1.15",xpyriment,legacy,legacy,0,uniform,0,0,0,0,24,24,24,0,0,74,74,74,74,74,0,74,0,0,0,0,0,0,0,0,07-02-22,07-02-22,13:45:07,Mon Mar 07 2022 13:45:07 GMT+0100 (CET),The main experiment item,yes,0,0,C:/Users/rrics/Documents/!!ResearchBMECOGSCI/gnet,0,0,0,prototype2.png,no,mono,no,18,no,black,no,no,768,1185,3.5.6,legacy,xpyriment,osweb,1.3.13,0,down,space,space,down,201130,13438,19967,201130,2,legacy,900,1440,24,900,24,0,0,1440,1646657183414,1024,2,48000,-16,experiment,p5sarrsha3.png,1,odd,MacIntel,96,125817,122802,96,96,635725,637231,630742,127351,630742,96,841435,842945,838451,637262,838451,visual_patterns,0,0,0,yes,1366
undefined,undefined,undefined,undefined,white,no,Mozilla,Netscape,"5.0 (Macintosh; Intel Mac OS X 10_15_7) AppleWebKit/605.1.15 (KHTML, like Gecko) Version/15.1 Safari/605.1.15",xpyriment,legacy,legacy,0,uniform,0,0,0,0,24,24,24,0,0,74,74,74,74,74,0,74,0,1,1,1,1,1,0,1,07-02-22,07-02-22,13:45:07,Mon Mar 07 2022 13:45:07 GMT+0100 (CET),The main experiment item,yes,0,0,C:/Users/rrics/Documents/!!ResearchBMECOGSCI/gnet,0,0,0,prototype2.png,no,mono,no,18,no,black,no,no,768,1185,3.5.6,legacy,xpyriment,osweb,1.3.13,0,down,space,space,down,201130,13438,19967,201130,2,legacy,900,1440,24,900,24,0,0,1440,1646657183414,1024,2,48000,-16,experiment,p2sarrshacol1.png,1,odd,MacIntel,96,125817,122802,96,96,635725,637231,630742,127351,630742,96,845958,847462,842975,637262,842975,visual_patterns,0,0,0,yes,1366
undefined,undefined,undefined,undefined,white,no,Mozilla,Netscape,"5.0 (Macintosh; Intel Mac OS X 10_15_7) AppleWebKit/605.1.15 (KHTML, like Gecko) Version/15.1 Safari/605.1.15",xpyriment,legacy,legacy,0,uniform,0,0,0,0,24,24,24,0,0,74,74,74,74,74,0,74,0,2,2,2,2,2,0,2,07-02-22,07-02-22,13:45:07,Mon Mar 07 2022 13:45:07 GMT+0100 (CET),The main experiment item,yes,0,0,C:/Users/rrics/Documents/!!ResearchBMECOGSCI/gnet,0,0,0,prototype2.png,no,mono,no,18,no,black,no,no,768,1185,3.5.6,legacy,xpyriment,osweb,1.3.13,0,down,space,space,down,201130,13438,19967,201130,2,legacy,900,1440,24,900,24,0,0,1440,1646657183414,1024,2,48000,-16,experiment,p4sarr4.png,1,odd,MacIntel,96,125817,122802,96,96,635725,637231,630742,127351,630742,96,850483,851996,847497,637262,847497,visual_patterns,0,0,0,yes,1366
undefined,undefined,undefined,undefined,white,no,Mozilla,Netscape,"5.0 (Macintosh; Intel Mac OS X 10_15_7) AppleWebKit/605.1.15 (KHTML, like Gecko) Version/15.1 Safari/605.1.15",xpyriment,legacy,legacy,0,uniform,0,0,0,0,24,24,24,0,0,74,74,74,74,74,0,74,0,3,3,3,3,3,0,3,07-02-22,07-02-22,13:45:07,Mon Mar 07 2022 13:45:07 GMT+0100 (CET),The main experiment item,yes,0,0,C:/Users/rrics/Documents/!!ResearchBMECOGSCI/gnet,0,0,0,prototype2.png,no,mono,no,18,no,black,no,no,768,1185,3.5.6,legacy,xpyriment,osweb,1.3.13,0,down,space,space,down,201130,13438,19967,201130,2,legacy,900,1440,24,900,24,0,0,1440,1646657183414,1024,2,48000,-16,experiment,p5sarrsha2.png,1,odd,MacIntel,96,125817,122802,96,96,635725,637231,630742,127351,630742,96,855012,856515,852027,637262,852027,visual_patterns,0,0,0,yes,1366
undefined,undefined,undefined,undefined,white,no,Mozilla,Netscape,"5.0 (Macintosh; Intel Mac OS X 10_15_7) AppleWebKit/605.1.15 (KHTML, like Gecko) Version/15.1 Safari/605.1.15",xpyriment,legacy,legacy,0,uniform,0,0,0,0,24,24,24,0,0,74,74,74,74,74,0,74,0,4,4,4,4,4,0,4,07-02-22,07-02-22,13:45:07,Mon Mar 07 2022 13:45:07 GMT+0100 (CET),The main experiment item,yes,0,0,C:/Users/rrics/Documents/!!ResearchBMECOGSCI/gnet,0,0,0,prototype2.png,no,mono,no,18,no,black,no,no,768,1185,3.5.6,legacy,xpyriment,osweb,1.3.13,0,down,space,space,down,201130,13438,19967,201130,2,legacy,900,1440,24,900,24,0,0,1440,1646657183414,1024,2,48000,-16,experiment,p7sarr2.png,1,odd,MacIntel,96,125817,122802,96,96,635725,637231,630742,127351,630742,96,859531,861046,856544,637262,856544,visual_patterns,0,0,0,yes,1366
undefined,undefined,undefined,undefined,white,no,Mozilla,Netscape,"5.0 (Macintosh; Intel Mac OS X 10_15_7) AppleWebKit/605.1.15 (KHTML, like Gecko) Version/15.1 Safari/605.1.15",xpyriment,legacy,legacy,0,uniform,0,0,0,0,24,24,24,0,0,74,74,74,74,74,0,74,0,5,5,5,5,5,0,5,07-02-22,07-02-22,13:45:07,Mon Mar 07 2022 13:45:07 GMT+0100 (CET),The main experiment item,yes,0,0,C:/Users/rrics/Documents/!!ResearchBMECOGSCI/gnet,0,0,0,prototype2.png,no,mono,no,18,no,black,no,no,768,1185,3.5.6,legacy,xpyriment,osweb,1.3.13,0,down,space,space,down,201130,13438,19967,201130,2,legacy,900,1440,24,900,24,0,0,1440,1646657183414,1024,2,48000,-16,experiment,p1sarrsha4.png,1,odd,MacIntel,96,125817,122802,96,96,635725,637231,630742,127351,630742,96,864066,865580,861081,637262,861081,visual_patterns,0,0,0,yes,1366
undefined,undefined,undefined,undefined,white,no,Mozilla,Netscape,"5.0 (Macintosh; Intel Mac OS X 10_15_7) AppleWebKit/605.1.15 (KHTML, like Gecko) Version/15.1 Safari/605.1.15",xpyriment,legacy,legacy,0,uniform,0,0,0,0,24,24,24,0,0,74,74,74,74,74,0,74,0,6,6,6,6,6,0,6,07-02-22,07-02-22,13:45:07,Mon Mar 07 2022 13:45:07 GMT+0100 (CET),The main experiment item,yes,0,0,C:/Users/rrics/Documents/!!ResearchBMECOGSCI/gnet,0,0,0,prototype2.png,no,mono,no,18,no,black,no,no,768,1185,3.5.6,legacy,xpyriment,osweb,1.3.13,0,down,space,space,down,201130,13438,19967,201130,2,legacy,900,1440,24,900,24,0,0,1440,1646657183414,1024,2,48000,-16,experiment,p3sarrcol2.png,1,odd,MacIntel,96,125817,122802,96,96,635725,637231,630742,127351,630742,96,868596,870097,865610,637262,865610,visual_patterns,0,0,0,yes,1366
undefined,undefined,undefined,undefined,white,no,Mozilla,Netscape,"5.0 (Macintosh; Intel Mac OS X 10_15_7) AppleWebKit/605.1.15 (KHTML, like Gecko) Version/15.1 Safari/605.1.15",xpyriment,legacy,legacy,0,uniform,0,0,0,0,24,24,24,0,0,74,74,74,74,74,0,74,0,7,7,7,7,7,0,7,07-02-22,07-02-22,13:45:07,Mon Mar 07 2022 13:45:07 GMT+0100 (CET),The main experiment item,yes,0,0,C:/Users/rrics/Documents/!!ResearchBMECOGSCI/gnet,0,0,0,prototype2.png,no,mono,no,18,no,black,no,no,768,1185,3.5.6,legacy,xpyriment,osweb,1.3.13,0,down,space,space,down,201130,13438,19967,201130,2,legacy,900,1440,24,900,24,0,0,1440,1646657183414,1024,2,48000,-16,experiment,p3sarrcol3.png,1,odd,MacIntel,96,125817,122802,96,96,635725,637231,630742,127351,630742,96,873117,874631,870135,637262,870135,visual_patterns,0,0,0,yes,1366
undefined,undefined,undefined,undefined,white,no,Mozilla,Netscape,"5.0 (Macintosh; Intel Mac OS X 10_15_7) AppleWebKit/605.1.15 (KHTML, like Gecko) Version/15.1 Safari/605.1.15",xpyriment,legacy,legacy,0,uniform,0,0,0,0,24,24,24,0,0,74,74,74,74,74,0,74,0,8,8,8,8,8,0,8,07-02-22,07-02-22,13:45:07,Mon Mar 07 2022 13:45:07 GMT+0100 (CET),The main experiment item,yes,0,0,C:/Users/rrics/Documents/!!ResearchBMECOGSCI/gnet,0,0,0,prototype2.png,no,mono,no,18,no,black,no,no,768,1185,3.5.6,legacy,xpyriment,osweb,1.3.13,0,down,space,space,down,201130,13438,19967,201130,2,legacy,900,1440,24,900,24,0,0,1440,1646657183414,1024,2,48000,-16,experiment,p1sarrsha1.png,1,odd,MacIntel,96,125817,122802,96,96,635725,637231,630742,127351,630742,96,877647,879148,874661,637262,874661,visual_patterns,0,0,0,yes,1366
undefined,undefined,undefined,undefined,white,no,Mozilla,Netscape,"5.0 (Macintosh; Intel Mac OS X 10_15_7) AppleWebKit/605.1.15 (KHTML, like Gecko) Version/15.1 Safari/605.1.15",xpyriment,legacy,legacy,0,uniform,0,0,0,0,24,24,24,0,0,74,74,74,74,74,0,74,0,9,9,9,9,9,0,9,07-02-22,07-02-22,13:45:07,Mon Mar 07 2022 13:45:07 GMT+0100 (CET),The main experiment item,yes,0,0,C:/Users/rrics/Documents/!!ResearchBMECOGSCI/gnet,0,0,0,prototype2.png,no,mono,no,18,no,black,no,no,768,1185,3.5.6,legacy,xpyriment,osweb,1.3.13,0,down,space,space,down,201130,13438,19967,201130,2,legacy,900,1440,24,900,24,0,0,1440,1646657183414,1024,2,48000,-16,experiment,p4sarr1.png,1,odd,MacIntel,96,125817,122802,96,96,635725,637231,630742,127351,630742,96,882164,883666,879181,637262,879180,visual_patterns,0,0,0,yes,1366
undefined,undefined,undefined,undefined,white,no,Mozilla,Netscape,"5.0 (Macintosh; Intel Mac OS X 10_15_7) AppleWebKit/605.1.15 (KHTML, like Gecko) Version/15.1 Safari/605.1.15",xpyriment,legacy,legacy,0,uniform,0,0,0,0,24,24,24,0,0,74,74,74,74,74,0,74,0,10,10,10,10,10,0,10,07-02-22,07-02-22,13:45:07,Mon Mar 07 2022 13:45:07 GMT+0100 (CET),The main experiment item,yes,0,0,C:/Users/rrics/Documents/!!ResearchBMECOGSCI/gnet,0,0,0,prototype2.png,no,mono,no,18,no,black,no,no,768,1185,3.5.6,legacy,xpyriment,osweb,1.3.13,0,down,space,space,down,201130,13438,19967,201130,2,legacy,900,1440,24,900,24,0,0,1440,1646657183414,1024,2,48000,-16,experiment,p9sarr2.png,1,odd,MacIntel,96,125817,122802,96,96,635725,637231,630742,127351,630742,96,886680,888182,883697,637262,883697,visual_patterns,0,0,0,yes,1366
undefined,undefined,undefined,undefined,white,no,Mozilla,Netscape,"5.0 (Macintosh; Intel Mac OS X 10_15_7) AppleWebKit/605.1.15 (KHTML, like Gecko) Version/15.1 Safari/605.1.15",xpyriment,legacy,legacy,0,uniform,0,0,0,0,24,24,24,0,0,74,74,74,74,74,0,74,0,11,11,11,11,11,0,11,07-02-22,07-02-22,13:45:07,Mon Mar 07 2022 13:45:07 GMT+0100 (CET),The main experiment item,yes,0,0,C:/Users/rrics/Documents/!!ResearchBMECOGSCI/gnet,0,0,0,prototype2.png,no,mono,no,18,no,black,no,no,768,1185,3.5.6,legacy,xpyriment,osweb,1.3.13,0,down,space,space,down,201130,13438,19967,201130,2,legacy,900,1440,24,900,24,0,0,1440,1646657183414,1024,2,48000,-16,experiment,p1sarr2.png,1,odd,MacIntel,96,125817,122802,96,96,635725,637231,630742,127351,630742,96,891196,892699,888211,637262,888211,visual_patterns,0,0,0,yes,1366
undefined,undefined,undefined,undefined,white,no,Mozilla,Netscape,"5.0 (Macintosh; Intel Mac OS X 10_15_7) AppleWebKit/605.1.15 (KHTML, like Gecko) Version/15.1 Safari/605.1.15",xpyriment,legacy,legacy,0,uniform,0,0,0,0,24,24,24,0,0,74,74,74,74,74,0,74,0,12,12,12,12,12,0,12,07-02-22,07-02-22,13:45:07,Mon Mar 07 2022 13:45:07 GMT+0100 (CET),The main experiment item,yes,0,0,C:/Users/rrics/Documents/!!ResearchBMECOGSCI/gnet,0,0,0,prototype2.png,no,mono,no,18,no,black,no,no,768,1185,3.5.6,legacy,xpyriment,osweb,1.3.13,0,down,space,space,down,201130,13438,19967,201130,2,legacy,900,1440,24,900,24,0,0,1440,1646657183414,1024,2,48000,-16,experiment,p3sarrcol4.png,1,odd,MacIntel,96,125817,122802,96,96,635725,637231,630742,127351,630742,96,895721,897232,892735,637262,892735,visual_patterns,0,0,0,yes,1366
undefined,undefined,undefined,undefined,white,no,Mozilla,Netscape,"5.0 (Macintosh; Intel Mac OS X 10_15_7) AppleWebKit/605.1.15 (KHTML, like Gecko) Version/15.1 Safari/605.1.15",xpyriment,legacy,legacy,0,uniform,0,0,0,0,24,24,24,0,0,74,74,74,74,74,0,74,0,13,13,13,13,13,0,13,07-02-22,07-02-22,13:45:07,Mon Mar 07 2022 13:45:07 GMT+0100 (CET),The main experiment item,yes,0,0,C:/Users/rrics/Documents/!!ResearchBMECOGSCI/gnet,0,0,0,prototype2.png,no,mono,no,18,no,black,no,no,768,1185,3.5.6,legacy,xpyriment,osweb,1.3.13,0,down,space,space,down,201130,13438,19967,201130,2,legacy,900,1440,24,900,24,0,0,1440,1646657183414,1024,2,48000,-16,experiment,p2sarrshacol2.png,1,odd,MacIntel,96,125817,122802,96,96,635725,637231,630742,127351,630742,96,900246,901749,897262,637262,897262,visual_patterns,0,0,0,yes,1366
undefined,undefined,undefined,undefined,white,no,Mozilla,Netscape,"5.0 (Macintosh; Intel Mac OS X 10_15_7) AppleWebKit/605.1.15 (KHTML, like Gecko) Version/15.1 Safari/605.1.15",xpyriment,legacy,legacy,0,uniform,0,0,0,0,24,24,24,0,0,74,74,74,74,74,0,74,0,14,14,14,14,14,0,14,07-02-22,07-02-22,13:45:07,Mon Mar 07 2022 13:45:07 GMT+0100 (CET),The main experiment item,yes,0,0,C:/Users/rrics/Documents/!!ResearchBMECOGSCI/gnet,0,0,0,prototype2.png,no,mono,no,18,no,black,no,no,768,1185,3.5.6,legacy,xpyriment,osweb,1.3.13,0,down,space,space,down,201130,13438,19967,201130,2,legacy,900,1440,24,900,24,0,0,1440,1646657183414,1024,2,48000,-16,experiment,p6sarr1.png,1,odd,MacIntel,96,125817,122802,96,96,635725,637231,630742,127351,630742,96,904763,906266,901780,637262,901780,visual_patterns,0,0,0,yes,1366
undefined,undefined,undefined,undefined,white,no,Mozilla,Netscape,"5.0 (Macintosh; Intel Mac OS X 10_15_7) AppleWebKit/605.1.15 (KHTML, like Gecko) Version/15.1 Safari/605.1.15",xpyriment,legacy,legacy,0,uniform,0,0,0,0,24,24,24,0,0,74,74,74,74,74,0,74,0,15,15,15,15,15,0,15,07-02-22,07-02-22,13:45:07,Mon Mar 07 2022 13:45:07 GMT+0100 (CET),The main experiment item,yes,0,0,C:/Users/rrics/Documents/!!ResearchBMECOGSCI/gnet,0,0,0,prototype2.png,no,mono,no,18,no,black,no,no,768,1185,3.5.6,legacy,xpyriment,osweb,1.3.13,0,down,space,space,down,201130,13438,19967,201130,2,legacy,900,1440,24,900,24,0,0,1440,1646657183414,1024,2,48000,-16,experiment,p4sarrshacol3.png,1,odd,MacIntel,96,125817,122802,96,96,635725,637231,630742,127351,630742,96,909289,910800,906303,637262,906303,visual_patterns,0,0,0,yes,1366
undefined,undefined,undefined,undefined,white,no,Mozilla,Netscape,"5.0 (Macintosh; Intel Mac OS X 10_15_7) AppleWebKit/605.1.15 (KHTML, like Gecko) Version/15.1 Safari/605.1.15",xpyriment,legacy,legacy,0,uniform,0,0,0,0,24,24,24,0,0,74,74,74,74,74,0,74,0,16,16,16,16,16,0,16,07-02-22,07-02-22,13:45:07,Mon Mar 07 2022 13:45:07 GMT+0100 (CET),The main experiment item,yes,0,0,C:/Users/rrics/Documents/!!ResearchBMECOGSCI/gnet,0,0,0,prototype2.png,no,mono,no,18,no,black,no,no,768,1185,3.5.6,legacy,xpyriment,osweb,1.3.13,0,down,space,space,down,201130,13438,19967,201130,2,legacy,900,1440,24,900,24,0,0,1440,1646657183414,1024,2,48000,-16,experiment,p4sarrshacol4.png,1,odd,MacIntel,96,125817,122802,96,96,635725,637231,630742,127351,630742,96,913818,915333,910835,637262,910835,visual_patterns,0,0,0,yes,1366
undefined,undefined,undefined,undefined,white,no,Mozilla,Netscape,"5.0 (Macintosh; Intel Mac OS X 10_15_7) AppleWebKit/605.1.15 (KHTML, like Gecko) Version/15.1 Safari/605.1.15",xpyriment,legacy,legacy,0,uniform,0,0,0,0,24,24,24,0,0,74,74,74,74,74,0,74,0,17,17,17,17,17,0,17,07-02-22,07-02-22,13:45:07,Mon Mar 07 2022 13:45:07 GMT+0100 (CET),The main experiment item,yes,0,0,C:/Users/rrics/Documents/!!ResearchBMECOGSCI/gnet,0,0,0,prototype2.png,no,mono,no,18,no,black,no,no,768,1185,3.5.6,legacy,xpyriment,osweb,1.3.13,0,down,space,space,down,201130,13438,19967,201130,2,legacy,900,1440,24,900,24,0,0,1440,1646657183414,1024,2,48000,-16,experiment,p2sarrcol1.png,1,odd,MacIntel,96,125817,122802,96,96,635725,637231,630742,127351,630742,96,918347,919851,915365,637262,915365,visual_patterns,0,0,0,yes,1366
undefined,undefined,undefined,undefined,white,no,Mozilla,Netscape,"5.0 (Macintosh; Intel Mac OS X 10_15_7) AppleWebKit/605.1.15 (KHTML, like Gecko) Version/15.1 Safari/605.1.15",xpyriment,legacy,legacy,0,uniform,0,0,0,0,24,24,24,0,0,74,74,74,74,74,0,74,0,18,18,18,18,18,0,18,07-02-22,07-02-22,13:45:07,Mon Mar 07 2022 13:45:07 GMT+0100 (CET),The main experiment item,yes,0,0,C:/Users/rrics/Documents/!!ResearchBMECOGSCI/gnet,0,0,0,prototype2.png,no,mono,no,18,no,black,no,no,768,1185,3.5.6,legacy,xpyriment,osweb,1.3.13,0,down,space,space,down,201130,13438,19967,201130,2,legacy,900,1440,24,900,24,0,0,1440,1646657183414,1024,2,48000,-16,experiment,p1sarr4.png,1,odd,MacIntel,96,125817,122802,96,96,635725,637231,630742,127351,630742,96,922873,924384,919887,637262,919887,visual_patterns,0,0,0,yes,1366
undefined,undefined,undefined,undefined,white,no,Mozilla,Netscape,"5.0 (Macintosh; Intel Mac OS X 10_15_7) AppleWebKit/605.1.15 (KHTML, like Gecko) Version/15.1 Safari/605.1.15",xpyriment,legacy,legacy,0,uniform,0,0,0,0,24,24,24,0,0,74,74,74,74,74,0,74,0,19,19,19,19,19,0,19,07-02-22,07-02-22,13:45:07,Mon Mar 07 2022 13:45:07 GMT+0100 (CET),The main experiment item,yes,0,0,C:/Users/rrics/Documents/!!ResearchBMECOGSCI/gnet,0,0,0,prototype2.png,no,mono,no,18,no,black,no,no,768,1185,3.5.6,legacy,xpyriment,osweb,1.3.13,0,down,space,space,down,201130,13438,19967,201130,2,legacy,900,1440,24,900,24,0,0,1440,1646657183414,1024,2,48000,-16,experiment,p10sarr1.png,1,odd,MacIntel,96,125817,122802,96,96,635725,637231,630742,127351,630742,96,927397,928901,924414,637262,924414,visual_patterns,0,0,0,yes,1366
undefined,undefined,undefined,undefined,white,no,Mozilla,Netscape,"5.0 (Macintosh; Intel Mac OS X 10_15_7) AppleWebKit/605.1.15 (KHTML, like Gecko) Version/15.1 Safari/605.1.15",xpyriment,legacy,legacy,0,uniform,0,0,0,0,24,24,24,0,0,74,74,74,74,74,0,74,0,20,20,20,20,20,0,20,07-02-22,07-02-22,13:45:07,Mon Mar 07 2022 13:45:07 GMT+0100 (CET),The main experiment item,yes,0,0,C:/Users/rrics/Documents/!!ResearchBMECOGSCI/gnet,0,0,0,prototype2.png,no,mono,no,18,no,black,no,no,768,1185,3.5.6,legacy,xpyriment,osweb,1.3.13,0,down,space,space,down,201130,13438,19967,201130,2,legacy,900,1440,24,900,24,0,0,1440,1646657183414,1024,2,48000,-16,experiment,p8sarr3.png,1,odd,MacIntel,96,125817,122802,96,96,635725,637231,630742,127351,630742,96,931922,933435,928937,637262,928937,visual_patterns,0,0,0,yes,1366
undefined,undefined,undefined,undefined,white,no,Mozilla,Netscape,"5.0 (Macintosh; Intel Mac OS X 10_15_7) AppleWebKit/605.1.15 (KHTML, like Gecko) Version/15.1 Safari/605.1.15",xpyriment,legacy,legacy,0,uniform,0,0,0,0,24,24,24,0,0,74,74,74,74,74,0,74,0,21,21,21,21,21,0,21,07-02-22,07-02-22,13:45:07,Mon Mar 07 2022 13:45:07 GMT+0100 (CET),The main experiment item,yes,0,0,C:/Users/rrics/Documents/!!ResearchBMECOGSCI/gnet,0,0,0,prototype2.png,no,mono,no,18,no,black,no,no,768,1185,3.5.6,legacy,xpyriment,osweb,1.3.13,0,down,space,space,down,201130,13438,19967,201130,2,legacy,900,1440,24,900,24,0,0,1440,1646657183414,1024,2,48000,-16,experiment,p9sarr4.png,1,odd,MacIntel,96,125817,122802,96,96,635725,637231,630742,127351,630742,96,936457,937968,933471,637262,933471,visual_patterns,0,0,0,yes,1366
undefined,undefined,undefined,undefined,white,no,Mozilla,Netscape,"5.0 (Macintosh; Intel Mac OS X 10_15_7) AppleWebKit/605.1.15 (KHTML, like Gecko) Version/15.1 Safari/605.1.15",xpyriment,legacy,legacy,0,uniform,0,0,0,0,24,24,24,0,0,74,74,74,74,74,0,74,0,22,22,22,22,22,0,22,07-02-22,07-02-22,13:45:07,Mon Mar 07 2022 13:45:07 GMT+0100 (CET),The main experiment item,yes,0,0,C:/Users/rrics/Documents/!!ResearchBMECOGSCI/gnet,0,0,0,prototype2.png,no,mono,no,18,no,black,no,no,768,1185,3.5.6,legacy,xpyriment,osweb,1.3.13,0,down,space,space,down,201130,13438,19967,201130,2,legacy,900,1440,24,900,24,0,0,1440,1646657183414,1024,2,48000,-16,experiment,p5sarrcol2.png,1,odd,MacIntel,96,125817,122802,96,96,635725,637231,630742,127351,630742,96,940982,942485,937999,637262,937999,visual_patterns,0,0,0,yes,1366
undefined,undefined,undefined,undefined,white,no,Mozilla,Netscape,"5.0 (Macintosh; Intel Mac OS X 10_15_7) AppleWebKit/605.1.15 (KHTML, like Gecko) Version/15.1 Safari/605.1.15",xpyriment,legacy,legacy,0,uniform,0,0,0,0,24,24,24,0,0,74,74,74,74,74,0,74,0,23,23,23,23,23,0,23,07-02-22,07-02-22,13:45:07,Mon Mar 07 2022 13:45:07 GMT+0100 (CET),The main experiment item,yes,0,0,C:/Users/rrics/Documents/!!ResearchBMECOGSCI/gnet,0,0,0,prototype2.png,no,mono,no,18,no,black,no,no,768,1185,3.5.6,legacy,xpyriment,osweb,1.3.13,0,down,space,space,down,201130,13438,19967,201130,2,legacy,900,1440,24,900,24,0,0,1440,1646657183414,1024,2,48000,-16,experiment,p7sarr4.png,1,odd,MacIntel,96,125817,122802,96,96,635725,637231,630742,127351,630742,96,945504,947019,942520,637262,942520,visual_patterns,0,0,0,yes,1366
undefined,undefined,undefined,undefined,white,no,Mozilla,Netscape,"5.0 (Macintosh; Intel Mac OS X 10_15_7) AppleWebKit/605.1.15 (KHTML, like Gecko) Version/15.1 Safari/605.1.15",xpyriment,legacy,legacy,0,uniform,0,0,0,0,24,24,24,0,0,74,74,74,74,74,0,74,0,24,24,24,24,24,0,24,07-02-22,07-02-22,13:45:07,Mon Mar 07 2022 13:45:07 GMT+0100 (CET),The main experiment item,yes,0,0,C:/Users/rrics/Documents/!!ResearchBMECOGSCI/gnet,0,0,0,prototype2.png,no,mono,no,18,no,black,no,no,768,1185,3.5.6,legacy,xpyriment,osweb,1.3.13,0,down,space,space,down,201130,13438,19967,201130,2,legacy,900,1440,24,900,24,0,0,1440,1646657183414,1024,2,48000,-16,experiment,p3sarrsha3.png,1,odd,MacIntel,96,125817,122802,96,96,635725,637231,630742,127351,630742,96,950042,951553,947055,637262,947055,visual_patterns,0,0,0,yes,1366
undefined,undefined,undefined,undefined,white,no,Mozilla,Netscape,"5.0 (Macintosh; Intel Mac OS X 10_15_7) AppleWebKit/605.1.15 (KHTML, like Gecko) Version/15.1 Safari/605.1.15",xpyriment,legacy,legacy,0,uniform,0,0,0,0,24,24,24,0,0,74,74,74,74,74,0,74,0,25,25,25,25,25,0,25,07-02-22,07-02-22,13:45:07,Mon Mar 07 2022 13:45:07 GMT+0100 (CET),The main experiment item,yes,0,0,C:/Users/rrics/Documents/!!ResearchBMECOGSCI/gnet,0,0,0,prototype2.png,no,mono,no,18,no,black,no,no,768,1185,3.5.6,legacy,xpyriment,osweb,1.3.13,0,down,space,space,down,201130,13438,19967,201130,2,legacy,900,1440,24,900,24,0,0,1440,1646657183414,1024,2,48000,-16,experiment,p8sarr4.png,1,odd,MacIntel,96,125817,122802,96,96,635725,637231,630742,127351,630742,96,954571,956086,951588,637262,951588,visual_patterns,0,0,0,yes,1366
undefined,undefined,undefined,undefined,white,no,Mozilla,Netscape,"5.0 (Macintosh; Intel Mac OS X 10_15_7) AppleWebKit/605.1.15 (KHTML, like Gecko) Version/15.1 Safari/605.1.15",xpyriment,legacy,legacy,0,uniform,0,0,0,0,24,24,24,0,0,74,74,74,74,74,0,74,0,26,26,26,26,26,0,26,07-02-22,07-02-22,13:45:07,Mon Mar 07 2022 13:45:07 GMT+0100 (CET),The main experiment item,yes,0,0,C:/Users/rrics/Documents/!!ResearchBMECOGSCI/gnet,0,0,0,prototype2.png,no,mono,no,18,no,black,no,no,768,1185,3.5.6,legacy,xpyriment,osweb,1.3.13,0,down,space,space,down,201130,13438,19967,201130,2,legacy,900,1440,24,900,24,0,0,1440,1646657183414,1024,2,48000,-16,experiment,p2sarrshacol4.png,1,odd,MacIntel,96,125817,122802,96,96,635725,637231,630742,127351,630742,96,959104,960620,956121,637262,956121,visual_patterns,0,0,0,yes,1366
undefined,undefined,undefined,undefined,white,no,Mozilla,Netscape,"5.0 (Macintosh; Intel Mac OS X 10_15_7) AppleWebKit/605.1.15 (KHTML, like Gecko) Version/15.1 Safari/605.1.15",xpyriment,legacy,legacy,0,uniform,0,0,0,0,24,24,24,0,0,74,74,74,74,74,0,74,0,27,27,27,27,27,0,27,07-02-22,07-02-22,13:45:07,Mon Mar 07 2022 13:45:07 GMT+0100 (CET),The main experiment item,yes,0,0,C:/Users/rrics/Documents/!!ResearchBMECOGSCI/gnet,0,0,0,prototype2.png,no,mono,no,18,no,black,no,no,768,1185,3.5.6,legacy,xpyriment,osweb,1.3.13,0,down,space,space,down,201130,13438,19967,201130,2,legacy,900,1440,24,900,24,0,0,1440,1646657183414,1024,2,48000,-16,experiment,p4sarrshacol1.png,1,odd,MacIntel,96,125817,122802,96,96,635725,637231,630742,127351,630742,96,963640,965153,960654,637262,960654,visual_patterns,0,0,0,yes,1366
undefined,undefined,undefined,undefined,white,no,Mozilla,Netscape,"5.0 (Macintosh; Intel Mac OS X 10_15_7) AppleWebKit/605.1.15 (KHTML, like Gecko) Version/15.1 Safari/605.1.15",xpyriment,legacy,legacy,0,uniform,0,0,0,0,24,24,24,0,0,74,74,74,74,74,0,74,0,28,28,28,28,28,0,28,07-02-22,07-02-22,13:45:07,Mon Mar 07 2022 13:45:07 GMT+0100 (CET),The main experiment item,yes,0,0,C:/Users/rrics/Documents/!!ResearchBMECOGSCI/gnet,0,0,0,prototype2.png,no,mono,no,18,no,black,no,no,768,1185,3.5.6,legacy,xpyriment,osweb,1.3.13,0,down,space,space,down,201130,13438,19967,201130,2,legacy,900,1440,24,900,24,0,0,1440,1646657183414,1024,2,48000,-16,experiment,p1sarrshacol3.png,1,odd,MacIntel,96,125817,122802,96,96,635725,637231,630742,127351,630742,96,968174,969687,965188,637262,965188,visual_patterns,0,0,0,yes,1366
undefined,undefined,undefined,undefined,white,no,Mozilla,Netscape,"5.0 (Macintosh; Intel Mac OS X 10_15_7) AppleWebKit/605.1.15 (KHTML, like Gecko) Version/15.1 Safari/605.1.15",xpyriment,legacy,legacy,0,uniform,0,0,0,0,24,24,24,0,0,74,74,74,74,74,0,74,0,29,29,29,29,29,0,29,07-02-22,07-02-22,13:45:07,Mon Mar 07 2022 13:45:07 GMT+0100 (CET),The main experiment item,yes,0,0,C:/Users/rrics/Documents/!!ResearchBMECOGSCI/gnet,0,0,0,prototype2.png,no,mono,no,18,no,black,no,no,768,1185,3.5.6,legacy,xpyriment,osweb,1.3.13,0,down,space,space,down,201130,13438,19967,201130,2,legacy,900,1440,24,900,24,0,0,1440,1646657183414,1024,2,48000,-16,experiment,p2sarrsha1.png,1,odd,MacIntel,96,125817,122802,96,96,635725,637231,630742,127351,630742,96,972705,974221,969720,637262,969720,visual_patterns,0,0,0,yes,1366
undefined,undefined,undefined,undefined,white,no,Mozilla,Netscape,"5.0 (Macintosh; Intel Mac OS X 10_15_7) AppleWebKit/605.1.15 (KHTML, like Gecko) Version/15.1 Safari/605.1.15",xpyriment,legacy,legacy,0,uniform,0,0,0,0,24,24,24,0,0,74,74,74,74,74,0,74,0,30,30,30,30,30,0,30,07-02-22,07-02-22,13:45:07,Mon Mar 07 2022 13:45:07 GMT+0100 (CET),The main experiment item,yes,0,0,C:/Users/rrics/Documents/!!ResearchBMECOGSCI/gnet,0,0,0,prototype2.png,no,mono,no,18,no,black,no,no,768,1185,3.5.6,legacy,xpyriment,osweb,1.3.13,0,down,space,space,down,201130,13438,19967,201130,2,legacy,900,1440,24,900,24,0,0,1440,1646657183414,1024,2,48000,-16,experiment,p3sarr2.png,1,odd,MacIntel,96,125817,122802,96,96,635725,637231,630742,127351,630742,96,977234,978738,974251,637262,974251,visual_patterns,0,0,0,yes,1366
undefined,undefined,undefined,undefined,white,no,Mozilla,Netscape,"5.0 (Macintosh; Intel Mac OS X 10_15_7) AppleWebKit/605.1.15 (KHTML, like Gecko) Version/15.1 Safari/605.1.15",xpyriment,legacy,legacy,0,uniform,0,0,0,0,24,24,24,0,0,74,74,74,74,74,0,74,0,31,31,31,31,31,0,31,07-02-22,07-02-22,13:45:07,Mon Mar 07 2022 13:45:07 GMT+0100 (CET),The main experiment item,yes,0,0,C:/Users/rrics/Documents/!!ResearchBMECOGSCI/gnet,0,0,0,prototype2.png,no,mono,no,18,no,black,no,no,768,1185,3.5.6,legacy,xpyriment,osweb,1.3.13,0,down,space,space,down,201130,13438,19967,201130,2,legacy,900,1440,24,900,24,0,0,1440,1646657183414,1024,2,48000,-16,experiment,p3sarrshacol3.png,1,odd,MacIntel,96,125817,122802,96,96,635725,637231,630742,127351,630742,96,981756,983271,978773,637262,978773,visual_patterns,0,0,0,yes,1366
undefined,undefined,undefined,undefined,white,no,Mozilla,Netscape,"5.0 (Macintosh; Intel Mac OS X 10_15_7) AppleWebKit/605.1.15 (KHTML, like Gecko) Version/15.1 Safari/605.1.15",xpyriment,legacy,legacy,0,uniform,0,0,0,0,24,24,24,0,0,74,74,74,74,74,0,74,0,32,32,32,32,32,0,32,07-02-22,07-02-22,13:45:07,Mon Mar 07 2022 13:45:07 GMT+0100 (CET),The main experiment item,yes,0,0,C:/Users/rrics/Documents/!!ResearchBMECOGSCI/gnet,0,0,0,prototype2.png,no,mono,no,18,no,black,no,no,768,1185,3.5.6,legacy,xpyriment,osweb,1.3.13,0,down,space,space,down,201130,13438,19967,201130,2,legacy,900,1440,24,900,24,0,0,1440,1646657183414,1024,2,48000,-16,experiment,p2sarrcol4.png,1,odd,MacIntel,96,125817,122802,96,96,635725,637231,630742,127351,630742,96,986290,987805,983307,637262,983307,visual_patterns,0,0,0,yes,1366
undefined,undefined,undefined,undefined,white,no,Mozilla,Netscape,"5.0 (Macintosh; Intel Mac OS X 10_15_7) AppleWebKit/605.1.15 (KHTML, like Gecko) Version/15.1 Safari/605.1.15",xpyriment,legacy,legacy,0,uniform,0,0,0,0,24,24,24,0,0,74,74,74,74,74,0,74,0,33,33,33,33,33,0,33,07-02-22,07-02-22,13:45:07,Mon Mar 07 2022 13:45:07 GMT+0100 (CET),The main experiment item,yes,0,0,C:/Users/rrics/Documents/!!ResearchBMECOGSCI/gnet,0,0,0,prototype2.png,no,mono,no,18,no,black,no,no,768,1185,3.5.6,legacy,xpyriment,osweb,1.3.13,0,down,space,space,down,201130,13438,19967,201130,2,legacy,900,1440,24,900,24,0,0,1440,1646657183414,1024,2,48000,-16,experiment,p5sarrcol1.png,1,odd,MacIntel,96,125817,122802,96,96,635725,637231,630742,127351,630742,96,990821,992322,987837,637262,987837,visual_patterns,0,0,0,yes,1366
undefined,undefined,undefined,undefined,white,no,Mozilla,Netscape,"5.0 (Macintosh; Intel Mac OS X 10_15_7) AppleWebKit/605.1.15 (KHTML, like Gecko) Version/15.1 Safari/605.1.15",xpyriment,legacy,legacy,0,uniform,0,0,0,0,24,24,24,0,0,74,74,74,74,74,0,74,0,34,34,34,34,34,0,34,07-02-22,07-02-22,13:45:07,Mon Mar 07 2022 13:45:07 GMT+0100 (CET),The main experiment item,yes,0,0,C:/Users/rrics/Documents/!!ResearchBMECOGSCI/gnet,0,0,0,prototype2.png,no,mono,no,18,no,black,no,no,768,1185,3.5.6,legacy,xpyriment,osweb,1.3.13,0,down,space,space,down,201130,13438,19967,201130,2,legacy,900,1440,24,900,24,0,0,1440,1646657183414,1024,2,48000,-16,experiment,p8sarr2.png,1,odd,MacIntel,96,125817,122802,96,96,635725,637231,630742,127351,630742,96,995336,996838,992352,637262,992352,visual_patterns,0,0,0,yes,1366
undefined,undefined,undefined,undefined,white,no,Mozilla,Netscape,"5.0 (Macintosh; Intel Mac OS X 10_15_7) AppleWebKit/605.1.15 (KHTML, like Gecko) Version/15.1 Safari/605.1.15",xpyriment,legacy,legacy,0,uniform,0,0,0,0,24,24,24,0,0,74,74,74,74,74,0,74,0,35,35,35,35,35,0,35,07-02-22,07-02-22,13:45:07,Mon Mar 07 2022 13:45:07 GMT+0100 (CET),The main experiment item,yes,0,0,C:/Users/rrics/Documents/!!ResearchBMECOGSCI/gnet,0,0,0,prototype2.png,no,mono,no,18,no,black,no,no,768,1185,3.5.6,legacy,xpyriment,osweb,1.3.13,0,down,space,space,down,201130,13438,19967,201130,2,legacy,900,1440,24,900,24,0,0,1440,1646657183414,1024,2,48000,-16,experiment,p5sarr3.png,1,odd,MacIntel,96,125817,122802,96,96,635725,637231,630742,127351,630742,96,999859,1001373,996873,637262,996873,visual_patterns,0,0,0,yes,1366
undefined,undefined,undefined,undefined,white,no,Mozilla,Netscape,"5.0 (Macintosh; Intel Mac OS X 10_15_7) AppleWebKit/605.1.15 (KHTML, like Gecko) Version/15.1 Safari/605.1.15",xpyriment,legacy,legacy,0,uniform,0,0,0,0,24,24,24,0,0,74,74,74,74,74,0,74,0,36,36,36,36,36,0,36,07-02-22,07-02-22,13:45:07,Mon Mar 07 2022 13:45:07 GMT+0100 (CET),The main experiment item,yes,0,0,C:/Users/rrics/Documents/!!ResearchBMECOGSCI/gnet,0,0,0,prototype2.png,no,mono,no,18,no,black,no,no,768,1185,3.5.6,legacy,xpyriment,osweb,1.3.13,0,down,space,space,down,201130,13438,19967,201130,2,legacy,900,1440,24,900,24,0,0,1440,1646657183414,1024,2,48000,-16,experiment,p7sarr1.png,1,odd,MacIntel,96,125817,122802,96,96,635725,637231,630742,127351,630742,96,1004386,1005888,1001403,637262,1001403,visual_patterns,0,0,0,yes,1366
undefined,undefined,undefined,undefined,white,no,Mozilla,Netscape,"5.0 (Macintosh; Intel Mac OS X 10_15_7) AppleWebKit/605.1.15 (KHTML, like Gecko) Version/15.1 Safari/605.1.15",xpyriment,legacy,legacy,0,uniform,0,0,0,0,24,24,24,0,0,74,74,74,74,74,0,74,0,37,37,37,37,37,0,37,07-02-22,07-02-22,13:45:07,Mon Mar 07 2022 13:45:07 GMT+0100 (CET),The main experiment item,yes,0,0,C:/Users/rrics/Documents/!!ResearchBMECOGSCI/gnet,0,0,0,prototype2.png,no,mono,no,18,no,black,no,no,768,1185,3.5.6,legacy,xpyriment,osweb,1.3.13,0,down,space,space,down,201130,13438,19967,201130,2,legacy,900,1440,24,900,24,0,0,1440,1646657183414,1024,2,48000,-16,experiment,p1sarrcol4.png,1,odd,MacIntel,96,125817,122802,96,96,635725,637231,630742,127351,630742,96,1008910,1010423,1005945,637262,1005945,visual_patterns,0,0,0,yes,1366
undefined,undefined,undefined,undefined,white,no,Mozilla,Netscape,"5.0 (Macintosh; Intel Mac OS X 10_15_7) AppleWebKit/605.1.15 (KHTML, like Gecko) Version/15.1 Safari/605.1.15",xpyriment,legacy,legacy,0,uniform,0,0,0,0,24,24,24,0,0,74,74,74,74,74,0,74,0,38,38,38,38,38,0,38,07-02-22,07-02-22,13:45:07,Mon Mar 07 2022 13:45:07 GMT+0100 (CET),The main experiment item,yes,0,0,C:/Users/rrics/Documents/!!ResearchBMECOGSCI/gnet,0,0,0,prototype2.png,no,mono,no,18,no,black,no,no,768,1185,3.5.6,legacy,xpyriment,osweb,1.3.13,0,down,space,space,down,201130,13438,19967,201130,2,legacy,900,1440,24,900,24,0,0,1440,1646657183414,1024,2,48000,-16,experiment,p3sarrsha4.png,1,odd,MacIntel,96,125817,122802,96,96,635725,637231,630742,127351,630742,96,1013447,1014957,1010460,637262,1010460,visual_patterns,0,0,0,yes,1366
undefined,undefined,undefined,undefined,white,no,Mozilla,Netscape,"5.0 (Macintosh; Intel Mac OS X 10_15_7) AppleWebKit/605.1.15 (KHTML, like Gecko) Version/15.1 Safari/605.1.15",xpyriment,legacy,legacy,0,uniform,0,0,0,0,24,24,24,0,0,74,74,74,74,74,0,74,0,39,39,39,39,39,0,39,07-02-22,07-02-22,13:45:07,Mon Mar 07 2022 13:45:07 GMT+0100 (CET),The main experiment item,yes,0,0,C:/Users/rrics/Documents/!!ResearchBMECOGSCI/gnet,0,0,0,prototype2.png,no,mono,no,18,no,black,no,no,768,1185,3.5.6,legacy,xpyriment,osweb,1.3.13,0,down,space,space,down,201130,13438,19967,201130,2,legacy,900,1440,24,900,24,0,0,1440,1646657183414,1024,2,48000,-16,experiment,p3sarr1.png,1,odd,MacIntel,96,125817,122802,96,96,635725,637231,630742,127351,630742,96,1017972,1019474,1014987,637262,1014987,visual_patterns,0,0,0,yes,1366
undefined,undefined,undefined,undefined,white,no,Mozilla,Netscape,"5.0 (Macintosh; Intel Mac OS X 10_15_7) AppleWebKit/605.1.15 (KHTML, like Gecko) Version/15.1 Safari/605.1.15",xpyriment,legacy,legacy,0,uniform,0,0,0,0,24,24,24,0,0,74,74,74,74,74,0,74,0,40,40,40,40,40,0,40,07-02-22,07-02-22,13:45:07,Mon Mar 07 2022 13:45:07 GMT+0100 (CET),The main experiment item,yes,0,0,C:/Users/rrics/Documents/!!ResearchBMECOGSCI/gnet,0,0,0,prototype2.png,no,mono,no,18,no,black,no,no,768,1185,3.5.6,legacy,xpyriment,osweb,1.3.13,0,down,space,space,down,201130,13438,19967,201130,2,legacy,900,1440,24,900,24,0,0,1440,1646657183414,1024,2,48000,-16,experiment,p2sarrsha3.png,1,odd,MacIntel,96,125817,122802,96,96,635725,637231,630742,127351,630742,96,1022495,1024007,1019508,637262,1019508,visual_patterns,0,0,0,yes,1366
undefined,undefined,undefined,undefined,white,no,Mozilla,Netscape,"5.0 (Macintosh; Intel Mac OS X 10_15_7) AppleWebKit/605.1.15 (KHTML, like Gecko) Version/15.1 Safari/605.1.15",xpyriment,legacy,legacy,0,uniform,0,0,0,0,24,24,24,0,0,74,74,74,74,74,0,74,0,41,41,41,41,41,0,41,07-02-22,07-02-22,13:45:07,Mon Mar 07 2022 13:45:07 GMT+0100 (CET),The main experiment item,yes,0,0,C:/Users/rrics/Documents/!!ResearchBMECOGSCI/gnet,0,0,0,prototype2.png,no,mono,no,18,no,black,no,no,768,1185,3.5.6,legacy,xpyriment,osweb,1.3.13,0,down,space,space,down,201130,13438,19967,201130,2,legacy,900,1440,24,900,24,0,0,1440,1646657183414,1024,2,48000,-16,experiment,p9sarr3.png,1,odd,MacIntel,96,125817,122802,96,96,635725,637231,630742,127351,630742,96,1027028,1028541,1024042,637262,1024042,visual_patterns,0,0,0,yes,1366
undefined,undefined,undefined,undefined,white,no,Mozilla,Netscape,"5.0 (Macintosh; Intel Mac OS X 10_15_7) AppleWebKit/605.1.15 (KHTML, like Gecko) Version/15.1 Safari/605.1.15",xpyriment,legacy,legacy,0,uniform,0,0,0,0,24,24,24,0,0,74,74,74,74,74,0,74,0,42,42,42,42,42,0,42,07-02-22,07-02-22,13:45:07,Mon Mar 07 2022 13:45:07 GMT+0100 (CET),The main experiment item,yes,0,0,C:/Users/rrics/Documents/!!ResearchBMECOGSCI/gnet,0,0,0,prototype2.png,no,mono,no,18,no,black,no,no,768,1185,3.5.6,legacy,xpyriment,osweb,1.3.13,0,down,space,space,down,201130,13438,19967,201130,2,legacy,900,1440,24,900,24,0,0,1440,1646657183414,1024,2,48000,-16,experiment,p10sarr4.png,1,odd,MacIntel,96,125817,122802,96,96,635725,637231,630742,127351,630742,96,1031564,1033075,1028578,637262,1028578,visual_patterns,0,0,0,yes,1366
undefined,undefined,undefined,undefined,white,no,Mozilla,Netscape,"5.0 (Macintosh; Intel Mac OS X 10_15_7) AppleWebKit/605.1.15 (KHTML, like Gecko) Version/15.1 Safari/605.1.15",xpyriment,legacy,legacy,0,uniform,0,0,0,0,24,24,24,0,0,74,74,74,74,74,0,74,0,43,43,43,43,43,0,43,07-02-22,07-02-22,13:45:07,Mon Mar 07 2022 13:45:07 GMT+0100 (CET),The main experiment item,yes,0,0,C:/Users/rrics/Documents/!!ResearchBMECOGSCI/gnet,0,0,0,prototype2.png,no,mono,no,18,no,black,no,no,768,1185,3.5.6,legacy,xpyriment,osweb,1.3.13,0,down,space,space,down,201130,13438,19967,201130,2,legacy,900,1440,24,900,24,0,0,1440,1646657183414,1024,2,48000,-16,experiment,p4sarrcol1.png,1,odd,MacIntel,96,125817,122802,96,96,635725,637231,630742,127351,630742,96,1036089,1037592,1033105,637262,1033105,visual_patterns,0,0,0,yes,1366
undefined,undefined,undefined,undefined,white,no,Mozilla,Netscape,"5.0 (Macintosh; Intel Mac OS X 10_15_7) AppleWebKit/605.1.15 (KHTML, like Gecko) Version/15.1 Safari/605.1.15",xpyriment,legacy,legacy,0,uniform,0,0,0,0,24,24,24,0,0,74,74,74,74,74,0,74,0,44,44,44,44,44,0,44,07-02-22,07-02-22,13:45:07,Mon Mar 07 2022 13:45:07 GMT+0100 (CET),The main experiment item,yes,0,0,C:/Users/rrics/Documents/!!ResearchBMECOGSCI/gnet,0,0,0,prototype2.png,no,mono,no,18,no,black,no,no,768,1185,3.5.6,legacy,xpyriment,osweb,1.3.13,0,down,space,space,down,201130,13438,19967,201130,2,legacy,900,1440,24,900,24,0,0,1440,1646657183414,1024,2,48000,-16,experiment,p5sarrshacol4.png,1,odd,MacIntel,96,125817,122802,96,96,635725,637231,630742,127351,630742,96,1040614,1042125,1037630,637262,1037630,visual_patterns,0,0,0,yes,1366
undefined,undefined,undefined,undefined,white,no,Mozilla,Netscape,"5.0 (Macintosh; Intel Mac OS X 10_15_7) AppleWebKit/605.1.15 (KHTML, like Gecko) Version/15.1 Safari/605.1.15",xpyriment,legacy,legacy,0,uniform,0,0,0,0,24,24,24,0,0,74,74,74,74,74,0,74,0,45,45,45,45,45,0,45,07-02-22,07-02-22,13:45:07,Mon Mar 07 2022 13:45:07 GMT+0100 (CET),The main experiment item,yes,0,0,C:/Users/rrics/Documents/!!ResearchBMECOGSCI/gnet,0,0,0,prototype2.png,no,mono,no,18,no,black,no,no,768,1185,3.5.6,legacy,xpyriment,osweb,1.3.13,0,down,space,space,down,201130,13438,19967,201130,2,legacy,900,1440,24,900,24,0,0,1440,1646657183414,1024,2,48000,-16,experiment,p3sarr3.png,1,odd,MacIntel,96,125817,122802,96,96,635725,637231,630742,127351,630742,96,1045146,1046659,1042160,637262,1042160,visual_patterns,0,0,0,yes,1366
undefined,undefined,undefined,undefined,white,no,Mozilla,Netscape,"5.0 (Macintosh; Intel Mac OS X 10_15_7) AppleWebKit/605.1.15 (KHTML, like Gecko) Version/15.1 Safari/605.1.15",xpyriment,legacy,legacy,0,uniform,0,0,0,0,24,24,24,0,0,74,74,74,74,74,0,74,0,46,46,46,46,46,0,46,07-02-22,07-02-22,13:45:07,Mon Mar 07 2022 13:45:07 GMT+0100 (CET),The main experiment item,yes,0,0,C:/Users/rrics/Documents/!!ResearchBMECOGSCI/gnet,0,0,0,prototype2.png,no,mono,no,18,no,black,no,no,768,1185,3.5.6,legacy,xpyriment,osweb,1.3.13,0,down,space,space,down,201130,13438,19967,201130,2,legacy,900,1440,24,900,24,0,0,1440,1646657183414,1024,2,48000,-16,experiment,p2sarr3.png,1,odd,MacIntel,96,125817,122802,96,96,635725,637231,630742,127351,630742,96,1049680,1051192,1046693,637262,1046693,visual_patterns,0,0,0,yes,1366
undefined,undefined,undefined,undefined,white,no,Mozilla,Netscape,"5.0 (Macintosh; Intel Mac OS X 10_15_7) AppleWebKit/605.1.15 (KHTML, like Gecko) Version/15.1 Safari/605.1.15",xpyriment,legacy,legacy,0,uniform,0,0,0,0,24,24,24,0,0,74,74,74,74,74,0,74,0,47,47,47,47,47,0,47,07-02-22,07-02-22,13:45:07,Mon Mar 07 2022 13:45:07 GMT+0100 (CET),The main experiment item,yes,0,0,C:/Users/rrics/Documents/!!ResearchBMECOGSCI/gnet,0,0,0,prototype2.png,no,mono,no,18,no,black,no,no,768,1185,3.5.6,legacy,xpyriment,osweb,1.3.13,0,down,space,space,down,201130,13438,19967,201130,2,legacy,900,1440,24,900,24,0,0,1440,1646657183414,1024,2,48000,-16,experiment,p4sarr2.png,1,odd,MacIntel,96,125817,122802,96,96,635725,637231,630742,127351,630742,96,1054210,1055726,1051225,637262,1051225,visual_patterns,0,0,0,yes,1366
undefined,undefined,undefined,undefined,white,no,Mozilla,Netscape,"5.0 (Macintosh; Intel Mac OS X 10_15_7) AppleWebKit/605.1.15 (KHTML, like Gecko) Version/15.1 Safari/605.1.15",xpyriment,legacy,legacy,0,uniform,0,0,0,0,24,24,24,0,0,74,74,74,74,74,0,74,0,48,48,48,48,48,0,48,07-02-22,07-02-22,13:45:07,Mon Mar 07 2022 13:45:07 GMT+0100 (CET),The main experiment item,yes,0,0,C:/Users/rrics/Documents/!!ResearchBMECOGSCI/gnet,0,0,0,prototype2.png,no,mono,no,18,no,black,no,no,768,1185,3.5.6,legacy,xpyriment,osweb,1.3.13,0,down,space,space,down,201130,13438,19967,201130,2,legacy,900,1440,24,900,24,0,0,1440,1646657183414,1024,2,48000,-16,experiment,p2sarrshacol3.png,1,odd,MacIntel,96,125817,122802,96,96,635725,637231,630742,127351,630742,96,1058744,1060260,1055761,637262,1055761,visual_patterns,0,0,0,yes,1366
undefined,undefined,undefined,undefined,white,no,Mozilla,Netscape,"5.0 (Macintosh; Intel Mac OS X 10_15_7) AppleWebKit/605.1.15 (KHTML, like Gecko) Version/15.1 Safari/605.1.15",xpyriment,legacy,legacy,0,uniform,0,0,0,0,24,24,24,0,0,74,74,74,74,74,0,74,0,49,49,49,49,49,0,49,07-02-22,07-02-22,13:45:07,Mon Mar 07 2022 13:45:07 GMT+0100 (CET),The main experiment item,yes,0,0,C:/Users/rrics/Documents/!!ResearchBMECOGSCI/gnet,0,0,0,prototype2.png,no,mono,no,18,no,black,no,no,768,1185,3.5.6,legacy,xpyriment,osweb,1.3.13,0,down,space,space,down,201130,13438,19967,201130,2,legacy,900,1440,24,900,24,0,0,1440,1646657183414,1024,2,48000,-16,experiment,p2sarrcol2.png,1,odd,MacIntel,96,125817,122802,96,96,635725,637231,630742,127351,630742,96,1063273,1064777,1060290,637262,1060290,visual_patterns,0,0,0,yes,1366
undefined,undefined,undefined,undefined,white,no,Mozilla,Netscape,"5.0 (Macintosh; Intel Mac OS X 10_15_7) AppleWebKit/605.1.15 (KHTML, like Gecko) Version/15.1 Safari/605.1.15",xpyriment,legacy,legacy,0,uniform,0,0,0,0,24,24,24,0,0,74,74,74,74,74,0,74,0,50,50,50,50,50,0,50,07-02-22,07-02-22,13:45:07,Mon Mar 07 2022 13:45:07 GMT+0100 (CET),The main experiment item,yes,0,0,C:/Users/rrics/Documents/!!ResearchBMECOGSCI/gnet,0,0,0,prototype2.png,no,mono,no,18,no,black,no,no,768,1185,3.5.6,legacy,xpyriment,osweb,1.3.13,0,down,space,space,down,201130,13438,19967,201130,2,legacy,900,1440,24,900,24,0,0,1440,1646657183414,1024,2,48000,-16,experiment,p4sarrsha3.png,1,odd,MacIntel,96,125817,122802,96,96,635725,637231,630742,127351,630742,96,1067796,1069311,1064811,637262,1064811,visual_patterns,0,0,0,yes,1366
