acc,accuracy,average_response_time,avg_rt,background,bidi,browser_codename,browser_name,browser_version,canvas_backend,clock_backend,color_backend,compensation,coordinates,count_end,count_experiment,count_osweb,count_prestudy,count_prestudy_isi,count_prestudy_sequence,count_prestudy_stimpres,count_start,count_study,count_study_coroutines,count_study_isi,count_study_logger,count_study_response,count_study_sequence,count_study_start,count_study_stimpres,count_test,count_test_coroutines,count_test_isi,count_test_logger,count_test_response,count_test_sequence,count_test_start,count_test_stimpres,date_startdate,date_startdateUTC,date_starttime,datetime,description,disable_garbage_collection,experiment_debug,experiment_parameters,experiment_path,experiment_pilot,experiment_taskname,experiment_taskversion,fampict,font_bold,font_family,font_italic,font_size,font_underline,foreground,form_clicks,fullscreen,height,jatosStudyResultId,jatosVersion,keyboard_backend,mouse_backend,opensesame_codename,opensesame_version,repeat_cycle,response,response_start,response_study_start,response_test_start,response_time,response_time_start,response_time_study_start,response_time_test_start,round_decimals,sampler_backend,screen_availableHeight,screen_availableWidth,screen_colorDepth,screen_height,screen_pixelDepth,screen_screenX,screen_screenY,screen_width,sessionid,sound_buf_size,sound_channels,sound_freq,sound_sample_size,start,stim,subject_nr,subject_parity,system_os,time_prestudy,time_prestudy_isi,time_prestudy_stimpres,time_start,time_study,time_study_isi,time_study_logger,time_study_response,time_study_start,time_study_stimpres,time_test,time_test_isi,time_test_logger,time_test_response,time_test_start,time_test_stimpres,title,total_correct,total_response_time,total_responses,uniform_coordinates,width
undefined,undefined,undefined,undefined,white,no,Mozilla,Netscape,"5.0 (Macintosh; Intel Mac OS X 10_15_7) AppleWebKit/605.1.15 (KHTML, like Gecko) Version/14.1.2 Safari/605.1.15",xpyriment,legacy,legacy,0,uniform,0,0,0,0,24,24,24,0,0,0,0,0,0,0,0,0,0,,,,,,0,,07-02-22,07-02-22,19:26:10,Mon Mar 07 2022 19:26:10 GMT+0100 (CET),The main experiment item,yes,0,0,C:/Users/rrics/Documents/!!ResearchBMECOGSCI/gnet,0,0,0,prototype2.png,no,mono,no,18,no,black,no,no,768,1186,3.5.6,legacy,xpyriment,osweb,1.3.13,0,space,space,space,,37791,30030,37791,,2,legacy,900,1440,24,900,24,78,0,1440,1646677461391,1024,2,48000,-16,experiment,p6sarr1.png,0,even,MacIntel,124,142544,139526,124,124,186891,188408,181911,144081,181911,124,,,,,,visual_patterns,0,0,0,yes,1366
undefined,undefined,undefined,undefined,white,no,Mozilla,Netscape,"5.0 (Macintosh; Intel Mac OS X 10_15_7) AppleWebKit/605.1.15 (KHTML, like Gecko) Version/14.1.2 Safari/605.1.15",xpyriment,legacy,legacy,0,uniform,0,0,0,0,24,24,24,0,0,1,1,1,1,1,0,1,0,,,,,,0,,07-02-22,07-02-22,19:26:10,Mon Mar 07 2022 19:26:10 GMT+0100 (CET),The main experiment item,yes,0,0,C:/Users/rrics/Documents/!!ResearchBMECOGSCI/gnet,0,0,0,prototype2.png,no,mono,no,18,no,black,no,no,768,1186,3.5.6,legacy,xpyriment,osweb,1.3.13,0,space,space,space,,37791,30030,37791,,2,legacy,900,1440,24,900,24,78,0,1440,1646677461391,1024,2,48000,-16,experiment,prototype3.png,0,even,MacIntel,124,142544,139526,124,124,193425,194939,188444,144081,188444,124,,,,,,visual_patterns,0,0,0,yes,1366
undefined,undefined,undefined,undefined,white,no,Mozilla,Netscape,"5.0 (Macintosh; Intel Mac OS X 10_15_7) AppleWebKit/605.1.15 (KHTML, like Gecko) Version/14.1.2 Safari/605.1.15",xpyriment,legacy,legacy,0,uniform,0,0,0,0,24,24,24,0,0,2,2,2,2,2,0,2,0,,,,,,0,,07-02-22,07-02-22,19:26:10,Mon Mar 07 2022 19:26:10 GMT+0100 (CET),The main experiment item,yes,0,0,C:/Users/rrics/Documents/!!ResearchBMECOGSCI/gnet,0,0,0,prototype2.png,no,mono,no,18,no,black,no,no,768,1186,3.5.6,legacy,xpyriment,osweb,1.3.13,0,space,space,space,,37791,30030,37791,,2,legacy,900,1440,24,900,24,78,0,1440,1646677461391,1024,2,48000,-16,experiment,p3sarr1.png,0,even,MacIntel,124,142544,139526,124,124,199955,201469,194973,144081,194973,124,,,,,,visual_patterns,0,0,0,yes,1366
undefined,undefined,undefined,undefined,white,no,Mozilla,Netscape,"5.0 (Macintosh; Intel Mac OS X 10_15_7) AppleWebKit/605.1.15 (KHTML, like Gecko) Version/14.1.2 Safari/605.1.15",xpyriment,legacy,legacy,0,uniform,0,0,0,0,24,24,24,0,0,3,3,3,3,3,0,3,0,,,,,,0,,07-02-22,07-02-22,19:26:10,Mon Mar 07 2022 19:26:10 GMT+0100 (CET),The main experiment item,yes,0,0,C:/Users/rrics/Documents/!!ResearchBMECOGSCI/gnet,0,0,0,prototype2.png,no,mono,no,18,no,black,no,no,768,1186,3.5.6,legacy,xpyriment,osweb,1.3.13,0,space,space,space,,37791,30030,37791,,2,legacy,900,1440,24,900,24,78,0,1440,1646677461391,1024,2,48000,-16,experiment,p9sarr2.png,0,even,MacIntel,124,142544,139526,124,124,206484,207988,201506,144081,201506,124,,,,,,visual_patterns,0,0,0,yes,1366
undefined,undefined,undefined,undefined,white,no,Mozilla,Netscape,"5.0 (Macintosh; Intel Mac OS X 10_15_7) AppleWebKit/605.1.15 (KHTML, like Gecko) Version/14.1.2 Safari/605.1.15",xpyriment,legacy,legacy,0,uniform,0,0,0,0,24,24,24,0,0,4,4,4,4,4,0,4,0,,,,,,0,,07-02-22,07-02-22,19:26:10,Mon Mar 07 2022 19:26:10 GMT+0100 (CET),The main experiment item,yes,0,0,C:/Users/rrics/Documents/!!ResearchBMECOGSCI/gnet,0,0,0,prototype2.png,no,mono,no,18,no,black,no,no,768,1186,3.5.6,legacy,xpyriment,osweb,1.3.13,0,space,space,space,,37791,30030,37791,,2,legacy,900,1440,24,900,24,78,0,1440,1646677461391,1024,2,48000,-16,experiment,p4sarr2.png,0,even,MacIntel,124,142544,139526,124,124,213004,214520,208022,144081,208022,124,,,,,,visual_patterns,0,0,0,yes,1366
undefined,undefined,undefined,undefined,white,no,Mozilla,Netscape,"5.0 (Macintosh; Intel Mac OS X 10_15_7) AppleWebKit/605.1.15 (KHTML, like Gecko) Version/14.1.2 Safari/605.1.15",xpyriment,legacy,legacy,0,uniform,0,0,0,0,24,24,24,0,0,5,5,5,5,5,0,5,0,,,,,,0,,07-02-22,07-02-22,19:26:10,Mon Mar 07 2022 19:26:10 GMT+0100 (CET),The main experiment item,yes,0,0,C:/Users/rrics/Documents/!!ResearchBMECOGSCI/gnet,0,0,0,prototype2.png,no,mono,no,18,no,black,no,no,768,1186,3.5.6,legacy,xpyriment,osweb,1.3.13,0,space,space,space,,37791,30030,37791,,2,legacy,900,1440,24,900,24,78,0,1440,1646677461391,1024,2,48000,-16,experiment,p4sarrshacol2.png,0,even,MacIntel,124,142544,139526,124,124,219537,221053,214556,144081,214556,124,,,,,,visual_patterns,0,0,0,yes,1366
undefined,undefined,undefined,undefined,white,no,Mozilla,Netscape,"5.0 (Macintosh; Intel Mac OS X 10_15_7) AppleWebKit/605.1.15 (KHTML, like Gecko) Version/14.1.2 Safari/605.1.15",xpyriment,legacy,legacy,0,uniform,0,0,0,0,24,24,24,0,0,6,6,6,6,6,0,6,0,,,,,,0,,07-02-22,07-02-22,19:26:10,Mon Mar 07 2022 19:26:10 GMT+0100 (CET),The main experiment item,yes,0,0,C:/Users/rrics/Documents/!!ResearchBMECOGSCI/gnet,0,0,0,prototype2.png,no,mono,no,18,no,black,no,no,768,1186,3.5.6,legacy,xpyriment,osweb,1.3.13,0,space,space,space,,37791,30030,37791,,2,legacy,900,1440,24,900,24,78,0,1440,1646677461391,1024,2,48000,-16,experiment,p5sarrsha2.png,0,even,MacIntel,124,142544,139526,124,124,226066,227570,221088,144081,221088,124,,,,,,visual_patterns,0,0,0,yes,1366
undefined,undefined,undefined,undefined,white,no,Mozilla,Netscape,"5.0 (Macintosh; Intel Mac OS X 10_15_7) AppleWebKit/605.1.15 (KHTML, like Gecko) Version/14.1.2 Safari/605.1.15",xpyriment,legacy,legacy,0,uniform,0,0,0,0,24,24,24,0,0,7,7,7,7,7,0,7,0,,,,,,0,,07-02-22,07-02-22,19:26:10,Mon Mar 07 2022 19:26:10 GMT+0100 (CET),The main experiment item,yes,0,0,C:/Users/rrics/Documents/!!ResearchBMECOGSCI/gnet,0,0,0,prototype2.png,no,mono,no,18,no,black,no,no,768,1186,3.5.6,legacy,xpyriment,osweb,1.3.13,0,space,space,space,,37791,30030,37791,,2,legacy,900,1440,24,900,24,78,0,1440,1646677461391,1024,2,48000,-16,experiment,p2sarr1.png,0,even,MacIntel,124,142544,139526,124,124,232588,234103,227606,144081,227606,124,,,,,,visual_patterns,0,0,0,yes,1366
undefined,undefined,undefined,undefined,white,no,Mozilla,Netscape,"5.0 (Macintosh; Intel Mac OS X 10_15_7) AppleWebKit/605.1.15 (KHTML, like Gecko) Version/14.1.2 Safari/605.1.15",xpyriment,legacy,legacy,0,uniform,0,0,0,0,24,24,24,0,0,8,8,8,8,8,0,8,0,,,,,,0,,07-02-22,07-02-22,19:26:10,Mon Mar 07 2022 19:26:10 GMT+0100 (CET),The main experiment item,yes,0,0,C:/Users/rrics/Documents/!!ResearchBMECOGSCI/gnet,0,0,0,prototype2.png,no,mono,no,18,no,black,no,no,768,1186,3.5.6,legacy,xpyriment,osweb,1.3.13,0,space,space,space,,37791,30030,37791,,2,legacy,900,1440,24,900,24,78,0,1440,1646677461391,1024,2,48000,-16,experiment,prototype4.png,0,even,MacIntel,124,142544,139526,124,124,239119,240633,234136,144081,234136,124,,,,,,visual_patterns,0,0,0,yes,1366
undefined,undefined,undefined,undefined,white,no,Mozilla,Netscape,"5.0 (Macintosh; Intel Mac OS X 10_15_7) AppleWebKit/605.1.15 (KHTML, like Gecko) Version/14.1.2 Safari/605.1.15",xpyriment,legacy,legacy,0,uniform,0,0,0,0,24,24,24,0,0,9,9,9,9,9,0,9,0,,,,,,0,,07-02-22,07-02-22,19:26:10,Mon Mar 07 2022 19:26:10 GMT+0100 (CET),The main experiment item,yes,0,0,C:/Users/rrics/Documents/!!ResearchBMECOGSCI/gnet,0,0,0,prototype2.png,no,mono,no,18,no,black,no,no,768,1186,3.5.6,legacy,xpyriment,osweb,1.3.13,0,space,space,space,,37791,30030,37791,,2,legacy,900,1440,24,900,24,78,0,1440,1646677461391,1024,2,48000,-16,experiment,p5sarrsha1.png,0,even,MacIntel,124,142544,139526,124,124,245647,247164,240667,144081,240667,124,,,,,,visual_patterns,0,0,0,yes,1366
undefined,undefined,undefined,undefined,white,no,Mozilla,Netscape,"5.0 (Macintosh; Intel Mac OS X 10_15_7) AppleWebKit/605.1.15 (KHTML, like Gecko) Version/14.1.2 Safari/605.1.15",xpyriment,legacy,legacy,0,uniform,0,0,0,0,24,24,24,0,0,10,10,10,10,10,0,10,0,,,,,,0,,07-02-22,07-02-22,19:26:10,Mon Mar 07 2022 19:26:10 GMT+0100 (CET),The main experiment item,yes,0,0,C:/Users/rrics/Documents/!!ResearchBMECOGSCI/gnet,0,0,0,prototype2.png,no,mono,no,18,no,black,no,no,768,1186,3.5.6,legacy,xpyriment,osweb,1.3.13,0,space,space,space,,37791,30030,37791,,2,legacy,900,1440,24,900,24,78,0,1440,1646677461391,1024,2,48000,-16,experiment,p5sarrcol1.png,0,even,MacIntel,124,142544,139526,124,124,252179,253680,247200,144081,247200,124,,,,,,visual_patterns,0,0,0,yes,1366
undefined,undefined,undefined,undefined,white,no,Mozilla,Netscape,"5.0 (Macintosh; Intel Mac OS X 10_15_7) AppleWebKit/605.1.15 (KHTML, like Gecko) Version/14.1.2 Safari/605.1.15",xpyriment,legacy,legacy,0,uniform,0,0,0,0,24,24,24,0,0,11,11,11,11,11,0,11,0,,,,,,0,,07-02-22,07-02-22,19:26:10,Mon Mar 07 2022 19:26:10 GMT+0100 (CET),The main experiment item,yes,0,0,C:/Users/rrics/Documents/!!ResearchBMECOGSCI/gnet,0,0,0,prototype2.png,no,mono,no,18,no,black,no,no,768,1186,3.5.6,legacy,xpyriment,osweb,1.3.13,0,space,space,space,,37791,30030,37791,,2,legacy,900,1440,24,900,24,78,0,1440,1646677461391,1024,2,48000,-16,experiment,p8sarr2.png,0,even,MacIntel,124,142544,139526,124,124,258699,260213,253716,144081,253716,124,,,,,,visual_patterns,0,0,0,yes,1366
undefined,undefined,undefined,undefined,white,no,Mozilla,Netscape,"5.0 (Macintosh; Intel Mac OS X 10_15_7) AppleWebKit/605.1.15 (KHTML, like Gecko) Version/14.1.2 Safari/605.1.15",xpyriment,legacy,legacy,0,uniform,0,0,0,0,24,24,24,0,0,12,12,12,12,12,0,12,0,,,,,,0,,07-02-22,07-02-22,19:26:10,Mon Mar 07 2022 19:26:10 GMT+0100 (CET),The main experiment item,yes,0,0,C:/Users/rrics/Documents/!!ResearchBMECOGSCI/gnet,0,0,0,prototype2.png,no,mono,no,18,no,black,no,no,768,1186,3.5.6,legacy,xpyriment,osweb,1.3.13,0,space,space,space,,37791,30030,37791,,2,legacy,900,1440,24,900,24,78,0,1440,1646677461391,1024,2,48000,-16,experiment,p5sarrshacol2.png,0,even,MacIntel,124,142544,139526,124,124,265230,266746,260246,144081,260246,124,,,,,,visual_patterns,0,0,0,yes,1366
undefined,undefined,undefined,undefined,white,no,Mozilla,Netscape,"5.0 (Macintosh; Intel Mac OS X 10_15_7) AppleWebKit/605.1.15 (KHTML, like Gecko) Version/14.1.2 Safari/605.1.15",xpyriment,legacy,legacy,0,uniform,0,0,0,0,24,24,24,0,0,13,13,13,13,13,0,13,0,,,,,,0,,07-02-22,07-02-22,19:26:10,Mon Mar 07 2022 19:26:10 GMT+0100 (CET),The main experiment item,yes,0,0,C:/Users/rrics/Documents/!!ResearchBMECOGSCI/gnet,0,0,0,prototype2.png,no,mono,no,18,no,black,no,no,768,1186,3.5.6,legacy,xpyriment,osweb,1.3.13,0,space,space,space,,37791,30030,37791,,2,legacy,900,1440,24,900,24,78,0,1440,1646677461391,1024,2,48000,-16,experiment,p8sarr1.png,0,even,MacIntel,124,142544,139526,124,124,271761,273277,266781,144081,266781,124,,,,,,visual_patterns,0,0,0,yes,1366
undefined,undefined,undefined,undefined,white,no,Mozilla,Netscape,"5.0 (Macintosh; Intel Mac OS X 10_15_7) AppleWebKit/605.1.15 (KHTML, like Gecko) Version/14.1.2 Safari/605.1.15",xpyriment,legacy,legacy,0,uniform,0,0,0,0,24,24,24,0,0,14,14,14,14,14,0,14,0,,,,,,0,,07-02-22,07-02-22,19:26:10,Mon Mar 07 2022 19:26:10 GMT+0100 (CET),The main experiment item,yes,0,0,C:/Users/rrics/Documents/!!ResearchBMECOGSCI/gnet,0,0,0,prototype2.png,no,mono,no,18,no,black,no,no,768,1186,3.5.6,legacy,xpyriment,osweb,1.3.13,0,space,space,space,,37791,30030,37791,,2,legacy,900,1440,24,900,24,78,0,1440,1646677461391,1024,2,48000,-16,experiment,p3sarrcol1.png,0,even,MacIntel,124,142544,139526,124,124,278292,279795,273312,144081,273312,124,,,,,,visual_patterns,0,0,0,yes,1366
undefined,undefined,undefined,undefined,white,no,Mozilla,Netscape,"5.0 (Macintosh; Intel Mac OS X 10_15_7) AppleWebKit/605.1.15 (KHTML, like Gecko) Version/14.1.2 Safari/605.1.15",xpyriment,legacy,legacy,0,uniform,0,0,0,0,24,24,24,0,0,15,15,15,15,15,0,15,0,,,,,,0,,07-02-22,07-02-22,19:26:10,Mon Mar 07 2022 19:26:10 GMT+0100 (CET),The main experiment item,yes,0,0,C:/Users/rrics/Documents/!!ResearchBMECOGSCI/gnet,0,0,0,prototype2.png,no,mono,no,18,no,black,no,no,768,1186,3.5.6,legacy,xpyriment,osweb,1.3.13,0,space,space,space,,37791,30030,37791,,2,legacy,900,1440,24,900,24,78,0,1440,1646677461391,1024,2,48000,-16,experiment,prototype1.png,0,even,MacIntel,124,142544,139526,124,124,284812,286329,279828,144081,279828,124,,,,,,visual_patterns,0,0,0,yes,1366
undefined,undefined,undefined,undefined,white,no,Mozilla,Netscape,"5.0 (Macintosh; Intel Mac OS X 10_15_7) AppleWebKit/605.1.15 (KHTML, like Gecko) Version/14.1.2 Safari/605.1.15",xpyriment,legacy,legacy,0,uniform,0,0,0,0,24,24,24,0,0,16,16,16,16,16,0,16,0,,,,,,0,,07-02-22,07-02-22,19:26:10,Mon Mar 07 2022 19:26:10 GMT+0100 (CET),The main experiment item,yes,0,0,C:/Users/rrics/Documents/!!ResearchBMECOGSCI/gnet,0,0,0,prototype2.png,no,mono,no,18,no,black,no,no,768,1186,3.5.6,legacy,xpyriment,osweb,1.3.13,0,space,space,space,,37791,30030,37791,,2,legacy,900,1440,24,900,24,78,0,1440,1646677461391,1024,2,48000,-16,experiment,p2sarr2.png,0,even,MacIntel,124,142544,139526,124,124,291350,292856,286369,144081,286368,124,,,,,,visual_patterns,0,0,0,yes,1366
undefined,undefined,undefined,undefined,white,no,Mozilla,Netscape,"5.0 (Macintosh; Intel Mac OS X 10_15_7) AppleWebKit/605.1.15 (KHTML, like Gecko) Version/14.1.2 Safari/605.1.15",xpyriment,legacy,legacy,0,uniform,0,0,0,0,24,24,24,0,0,17,17,17,17,17,0,17,0,,,,,,0,,07-02-22,07-02-22,19:26:10,Mon Mar 07 2022 19:26:10 GMT+0100 (CET),The main experiment item,yes,0,0,C:/Users/rrics/Documents/!!ResearchBMECOGSCI/gnet,0,0,0,prototype2.png,no,mono,no,18,no,black,no,no,768,1186,3.5.6,legacy,xpyriment,osweb,1.3.13,0,space,space,space,,37791,30030,37791,,2,legacy,900,1440,24,900,24,78,0,1440,1646677461391,1024,2,48000,-16,experiment,p3sarrsha2.png,0,even,MacIntel,124,142544,139526,124,124,297870,299375,292889,144081,292889,124,,,,,,visual_patterns,0,0,0,yes,1366
undefined,undefined,undefined,undefined,white,no,Mozilla,Netscape,"5.0 (Macintosh; Intel Mac OS X 10_15_7) AppleWebKit/605.1.15 (KHTML, like Gecko) Version/14.1.2 Safari/605.1.15",xpyriment,legacy,legacy,0,uniform,0,0,0,0,24,24,24,0,0,18,18,18,18,18,0,18,0,,,,,,0,,07-02-22,07-02-22,19:26:10,Mon Mar 07 2022 19:26:10 GMT+0100 (CET),The main experiment item,yes,0,0,C:/Users/rrics/Documents/!!ResearchBMECOGSCI/gnet,0,0,0,prototype2.png,no,mono,no,18,no,black,no,no,768,1186,3.5.6,legacy,xpyriment,osweb,1.3.13,0,space,space,space,,37791,30030,37791,,2,legacy,900,1440,24,900,24,78,0,1440,1646677461391,1024,2,48000,-16,experiment,prototype4.png,0,even,MacIntel,124,142544,139526,124,124,304388,305889,299408,144081,299408,124,,,,,,visual_patterns,0,0,0,yes,1366
undefined,undefined,undefined,undefined,white,no,Mozilla,Netscape,"5.0 (Macintosh; Intel Mac OS X 10_15_7) AppleWebKit/605.1.15 (KHTML, like Gecko) Version/14.1.2 Safari/605.1.15",xpyriment,legacy,legacy,0,uniform,0,0,0,0,24,24,24,0,0,19,19,19,19,19,0,19,0,,,,,,0,,07-02-22,07-02-22,19:26:10,Mon Mar 07 2022 19:26:10 GMT+0100 (CET),The main experiment item,yes,0,0,C:/Users/rrics/Documents/!!ResearchBMECOGSCI/gnet,0,0,0,prototype2.png,no,mono,no,18,no,black,no,no,768,1186,3.5.6,legacy,xpyriment,osweb,1.3.13,0,space,space,space,,37791,30030,37791,,2,legacy,900,1440,24,900,24,78,0,1440,1646677461391,1024,2,48000,-16,experiment,p3sarrsha1.png,0,even,MacIntel,124,142544,139526,124,124,310905,312420,305925,144081,305925,124,,,,,,visual_patterns,0,0,0,yes,1366
undefined,undefined,undefined,undefined,white,no,Mozilla,Netscape,"5.0 (Macintosh; Intel Mac OS X 10_15_7) AppleWebKit/605.1.15 (KHTML, like Gecko) Version/14.1.2 Safari/605.1.15",xpyriment,legacy,legacy,0,uniform,0,0,0,0,24,24,24,0,0,20,20,20,20,20,0,20,0,,,,,,0,,07-02-22,07-02-22,19:26:10,Mon Mar 07 2022 19:26:10 GMT+0100 (CET),The main experiment item,yes,0,0,C:/Users/rrics/Documents/!!ResearchBMECOGSCI/gnet,0,0,0,prototype2.png,no,mono,no,18,no,black,no,no,768,1186,3.5.6,legacy,xpyriment,osweb,1.3.13,0,space,space,space,,37791,30030,37791,,2,legacy,900,1440,24,900,24,78,0,1440,1646677461391,1024,2,48000,-16,experiment,prototype2.png,0,even,MacIntel,124,142544,139526,124,124,317434,318950,312451,144081,312451,124,,,,,,visual_patterns,0,0,0,yes,1366
undefined,undefined,undefined,undefined,white,no,Mozilla,Netscape,"5.0 (Macintosh; Intel Mac OS X 10_15_7) AppleWebKit/605.1.15 (KHTML, like Gecko) Version/14.1.2 Safari/605.1.15",xpyriment,legacy,legacy,0,uniform,0,0,0,0,24,24,24,0,0,21,21,21,21,21,0,21,0,,,,,,0,,07-02-22,07-02-22,19:26:10,Mon Mar 07 2022 19:26:10 GMT+0100 (CET),The main experiment item,yes,0,0,C:/Users/rrics/Documents/!!ResearchBMECOGSCI/gnet,0,0,0,prototype2.png,no,mono,no,18,no,black,no,no,768,1186,3.5.6,legacy,xpyriment,osweb,1.3.13,0,space,space,space,,37791,30030,37791,,2,legacy,900,1440,24,900,24,78,0,1440,1646677461391,1024,2,48000,-16,experiment,p4sarrcol2.png,0,even,MacIntel,124,142544,139526,124,124,323967,325480,318986,144081,318986,124,,,,,,visual_patterns,0,0,0,yes,1366
undefined,undefined,undefined,undefined,white,no,Mozilla,Netscape,"5.0 (Macintosh; Intel Mac OS X 10_15_7) AppleWebKit/605.1.15 (KHTML, like Gecko) Version/14.1.2 Safari/605.1.15",xpyriment,legacy,legacy,0,uniform,0,0,0,0,24,24,24,0,0,22,22,22,22,22,0,22,0,,,,,,0,,07-02-22,07-02-22,19:26:10,Mon Mar 07 2022 19:26:10 GMT+0100 (CET),The main experiment item,yes,0,0,C:/Users/rrics/Documents/!!ResearchBMECOGSCI/gnet,0,0,0,prototype2.png,no,mono,no,18,no,black,no,no,768,1186,3.5.6,legacy,xpyriment,osweb,1.3.13,0,space,space,space,,37791,30030,37791,,2,legacy,900,1440,24,900,24,78,0,1440,1646677461391,1024,2,48000,-16,experiment,p5sarrshacol1.png,0,even,MacIntel,124,142544,139526,124,124,330503,332011,325519,144081,325519,124,,,,,,visual_patterns,0,0,0,yes,1366
undefined,undefined,undefined,undefined,white,no,Mozilla,Netscape,"5.0 (Macintosh; Intel Mac OS X 10_15_7) AppleWebKit/605.1.15 (KHTML, like Gecko) Version/14.1.2 Safari/605.1.15",xpyriment,legacy,legacy,0,uniform,0,0,0,0,24,24,24,0,0,23,23,23,23,23,0,23,0,,,,,,0,,07-02-22,07-02-22,19:26:10,Mon Mar 07 2022 19:26:10 GMT+0100 (CET),The main experiment item,yes,0,0,C:/Users/rrics/Documents/!!ResearchBMECOGSCI/gnet,0,0,0,prototype2.png,no,mono,no,18,no,black,no,no,768,1186,3.5.6,legacy,xpyriment,osweb,1.3.13,0,space,space,space,,37791,30030,37791,,2,legacy,900,1440,24,900,24,78,0,1440,1646677461391,1024,2,48000,-16,experiment,prototype2.png,0,even,MacIntel,124,142544,139526,124,124,337027,338541,332043,144081,332043,124,,,,,,visual_patterns,0,0,0,yes,1366
undefined,undefined,undefined,undefined,white,no,Mozilla,Netscape,"5.0 (Macintosh; Intel Mac OS X 10_15_7) AppleWebKit/605.1.15 (KHTML, like Gecko) Version/14.1.2 Safari/605.1.15",xpyriment,legacy,legacy,0,uniform,0,0,0,0,24,24,24,0,0,24,24,24,24,24,0,24,0,,,,,,0,,07-02-22,07-02-22,19:26:10,Mon Mar 07 2022 19:26:10 GMT+0100 (CET),The main experiment item,yes,0,0,C:/Users/rrics/Documents/!!ResearchBMECOGSCI/gnet,0,0,0,prototype2.png,no,mono,no,18,no,black,no,no,768,1186,3.5.6,legacy,xpyriment,osweb,1.3.13,0,space,space,space,,37791,30030,37791,,2,legacy,900,1440,24,900,24,78,0,1440,1646677461391,1024,2,48000,-16,experiment,p4sarrsha2.png,0,even,MacIntel,124,142544,139526,124,124,343558,345059,338576,144081,338576,124,,,,,,visual_patterns,0,0,0,yes,1366
undefined,undefined,undefined,undefined,white,no,Mozilla,Netscape,"5.0 (Macintosh; Intel Mac OS X 10_15_7) AppleWebKit/605.1.15 (KHTML, like Gecko) Version/14.1.2 Safari/605.1.15",xpyriment,legacy,legacy,0,uniform,0,0,0,0,24,24,24,0,0,25,25,25,25,25,0,25,0,,,,,,0,,07-02-22,07-02-22,19:26:10,Mon Mar 07 2022 19:26:10 GMT+0100 (CET),The main experiment item,yes,0,0,C:/Users/rrics/Documents/!!ResearchBMECOGSCI/gnet,0,0,0,prototype2.png,no,mono,no,18,no,black,no,no,768,1186,3.5.6,legacy,xpyriment,osweb,1.3.13,0,space,space,space,,37791,30030,37791,,2,legacy,900,1440,24,900,24,78,0,1440,1646677461391,1024,2,48000,-16,experiment,p9sarr1.png,0,even,MacIntel,124,142544,139526,124,124,350071,351578,345095,144081,345094,124,,,,,,visual_patterns,0,0,0,yes,1366
undefined,undefined,undefined,undefined,white,no,Mozilla,Netscape,"5.0 (Macintosh; Intel Mac OS X 10_15_7) AppleWebKit/605.1.15 (KHTML, like Gecko) Version/14.1.2 Safari/605.1.15",xpyriment,legacy,legacy,0,uniform,0,0,0,0,24,24,24,0,0,26,26,26,26,26,0,26,0,,,,,,0,,07-02-22,07-02-22,19:26:10,Mon Mar 07 2022 19:26:10 GMT+0100 (CET),The main experiment item,yes,0,0,C:/Users/rrics/Documents/!!ResearchBMECOGSCI/gnet,0,0,0,prototype2.png,no,mono,no,18,no,black,no,no,768,1186,3.5.6,legacy,xpyriment,osweb,1.3.13,0,space,space,space,,37791,30030,37791,,2,legacy,900,1440,24,900,24,78,0,1440,1646677461391,1024,2,48000,-16,experiment,prototype1.png,0,even,MacIntel,124,142544,139526,124,124,356593,358107,351618,144081,351618,124,,,,,,visual_patterns,0,0,0,yes,1366
undefined,undefined,undefined,undefined,white,no,Mozilla,Netscape,"5.0 (Macintosh; Intel Mac OS X 10_15_7) AppleWebKit/605.1.15 (KHTML, like Gecko) Version/14.1.2 Safari/605.1.15",xpyriment,legacy,legacy,0,uniform,0,0,0,0,24,24,24,0,0,27,27,27,27,27,0,27,0,,,,,,0,,07-02-22,07-02-22,19:26:10,Mon Mar 07 2022 19:26:10 GMT+0100 (CET),The main experiment item,yes,0,0,C:/Users/rrics/Documents/!!ResearchBMECOGSCI/gnet,0,0,0,prototype2.png,no,mono,no,18,no,black,no,no,768,1186,3.5.6,legacy,xpyriment,osweb,1.3.13,0,space,space,space,,37791,30030,37791,,2,legacy,900,1440,24,900,24,78,0,1440,1646677461391,1024,2,48000,-16,experiment,p4sarrcol1.png,0,even,MacIntel,124,142544,139526,124,124,363124,364635,358141,144081,358141,124,,,,,,visual_patterns,0,0,0,yes,1366
undefined,undefined,undefined,undefined,white,no,Mozilla,Netscape,"5.0 (Macintosh; Intel Mac OS X 10_15_7) AppleWebKit/605.1.15 (KHTML, like Gecko) Version/14.1.2 Safari/605.1.15",xpyriment,legacy,legacy,0,uniform,0,0,0,0,24,24,24,0,0,28,28,28,28,28,0,28,0,,,,,,0,,07-02-22,07-02-22,19:26:10,Mon Mar 07 2022 19:26:10 GMT+0100 (CET),The main experiment item,yes,0,0,C:/Users/rrics/Documents/!!ResearchBMECOGSCI/gnet,0,0,0,prototype2.png,no,mono,no,18,no,black,no,no,768,1186,3.5.6,legacy,xpyriment,osweb,1.3.13,0,space,space,space,,37791,30030,37791,,2,legacy,900,1440,24,900,24,78,0,1440,1646677461391,1024,2,48000,-16,experiment,prototype4.png,0,even,MacIntel,124,142544,139526,124,124,369653,371164,364666,144081,364666,124,,,,,,visual_patterns,0,0,0,yes,1366
undefined,undefined,undefined,undefined,white,no,Mozilla,Netscape,"5.0 (Macintosh; Intel Mac OS X 10_15_7) AppleWebKit/605.1.15 (KHTML, like Gecko) Version/14.1.2 Safari/605.1.15",xpyriment,legacy,legacy,0,uniform,0,0,0,0,24,24,24,0,0,29,29,29,29,29,0,29,0,,,,,,0,,07-02-22,07-02-22,19:26:10,Mon Mar 07 2022 19:26:10 GMT+0100 (CET),The main experiment item,yes,0,0,C:/Users/rrics/Documents/!!ResearchBMECOGSCI/gnet,0,0,0,prototype2.png,no,mono,no,18,no,black,no,no,768,1186,3.5.6,legacy,xpyriment,osweb,1.3.13,0,space,space,space,,37791,30030,37791,,2,legacy,900,1440,24,900,24,78,0,1440,1646677461391,1024,2,48000,-16,experiment,prototype5.png,0,even,MacIntel,124,142544,139526,124,124,376181,377693,371194,144081,371194,124,,,,,,visual_patterns,0,0,0,yes,1366
undefined,undefined,undefined,undefined,white,no,Mozilla,Netscape,"5.0 (Macintosh; Intel Mac OS X 10_15_7) AppleWebKit/605.1.15 (KHTML, like Gecko) Version/14.1.2 Safari/605.1.15",xpyriment,legacy,legacy,0,uniform,0,0,0,0,24,24,24,0,0,30,30,30,30,30,0,30,0,,,,,,0,,07-02-22,07-02-22,19:26:10,Mon Mar 07 2022 19:26:10 GMT+0100 (CET),The main experiment item,yes,0,0,C:/Users/rrics/Documents/!!ResearchBMECOGSCI/gnet,0,0,0,prototype2.png,no,mono,no,18,no,black,no,no,768,1186,3.5.6,legacy,xpyriment,osweb,1.3.13,0,space,space,space,,37791,30030,37791,,2,legacy,900,1440,24,900,24,78,0,1440,1646677461391,1024,2,48000,-16,experiment,p5sarrcol2.png,0,even,MacIntel,124,142544,139526,124,124,382712,384228,377729,144081,377728,124,,,,,,visual_patterns,0,0,0,yes,1366
undefined,undefined,undefined,undefined,white,no,Mozilla,Netscape,"5.0 (Macintosh; Intel Mac OS X 10_15_7) AppleWebKit/605.1.15 (KHTML, like Gecko) Version/14.1.2 Safari/605.1.15",xpyriment,legacy,legacy,0,uniform,0,0,0,0,24,24,24,0,0,31,31,31,31,31,0,31,0,,,,,,0,,07-02-22,07-02-22,19:26:10,Mon Mar 07 2022 19:26:10 GMT+0100 (CET),The main experiment item,yes,0,0,C:/Users/rrics/Documents/!!ResearchBMECOGSCI/gnet,0,0,0,prototype2.png,no,mono,no,18,no,black,no,no,768,1186,3.5.6,legacy,xpyriment,osweb,1.3.13,0,space,space,space,,37791,30030,37791,,2,legacy,900,1440,24,900,24,78,0,1440,1646677461391,1024,2,48000,-16,experiment,p2sarrsha2.png,0,even,MacIntel,124,142544,139526,124,124,389242,390743,384264,144081,384264,124,,,,,,visual_patterns,0,0,0,yes,1366
undefined,undefined,undefined,undefined,white,no,Mozilla,Netscape,"5.0 (Macintosh; Intel Mac OS X 10_15_7) AppleWebKit/605.1.15 (KHTML, like Gecko) Version/14.1.2 Safari/605.1.15",xpyriment,legacy,legacy,0,uniform,0,0,0,0,24,24,24,0,0,32,32,32,32,32,0,32,0,,,,,,0,,07-02-22,07-02-22,19:26:10,Mon Mar 07 2022 19:26:10 GMT+0100 (CET),The main experiment item,yes,0,0,C:/Users/rrics/Documents/!!ResearchBMECOGSCI/gnet,0,0,0,prototype2.png,no,mono,no,18,no,black,no,no,768,1186,3.5.6,legacy,xpyriment,osweb,1.3.13,0,space,space,space,,37791,30030,37791,,2,legacy,900,1440,24,900,24,78,0,1440,1646677461391,1024,2,48000,-16,experiment,p5sarr1.png,0,even,MacIntel,124,142544,139526,124,124,395760,397262,390778,144081,390778,124,,,,,,visual_patterns,0,0,0,yes,1366
undefined,undefined,undefined,undefined,white,no,Mozilla,Netscape,"5.0 (Macintosh; Intel Mac OS X 10_15_7) AppleWebKit/605.1.15 (KHTML, like Gecko) Version/14.1.2 Safari/605.1.15",xpyriment,legacy,legacy,0,uniform,0,0,0,0,24,24,24,0,0,33,33,33,33,33,0,33,0,,,,,,0,,07-02-22,07-02-22,19:26:10,Mon Mar 07 2022 19:26:10 GMT+0100 (CET),The main experiment item,yes,0,0,C:/Users/rrics/Documents/!!ResearchBMECOGSCI/gnet,0,0,0,prototype2.png,no,mono,no,18,no,black,no,no,768,1186,3.5.6,legacy,xpyriment,osweb,1.3.13,0,space,space,space,,37791,30030,37791,,2,legacy,900,1440,24,900,24,78,0,1440,1646677461391,1024,2,48000,-16,experiment,p3sarrshacol1.png,0,even,MacIntel,124,142544,139526,124,124,402280,403794,397299,144081,397299,124,,,,,,visual_patterns,0,0,0,yes,1366
undefined,undefined,undefined,undefined,white,no,Mozilla,Netscape,"5.0 (Macintosh; Intel Mac OS X 10_15_7) AppleWebKit/605.1.15 (KHTML, like Gecko) Version/14.1.2 Safari/605.1.15",xpyriment,legacy,legacy,0,uniform,0,0,0,0,24,24,24,0,0,34,34,34,34,34,0,34,0,,,,,,0,,07-02-22,07-02-22,19:26:10,Mon Mar 07 2022 19:26:10 GMT+0100 (CET),The main experiment item,yes,0,0,C:/Users/rrics/Documents/!!ResearchBMECOGSCI/gnet,0,0,0,prototype2.png,no,mono,no,18,no,black,no,no,768,1186,3.5.6,legacy,xpyriment,osweb,1.3.13,0,space,space,space,,37791,30030,37791,,2,legacy,900,1440,24,900,24,78,0,1440,1646677461391,1024,2,48000,-16,experiment,prototype1.png,0,even,MacIntel,124,142544,139526,124,124,408809,410320,403825,144081,403825,124,,,,,,visual_patterns,0,0,0,yes,1366
undefined,undefined,undefined,undefined,white,no,Mozilla,Netscape,"5.0 (Macintosh; Intel Mac OS X 10_15_7) AppleWebKit/605.1.15 (KHTML, like Gecko) Version/14.1.2 Safari/605.1.15",xpyriment,legacy,legacy,0,uniform,0,0,0,0,24,24,24,0,0,35,35,35,35,35,0,35,0,,,,,,0,,07-02-22,07-02-22,19:26:10,Mon Mar 07 2022 19:26:10 GMT+0100 (CET),The main experiment item,yes,0,0,C:/Users/rrics/Documents/!!ResearchBMECOGSCI/gnet,0,0,0,prototype2.png,no,mono,no,18,no,black,no,no,768,1186,3.5.6,legacy,xpyriment,osweb,1.3.13,0,space,space,space,,37791,30030,37791,,2,legacy,900,1440,24,900,24,78,0,1440,1646677461391,1024,2,48000,-16,experiment,p4sarrshacol1.png,0,even,MacIntel,124,142544,139526,124,124,415333,416835,410353,144081,410353,124,,,,,,visual_patterns,0,0,0,yes,1366
undefined,undefined,undefined,undefined,white,no,Mozilla,Netscape,"5.0 (Macintosh; Intel Mac OS X 10_15_7) AppleWebKit/605.1.15 (KHTML, like Gecko) Version/14.1.2 Safari/605.1.15",xpyriment,legacy,legacy,0,uniform,0,0,0,0,24,24,24,0,0,36,36,36,36,36,0,36,0,,,,,,0,,07-02-22,07-02-22,19:26:10,Mon Mar 07 2022 19:26:10 GMT+0100 (CET),The main experiment item,yes,0,0,C:/Users/rrics/Documents/!!ResearchBMECOGSCI/gnet,0,0,0,prototype2.png,no,mono,no,18,no,black,no,no,768,1186,3.5.6,legacy,xpyriment,osweb,1.3.13,0,space,space,space,,37791,30030,37791,,2,legacy,900,1440,24,900,24,78,0,1440,1646677461391,1024,2,48000,-16,experiment,prototype3.png,0,even,MacIntel,124,142544,139526,124,124,421858,423370,416872,144081,416872,124,,,,,,visual_patterns,0,0,0,yes,1366
undefined,undefined,undefined,undefined,white,no,Mozilla,Netscape,"5.0 (Macintosh; Intel Mac OS X 10_15_7) AppleWebKit/605.1.15 (KHTML, like Gecko) Version/14.1.2 Safari/605.1.15",xpyriment,legacy,legacy,0,uniform,0,0,0,0,24,24,24,0,0,37,37,37,37,37,0,37,0,,,,,,0,,07-02-22,07-02-22,19:26:10,Mon Mar 07 2022 19:26:10 GMT+0100 (CET),The main experiment item,yes,0,0,C:/Users/rrics/Documents/!!ResearchBMECOGSCI/gnet,0,0,0,prototype2.png,no,mono,no,18,no,black,no,no,768,1186,3.5.6,legacy,xpyriment,osweb,1.3.13,0,space,space,space,,37791,30030,37791,,2,legacy,900,1440,24,900,24,78,0,1440,1646677461391,1024,2,48000,-16,experiment,prototype3.png,0,even,MacIntel,124,142544,139526,124,124,428387,429903,423403,144081,423403,124,,,,,,visual_patterns,0,0,0,yes,1366
undefined,undefined,undefined,undefined,white,no,Mozilla,Netscape,"5.0 (Macintosh; Intel Mac OS X 10_15_7) AppleWebKit/605.1.15 (KHTML, like Gecko) Version/14.1.2 Safari/605.1.15",xpyriment,legacy,legacy,0,uniform,0,0,0,0,24,24,24,0,0,38,38,38,38,38,0,38,0,,,,,,0,,07-02-22,07-02-22,19:26:10,Mon Mar 07 2022 19:26:10 GMT+0100 (CET),The main experiment item,yes,0,0,C:/Users/rrics/Documents/!!ResearchBMECOGSCI/gnet,0,0,0,prototype2.png,no,mono,no,18,no,black,no,no,768,1186,3.5.6,legacy,xpyriment,osweb,1.3.13,0,space,space,space,,37791,30030,37791,,2,legacy,900,1440,24,900,24,78,0,1440,1646677461391,1024,2,48000,-16,experiment,p7sarr1.png,0,even,MacIntel,124,142544,139526,124,124,434919,436423,429936,144081,429936,124,,,,,,visual_patterns,0,0,0,yes,1366
undefined,undefined,undefined,undefined,white,no,Mozilla,Netscape,"5.0 (Macintosh; Intel Mac OS X 10_15_7) AppleWebKit/605.1.15 (KHTML, like Gecko) Version/14.1.2 Safari/605.1.15",xpyriment,legacy,legacy,0,uniform,0,0,0,0,24,24,24,0,0,39,39,39,39,39,0,39,0,,,,,,0,,07-02-22,07-02-22,19:26:10,Mon Mar 07 2022 19:26:10 GMT+0100 (CET),The main experiment item,yes,0,0,C:/Users/rrics/Documents/!!ResearchBMECOGSCI/gnet,0,0,0,prototype2.png,no,mono,no,18,no,black,no,no,768,1186,3.5.6,legacy,xpyriment,osweb,1.3.13,0,space,space,space,,37791,30030,37791,,2,legacy,900,1440,24,900,24,78,0,1440,1646677461391,1024,2,48000,-16,experiment,p1sarrsha1.png,0,even,MacIntel,124,142544,139526,124,124,441435,442939,436449,144081,436449,124,,,,,,visual_patterns,0,0,0,yes,1366
undefined,undefined,undefined,undefined,white,no,Mozilla,Netscape,"5.0 (Macintosh; Intel Mac OS X 10_15_7) AppleWebKit/605.1.15 (KHTML, like Gecko) Version/14.1.2 Safari/605.1.15",xpyriment,legacy,legacy,0,uniform,0,0,0,0,24,24,24,0,0,40,40,40,40,40,0,40,0,,,,,,0,,07-02-22,07-02-22,19:26:10,Mon Mar 07 2022 19:26:10 GMT+0100 (CET),The main experiment item,yes,0,0,C:/Users/rrics/Documents/!!ResearchBMECOGSCI/gnet,0,0,0,prototype2.png,no,mono,no,18,no,black,no,no,768,1186,3.5.6,legacy,xpyriment,osweb,1.3.13,0,space,space,space,,37791,30030,37791,,2,legacy,900,1440,24,900,24,78,0,1440,1646677461391,1024,2,48000,-16,experiment,prototype5.png,0,even,MacIntel,124,142544,139526,124,124,447955,449468,442969,144081,442969,124,,,,,,visual_patterns,0,0,0,yes,1366
undefined,undefined,undefined,undefined,white,no,Mozilla,Netscape,"5.0 (Macintosh; Intel Mac OS X 10_15_7) AppleWebKit/605.1.15 (KHTML, like Gecko) Version/14.1.2 Safari/605.1.15",xpyriment,legacy,legacy,0,uniform,0,0,0,0,24,24,24,0,0,41,41,41,41,41,0,41,0,,,,,,0,,07-02-22,07-02-22,19:26:10,Mon Mar 07 2022 19:26:10 GMT+0100 (CET),The main experiment item,yes,0,0,C:/Users/rrics/Documents/!!ResearchBMECOGSCI/gnet,0,0,0,prototype2.png,no,mono,no,18,no,black,no,no,768,1186,3.5.6,legacy,xpyriment,osweb,1.3.13,0,space,space,space,,37791,30030,37791,,2,legacy,900,1440,24,900,24,78,0,1440,1646677461391,1024,2,48000,-16,experiment,p3sarrshacol2.png,0,even,MacIntel,124,142544,139526,124,124,454485,455998,449504,144081,449504,124,,,,,,visual_patterns,0,0,0,yes,1366
undefined,undefined,undefined,undefined,white,no,Mozilla,Netscape,"5.0 (Macintosh; Intel Mac OS X 10_15_7) AppleWebKit/605.1.15 (KHTML, like Gecko) Version/14.1.2 Safari/605.1.15",xpyriment,legacy,legacy,0,uniform,0,0,0,0,24,24,24,0,0,42,42,42,42,42,0,42,0,,,,,,0,,07-02-22,07-02-22,19:26:10,Mon Mar 07 2022 19:26:10 GMT+0100 (CET),The main experiment item,yes,0,0,C:/Users/rrics/Documents/!!ResearchBMECOGSCI/gnet,0,0,0,prototype2.png,no,mono,no,18,no,black,no,no,768,1186,3.5.6,legacy,xpyriment,osweb,1.3.13,0,space,space,space,,37791,30030,37791,,2,legacy,900,1440,24,900,24,78,0,1440,1646677461391,1024,2,48000,-16,experiment,p3sarrcol2.png,0,even,MacIntel,124,142544,139526,124,124,461012,462515,456033,144081,456033,124,,,,,,visual_patterns,0,0,0,yes,1366
undefined,undefined,undefined,undefined,white,no,Mozilla,Netscape,"5.0 (Macintosh; Intel Mac OS X 10_15_7) AppleWebKit/605.1.15 (KHTML, like Gecko) Version/14.1.2 Safari/605.1.15",xpyriment,legacy,legacy,0,uniform,0,0,0,0,24,24,24,0,0,43,43,43,43,43,0,43,0,,,,,,0,,07-02-22,07-02-22,19:26:10,Mon Mar 07 2022 19:26:10 GMT+0100 (CET),The main experiment item,yes,0,0,C:/Users/rrics/Documents/!!ResearchBMECOGSCI/gnet,0,0,0,prototype2.png,no,mono,no,18,no,black,no,no,768,1186,3.5.6,legacy,xpyriment,osweb,1.3.13,0,space,space,space,,37791,30030,37791,,2,legacy,900,1440,24,900,24,78,0,1440,1646677461391,1024,2,48000,-16,experiment,p3sarr2.png,0,even,MacIntel,124,142544,139526,124,124,467532,469035,462553,144081,462553,124,,,,,,visual_patterns,0,0,0,yes,1366
undefined,undefined,undefined,undefined,white,no,Mozilla,Netscape,"5.0 (Macintosh; Intel Mac OS X 10_15_7) AppleWebKit/605.1.15 (KHTML, like Gecko) Version/14.1.2 Safari/605.1.15",xpyriment,legacy,legacy,0,uniform,0,0,0,0,24,24,24,0,0,44,44,44,44,44,0,44,0,,,,,,0,,07-02-22,07-02-22,19:26:10,Mon Mar 07 2022 19:26:10 GMT+0100 (CET),The main experiment item,yes,0,0,C:/Users/rrics/Documents/!!ResearchBMECOGSCI/gnet,0,0,0,prototype2.png,no,mono,no,18,no,black,no,no,768,1186,3.5.6,legacy,xpyriment,osweb,1.3.13,0,space,space,space,,37791,30030,37791,,2,legacy,900,1440,24,900,24,78,0,1440,1646677461391,1024,2,48000,-16,experiment,p2sarrsha1.png,0,even,MacIntel,124,142544,139526,124,124,474053,475570,469070,144081,469070,124,,,,,,visual_patterns,0,0,0,yes,1366
undefined,undefined,undefined,undefined,white,no,Mozilla,Netscape,"5.0 (Macintosh; Intel Mac OS X 10_15_7) AppleWebKit/605.1.15 (KHTML, like Gecko) Version/14.1.2 Safari/605.1.15",xpyriment,legacy,legacy,0,uniform,0,0,0,0,24,24,24,0,0,45,45,45,45,45,0,45,0,,,,,,0,,07-02-22,07-02-22,19:26:10,Mon Mar 07 2022 19:26:10 GMT+0100 (CET),The main experiment item,yes,0,0,C:/Users/rrics/Documents/!!ResearchBMECOGSCI/gnet,0,0,0,prototype2.png,no,mono,no,18,no,black,no,no,768,1186,3.5.6,legacy,xpyriment,osweb,1.3.13,0,space,space,space,,37791,30030,37791,,2,legacy,900,1440,24,900,24,78,0,1440,1646677461391,1024,2,48000,-16,experiment,p4sarrsha1.png,0,even,MacIntel,124,142544,139526,124,124,480586,482089,475605,144081,475605,124,,,,,,visual_patterns,0,0,0,yes,1366
undefined,undefined,undefined,undefined,white,no,Mozilla,Netscape,"5.0 (Macintosh; Intel Mac OS X 10_15_7) AppleWebKit/605.1.15 (KHTML, like Gecko) Version/14.1.2 Safari/605.1.15",xpyriment,legacy,legacy,0,uniform,0,0,0,0,24,24,24,0,0,46,46,46,46,46,0,46,0,,,,,,0,,07-02-22,07-02-22,19:26:10,Mon Mar 07 2022 19:26:10 GMT+0100 (CET),The main experiment item,yes,0,0,C:/Users/rrics/Documents/!!ResearchBMECOGSCI/gnet,0,0,0,prototype2.png,no,mono,no,18,no,black,no,no,768,1186,3.5.6,legacy,xpyriment,osweb,1.3.13,0,space,space,space,,37791,30030,37791,,2,legacy,900,1440,24,900,24,78,0,1440,1646677461391,1024,2,48000,-16,experiment,p1sarrcol1.png,0,even,MacIntel,124,142544,139526,124,124,487100,488606,482124,144081,482123,124,,,,,,visual_patterns,0,0,0,yes,1366
undefined,undefined,undefined,undefined,white,no,Mozilla,Netscape,"5.0 (Macintosh; Intel Mac OS X 10_15_7) AppleWebKit/605.1.15 (KHTML, like Gecko) Version/14.1.2 Safari/605.1.15",xpyriment,legacy,legacy,0,uniform,0,0,0,0,24,24,24,0,0,47,47,47,47,47,0,47,0,,,,,,0,,07-02-22,07-02-22,19:26:10,Mon Mar 07 2022 19:26:10 GMT+0100 (CET),The main experiment item,yes,0,0,C:/Users/rrics/Documents/!!ResearchBMECOGSCI/gnet,0,0,0,prototype2.png,no,mono,no,18,no,black,no,no,768,1186,3.5.6,legacy,xpyriment,osweb,1.3.13,0,space,space,space,,37791,30030,37791,,2,legacy,900,1440,24,900,24,78,0,1440,1646677461391,1024,2,48000,-16,experiment,p1sarrsha2.png,0,even,MacIntel,124,142544,139526,124,124,493622,495137,488641,144081,488641,124,,,,,,visual_patterns,0,0,0,yes,1366
undefined,undefined,undefined,undefined,white,no,Mozilla,Netscape,"5.0 (Macintosh; Intel Mac OS X 10_15_7) AppleWebKit/605.1.15 (KHTML, like Gecko) Version/14.1.2 Safari/605.1.15",xpyriment,legacy,legacy,0,uniform,0,0,0,0,24,24,24,0,0,48,48,48,48,48,0,48,0,,,,,,0,,07-02-22,07-02-22,19:26:10,Mon Mar 07 2022 19:26:10 GMT+0100 (CET),The main experiment item,yes,0,0,C:/Users/rrics/Documents/!!ResearchBMECOGSCI/gnet,0,0,0,prototype2.png,no,mono,no,18,no,black,no,no,768,1186,3.5.6,legacy,xpyriment,osweb,1.3.13,0,space,space,space,,37791,30030,37791,,2,legacy,900,1440,24,900,24,78,0,1440,1646677461391,1024,2,48000,-16,experiment,p7sarr2.png,0,even,MacIntel,124,142544,139526,124,124,500154,501670,495173,144081,495173,124,,,,,,visual_patterns,0,0,0,yes,1366
undefined,undefined,undefined,undefined,white,no,Mozilla,Netscape,"5.0 (Macintosh; Intel Mac OS X 10_15_7) AppleWebKit/605.1.15 (KHTML, like Gecko) Version/14.1.2 Safari/605.1.15",xpyriment,legacy,legacy,0,uniform,0,0,0,0,24,24,24,0,0,49,49,49,49,49,0,49,0,,,,,,0,,07-02-22,07-02-22,19:26:10,Mon Mar 07 2022 19:26:10 GMT+0100 (CET),The main experiment item,yes,0,0,C:/Users/rrics/Documents/!!ResearchBMECOGSCI/gnet,0,0,0,prototype2.png,no,mono,no,18,no,black,no,no,768,1186,3.5.6,legacy,xpyriment,osweb,1.3.13,0,space,space,space,,37791,30030,37791,,2,legacy,900,1440,24,900,24,78,0,1440,1646677461391,1024,2,48000,-16,experiment,p4sarr1.png,0,even,MacIntel,124,142544,139526,124,124,506685,508202,501703,144081,501703,124,,,,,,visual_patterns,0,0,0,yes,1366
undefined,undefined,undefined,undefined,white,no,Mozilla,Netscape,"5.0 (Macintosh; Intel Mac OS X 10_15_7) AppleWebKit/605.1.15 (KHTML, like Gecko) Version/14.1.2 Safari/605.1.15",xpyriment,legacy,legacy,0,uniform,0,0,0,0,24,24,24,0,0,50,50,50,50,50,0,50,0,,,,,,0,,07-02-22,07-02-22,19:26:10,Mon Mar 07 2022 19:26:10 GMT+0100 (CET),The main experiment item,yes,0,0,C:/Users/rrics/Documents/!!ResearchBMECOGSCI/gnet,0,0,0,prototype2.png,no,mono,no,18,no,black,no,no,768,1186,3.5.6,legacy,xpyriment,osweb,1.3.13,0,space,space,space,,37791,30030,37791,,2,legacy,900,1440,24,900,24,78,0,1440,1646677461391,1024,2,48000,-16,experiment,p10sarr1.png,0,even,MacIntel,124,142544,139526,124,124,513217,514733,508237,144081,508237,124,,,,,,visual_patterns,0,0,0,yes,1366
undefined,undefined,undefined,undefined,white,no,Mozilla,Netscape,"5.0 (Macintosh; Intel Mac OS X 10_15_7) AppleWebKit/605.1.15 (KHTML, like Gecko) Version/14.1.2 Safari/605.1.15",xpyriment,legacy,legacy,0,uniform,0,0,0,0,24,24,24,0,0,51,51,51,51,51,0,51,0,,,,,,0,,07-02-22,07-02-22,19:26:10,Mon Mar 07 2022 19:26:10 GMT+0100 (CET),The main experiment item,yes,0,0,C:/Users/rrics/Documents/!!ResearchBMECOGSCI/gnet,0,0,0,prototype2.png,no,mono,no,18,no,black,no,no,768,1186,3.5.6,legacy,xpyriment,osweb,1.3.13,0,space,space,space,,37791,30030,37791,,2,legacy,900,1440,24,900,24,78,0,1440,1646677461391,1024,2,48000,-16,experiment,prototype3.png,0,even,MacIntel,124,142544,139526,124,124,519759,521266,514771,144081,514771,124,,,,,,visual_patterns,0,0,0,yes,1366
undefined,undefined,undefined,undefined,white,no,Mozilla,Netscape,"5.0 (Macintosh; Intel Mac OS X 10_15_7) AppleWebKit/605.1.15 (KHTML, like Gecko) Version/14.1.2 Safari/605.1.15",xpyriment,legacy,legacy,0,uniform,0,0,0,0,24,24,24,0,0,52,52,52,52,52,0,52,0,,,,,,0,,07-02-22,07-02-22,19:26:10,Mon Mar 07 2022 19:26:10 GMT+0100 (CET),The main experiment item,yes,0,0,C:/Users/rrics/Documents/!!ResearchBMECOGSCI/gnet,0,0,0,prototype2.png,no,mono,no,18,no,black,no,no,768,1186,3.5.6,legacy,xpyriment,osweb,1.3.13,0,space,space,space,,37791,30030,37791,,2,legacy,900,1440,24,900,24,78,0,1440,1646677461391,1024,2,48000,-16,experiment,p1sarr1.png,0,even,MacIntel,124,142544,139526,124,124,526281,527783,521300,144081,521300,124,,,,,,visual_patterns,0,0,0,yes,1366
undefined,undefined,undefined,undefined,white,no,Mozilla,Netscape,"5.0 (Macintosh; Intel Mac OS X 10_15_7) AppleWebKit/605.1.15 (KHTML, like Gecko) Version/14.1.2 Safari/605.1.15",xpyriment,legacy,legacy,0,uniform,0,0,0,0,24,24,24,0,0,53,53,53,53,53,0,53,0,,,,,,0,,07-02-22,07-02-22,19:26:10,Mon Mar 07 2022 19:26:10 GMT+0100 (CET),The main experiment item,yes,0,0,C:/Users/rrics/Documents/!!ResearchBMECOGSCI/gnet,0,0,0,prototype2.png,no,mono,no,18,no,black,no,no,768,1186,3.5.6,legacy,xpyriment,osweb,1.3.13,0,space,space,space,,37791,30030,37791,,2,legacy,900,1440,24,900,24,78,0,1440,1646677461391,1024,2,48000,-16,experiment,p1sarrcol2.png,0,even,MacIntel,124,142544,139526,124,124,532800,534317,527818,144081,527818,124,,,,,,visual_patterns,0,0,0,yes,1366
undefined,undefined,undefined,undefined,white,no,Mozilla,Netscape,"5.0 (Macintosh; Intel Mac OS X 10_15_7) AppleWebKit/605.1.15 (KHTML, like Gecko) Version/14.1.2 Safari/605.1.15",xpyriment,legacy,legacy,0,uniform,0,0,0,0,24,24,24,0,0,54,54,54,54,54,0,54,0,,,,,,0,,07-02-22,07-02-22,19:26:10,Mon Mar 07 2022 19:26:10 GMT+0100 (CET),The main experiment item,yes,0,0,C:/Users/rrics/Documents/!!ResearchBMECOGSCI/gnet,0,0,0,prototype2.png,no,mono,no,18,no,black,no,no,768,1186,3.5.6,legacy,xpyriment,osweb,1.3.13,0,space,space,space,,37791,30030,37791,,2,legacy,900,1440,24,900,24,78,0,1440,1646677461391,1024,2,48000,-16,experiment,p2sarrcol2.png,0,even,MacIntel,124,142544,139526,124,124,539332,540835,534353,144081,534353,124,,,,,,visual_patterns,0,0,0,yes,1366
undefined,undefined,undefined,undefined,white,no,Mozilla,Netscape,"5.0 (Macintosh; Intel Mac OS X 10_15_7) AppleWebKit/605.1.15 (KHTML, like Gecko) Version/14.1.2 Safari/605.1.15",xpyriment,legacy,legacy,0,uniform,0,0,0,0,24,24,24,0,0,55,55,55,55,55,0,55,0,,,,,,0,,07-02-22,07-02-22,19:26:10,Mon Mar 07 2022 19:26:10 GMT+0100 (CET),The main experiment item,yes,0,0,C:/Users/rrics/Documents/!!ResearchBMECOGSCI/gnet,0,0,0,prototype2.png,no,mono,no,18,no,black,no,no,768,1186,3.5.6,legacy,xpyriment,osweb,1.3.13,0,space,space,space,,37791,30030,37791,,2,legacy,900,1440,24,900,24,78,0,1440,1646677461391,1024,2,48000,-16,experiment,prototype4.png,0,even,MacIntel,124,142544,139526,124,124,545851,547366,540867,144081,540867,124,,,,,,visual_patterns,0,0,0,yes,1366
undefined,undefined,undefined,undefined,white,no,Mozilla,Netscape,"5.0 (Macintosh; Intel Mac OS X 10_15_7) AppleWebKit/605.1.15 (KHTML, like Gecko) Version/14.1.2 Safari/605.1.15",xpyriment,legacy,legacy,0,uniform,0,0,0,0,24,24,24,0,0,56,56,56,56,56,0,56,0,,,,,,0,,07-02-22,07-02-22,19:26:10,Mon Mar 07 2022 19:26:10 GMT+0100 (CET),The main experiment item,yes,0,0,C:/Users/rrics/Documents/!!ResearchBMECOGSCI/gnet,0,0,0,prototype2.png,no,mono,no,18,no,black,no,no,768,1186,3.5.6,legacy,xpyriment,osweb,1.3.13,0,space,space,space,,37791,30030,37791,,2,legacy,900,1440,24,900,24,78,0,1440,1646677461391,1024,2,48000,-16,experiment,p2sarrshacol1.png,0,even,MacIntel,124,142544,139526,124,124,552380,553886,547403,144081,547403,124,,,,,,visual_patterns,0,0,0,yes,1366
undefined,undefined,undefined,undefined,white,no,Mozilla,Netscape,"5.0 (Macintosh; Intel Mac OS X 10_15_7) AppleWebKit/605.1.15 (KHTML, like Gecko) Version/14.1.2 Safari/605.1.15",xpyriment,legacy,legacy,0,uniform,0,0,0,0,24,24,24,0,0,57,57,57,57,57,0,57,0,,,,,,0,,07-02-22,07-02-22,19:26:10,Mon Mar 07 2022 19:26:10 GMT+0100 (CET),The main experiment item,yes,0,0,C:/Users/rrics/Documents/!!ResearchBMECOGSCI/gnet,0,0,0,prototype2.png,no,mono,no,18,no,black,no,no,768,1186,3.5.6,legacy,xpyriment,osweb,1.3.13,0,space,space,space,,37791,30030,37791,,2,legacy,900,1440,24,900,24,78,0,1440,1646677461391,1024,2,48000,-16,experiment,prototype5.png,0,even,MacIntel,124,142544,139526,124,124,558904,560420,553920,144081,553920,124,,,,,,visual_patterns,0,0,0,yes,1366
undefined,undefined,undefined,undefined,white,no,Mozilla,Netscape,"5.0 (Macintosh; Intel Mac OS X 10_15_7) AppleWebKit/605.1.15 (KHTML, like Gecko) Version/14.1.2 Safari/605.1.15",xpyriment,legacy,legacy,0,uniform,0,0,0,0,24,24,24,0,0,58,58,58,58,58,0,58,0,,,,,,0,,07-02-22,07-02-22,19:26:10,Mon Mar 07 2022 19:26:10 GMT+0100 (CET),The main experiment item,yes,0,0,C:/Users/rrics/Documents/!!ResearchBMECOGSCI/gnet,0,0,0,prototype2.png,no,mono,no,18,no,black,no,no,768,1186,3.5.6,legacy,xpyriment,osweb,1.3.13,0,space,space,space,,37791,30030,37791,,2,legacy,900,1440,24,900,24,78,0,1440,1646677461391,1024,2,48000,-16,experiment,prototype2.png,0,even,MacIntel,124,142544,139526,124,124,565433,566949,560453,144081,560453,124,,,,,,visual_patterns,0,0,0,yes,1366
undefined,undefined,undefined,undefined,white,no,Mozilla,Netscape,"5.0 (Macintosh; Intel Mac OS X 10_15_7) AppleWebKit/605.1.15 (KHTML, like Gecko) Version/14.1.2 Safari/605.1.15",xpyriment,legacy,legacy,0,uniform,0,0,0,0,24,24,24,0,0,59,59,59,59,59,0,59,0,,,,,,0,,07-02-22,07-02-22,19:26:10,Mon Mar 07 2022 19:26:10 GMT+0100 (CET),The main experiment item,yes,0,0,C:/Users/rrics/Documents/!!ResearchBMECOGSCI/gnet,0,0,0,prototype2.png,no,mono,no,18,no,black,no,no,768,1186,3.5.6,legacy,xpyriment,osweb,1.3.13,0,space,space,space,,37791,30030,37791,,2,legacy,900,1440,24,900,24,78,0,1440,1646677461391,1024,2,48000,-16,experiment,prototype5.png,0,even,MacIntel,124,142544,139526,124,124,571964,573478,566982,144081,566982,124,,,,,,visual_patterns,0,0,0,yes,1366
undefined,undefined,undefined,undefined,white,no,Mozilla,Netscape,"5.0 (Macintosh; Intel Mac OS X 10_15_7) AppleWebKit/605.1.15 (KHTML, like Gecko) Version/14.1.2 Safari/605.1.15",xpyriment,legacy,legacy,0,uniform,0,0,0,0,24,24,24,0,0,60,60,60,60,60,0,60,0,,,,,,0,,07-02-22,07-02-22,19:26:10,Mon Mar 07 2022 19:26:10 GMT+0100 (CET),The main experiment item,yes,0,0,C:/Users/rrics/Documents/!!ResearchBMECOGSCI/gnet,0,0,0,prototype2.png,no,mono,no,18,no,black,no,no,768,1186,3.5.6,legacy,xpyriment,osweb,1.3.13,0,space,space,space,,37791,30030,37791,,2,legacy,900,1440,24,900,24,78,0,1440,1646677461391,1024,2,48000,-16,experiment,p1sarrshacol2.png,0,even,MacIntel,124,142544,139526,124,124,578493,579995,573514,144081,573514,124,,,,,,visual_patterns,0,0,0,yes,1366
undefined,undefined,undefined,undefined,white,no,Mozilla,Netscape,"5.0 (Macintosh; Intel Mac OS X 10_15_7) AppleWebKit/605.1.15 (KHTML, like Gecko) Version/14.1.2 Safari/605.1.15",xpyriment,legacy,legacy,0,uniform,0,0,0,0,24,24,24,0,0,61,61,61,61,61,0,61,0,,,,,,0,,07-02-22,07-02-22,19:26:10,Mon Mar 07 2022 19:26:10 GMT+0100 (CET),The main experiment item,yes,0,0,C:/Users/rrics/Documents/!!ResearchBMECOGSCI/gnet,0,0,0,prototype2.png,no,mono,no,18,no,black,no,no,768,1186,3.5.6,legacy,xpyriment,osweb,1.3.13,0,space,space,space,,37791,30030,37791,,2,legacy,900,1440,24,900,24,78,0,1440,1646677461391,1024,2,48000,-16,experiment,p2sarrcol1.png,0,even,MacIntel,124,142544,139526,124,124,585010,586526,580027,144081,580026,124,,,,,,visual_patterns,0,0,0,yes,1366
undefined,undefined,undefined,undefined,white,no,Mozilla,Netscape,"5.0 (Macintosh; Intel Mac OS X 10_15_7) AppleWebKit/605.1.15 (KHTML, like Gecko) Version/14.1.2 Safari/605.1.15",xpyriment,legacy,legacy,0,uniform,0,0,0,0,24,24,24,0,0,62,62,62,62,62,0,62,0,,,,,,0,,07-02-22,07-02-22,19:26:10,Mon Mar 07 2022 19:26:10 GMT+0100 (CET),The main experiment item,yes,0,0,C:/Users/rrics/Documents/!!ResearchBMECOGSCI/gnet,0,0,0,prototype2.png,no,mono,no,18,no,black,no,no,768,1186,3.5.6,legacy,xpyriment,osweb,1.3.13,0,space,space,space,,37791,30030,37791,,2,legacy,900,1440,24,900,24,78,0,1440,1646677461391,1024,2,48000,-16,experiment,p5sarr2.png,0,even,MacIntel,124,142544,139526,124,124,591538,593043,586560,144081,586560,124,,,,,,visual_patterns,0,0,0,yes,1366
undefined,undefined,undefined,undefined,white,no,Mozilla,Netscape,"5.0 (Macintosh; Intel Mac OS X 10_15_7) AppleWebKit/605.1.15 (KHTML, like Gecko) Version/14.1.2 Safari/605.1.15",xpyriment,legacy,legacy,0,uniform,0,0,0,0,24,24,24,0,0,63,63,63,63,63,0,63,0,,,,,,0,,07-02-22,07-02-22,19:26:10,Mon Mar 07 2022 19:26:10 GMT+0100 (CET),The main experiment item,yes,0,0,C:/Users/rrics/Documents/!!ResearchBMECOGSCI/gnet,0,0,0,prototype2.png,no,mono,no,18,no,black,no,no,768,1186,3.5.6,legacy,xpyriment,osweb,1.3.13,0,space,space,space,,37791,30030,37791,,2,legacy,900,1440,24,900,24,78,0,1440,1646677461391,1024,2,48000,-16,experiment,p10sarr2.png,0,even,MacIntel,124,142544,139526,124,124,598061,599577,593078,144081,593078,124,,,,,,visual_patterns,0,0,0,yes,1366
undefined,undefined,undefined,undefined,white,no,Mozilla,Netscape,"5.0 (Macintosh; Intel Mac OS X 10_15_7) AppleWebKit/605.1.15 (KHTML, like Gecko) Version/14.1.2 Safari/605.1.15",xpyriment,legacy,legacy,0,uniform,0,0,0,0,24,24,24,0,0,64,64,64,64,64,0,64,0,,,,,,0,,07-02-22,07-02-22,19:26:10,Mon Mar 07 2022 19:26:10 GMT+0100 (CET),The main experiment item,yes,0,0,C:/Users/rrics/Documents/!!ResearchBMECOGSCI/gnet,0,0,0,prototype2.png,no,mono,no,18,no,black,no,no,768,1186,3.5.6,legacy,xpyriment,osweb,1.3.13,0,space,space,space,,37791,30030,37791,,2,legacy,900,1440,24,900,24,78,0,1440,1646677461391,1024,2,48000,-16,experiment,prototype1.png,0,even,MacIntel,124,142544,139526,124,124,604592,606093,599611,144081,599611,124,,,,,,visual_patterns,0,0,0,yes,1366
undefined,undefined,undefined,undefined,white,no,Mozilla,Netscape,"5.0 (Macintosh; Intel Mac OS X 10_15_7) AppleWebKit/605.1.15 (KHTML, like Gecko) Version/14.1.2 Safari/605.1.15",xpyriment,legacy,legacy,0,uniform,0,0,0,0,24,24,24,0,0,65,65,65,65,65,0,65,0,,,,,,0,,07-02-22,07-02-22,19:26:10,Mon Mar 07 2022 19:26:10 GMT+0100 (CET),The main experiment item,yes,0,0,C:/Users/rrics/Documents/!!ResearchBMECOGSCI/gnet,0,0,0,prototype2.png,no,mono,no,18,no,black,no,no,768,1186,3.5.6,legacy,xpyriment,osweb,1.3.13,0,space,space,space,,37791,30030,37791,,2,legacy,900,1440,24,900,24,78,0,1440,1646677461391,1024,2,48000,-16,experiment,prototype4.png,0,even,MacIntel,124,142544,139526,124,124,611111,612625,606128,144081,606128,124,,,,,,visual_patterns,0,0,0,yes,1366
undefined,undefined,undefined,undefined,white,no,Mozilla,Netscape,"5.0 (Macintosh; Intel Mac OS X 10_15_7) AppleWebKit/605.1.15 (KHTML, like Gecko) Version/14.1.2 Safari/605.1.15",xpyriment,legacy,legacy,0,uniform,0,0,0,0,24,24,24,0,0,66,66,66,66,66,0,66,0,,,,,,0,,07-02-22,07-02-22,19:26:10,Mon Mar 07 2022 19:26:10 GMT+0100 (CET),The main experiment item,yes,0,0,C:/Users/rrics/Documents/!!ResearchBMECOGSCI/gnet,0,0,0,prototype2.png,no,mono,no,18,no,black,no,no,768,1186,3.5.6,legacy,xpyriment,osweb,1.3.13,0,space,space,space,,37791,30030,37791,,2,legacy,900,1440,24,900,24,78,0,1440,1646677461391,1024,2,48000,-16,experiment,p2sarrshacol2.png,0,even,MacIntel,124,142544,139526,124,124,617644,619160,612661,144081,612661,124,,,,,,visual_patterns,0,0,0,yes,1366
undefined,undefined,undefined,undefined,white,no,Mozilla,Netscape,"5.0 (Macintosh; Intel Mac OS X 10_15_7) AppleWebKit/605.1.15 (KHTML, like Gecko) Version/14.1.2 Safari/605.1.15",xpyriment,legacy,legacy,0,uniform,0,0,0,0,24,24,24,0,0,67,67,67,67,67,0,67,0,,,,,,0,,07-02-22,07-02-22,19:26:10,Mon Mar 07 2022 19:26:10 GMT+0100 (CET),The main experiment item,yes,0,0,C:/Users/rrics/Documents/!!ResearchBMECOGSCI/gnet,0,0,0,prototype2.png,no,mono,no,18,no,black,no,no,768,1186,3.5.6,legacy,xpyriment,osweb,1.3.13,0,space,space,space,,37791,30030,37791,,2,legacy,900,1440,24,900,24,78,0,1440,1646677461391,1024,2,48000,-16,experiment,p1sarr2.png,0,even,MacIntel,124,142544,139526,124,124,624174,625675,619193,144081,619193,124,,,,,,visual_patterns,0,0,0,yes,1366
undefined,undefined,undefined,undefined,white,no,Mozilla,Netscape,"5.0 (Macintosh; Intel Mac OS X 10_15_7) AppleWebKit/605.1.15 (KHTML, like Gecko) Version/14.1.2 Safari/605.1.15",xpyriment,legacy,legacy,0,uniform,0,0,0,0,24,24,24,0,0,68,68,68,68,68,0,68,0,,,,,,0,,07-02-22,07-02-22,19:26:10,Mon Mar 07 2022 19:26:10 GMT+0100 (CET),The main experiment item,yes,0,0,C:/Users/rrics/Documents/!!ResearchBMECOGSCI/gnet,0,0,0,prototype2.png,no,mono,no,18,no,black,no,no,768,1186,3.5.6,legacy,xpyriment,osweb,1.3.13,0,space,space,space,,37791,30030,37791,,2,legacy,900,1440,24,900,24,78,0,1440,1646677461391,1024,2,48000,-16,experiment,p6sarr2.png,0,even,MacIntel,124,142544,139526,124,124,630687,632192,625709,144081,625709,124,,,,,,visual_patterns,0,0,0,yes,1366
undefined,undefined,undefined,undefined,white,no,Mozilla,Netscape,"5.0 (Macintosh; Intel Mac OS X 10_15_7) AppleWebKit/605.1.15 (KHTML, like Gecko) Version/14.1.2 Safari/605.1.15",xpyriment,legacy,legacy,0,uniform,0,0,0,0,24,24,24,0,0,69,69,69,69,69,0,69,0,,,,,,0,,07-02-22,07-02-22,19:26:10,Mon Mar 07 2022 19:26:10 GMT+0100 (CET),The main experiment item,yes,0,0,C:/Users/rrics/Documents/!!ResearchBMECOGSCI/gnet,0,0,0,prototype2.png,no,mono,no,18,no,black,no,no,768,1186,3.5.6,legacy,xpyriment,osweb,1.3.13,0,space,space,space,,37791,30030,37791,,2,legacy,900,1440,24,900,24,78,0,1440,1646677461391,1024,2,48000,-16,experiment,prototype2.png,0,even,MacIntel,124,142544,139526,124,124,637205,638720,632223,144081,632223,124,,,,,,visual_patterns,0,0,0,yes,1366
undefined,undefined,undefined,undefined,white,no,Mozilla,Netscape,"5.0 (Macintosh; Intel Mac OS X 10_15_7) AppleWebKit/605.1.15 (KHTML, like Gecko) Version/14.1.2 Safari/605.1.15",xpyriment,legacy,legacy,0,uniform,0,0,0,0,24,24,24,0,0,70,70,70,70,70,0,70,0,,,,,,0,,07-02-22,07-02-22,19:26:10,Mon Mar 07 2022 19:26:10 GMT+0100 (CET),The main experiment item,yes,0,0,C:/Users/rrics/Documents/!!ResearchBMECOGSCI/gnet,0,0,0,prototype2.png,no,mono,no,18,no,black,no,no,768,1186,3.5.6,legacy,xpyriment,osweb,1.3.13,0,space,space,space,,37791,30030,37791,,2,legacy,900,1440,24,900,24,78,0,1440,1646677461391,1024,2,48000,-16,experiment,p1sarrshacol1.png,0,even,MacIntel,124,142544,139526,124,124,643736,645251,638754,144081,638754,124,,,,,,visual_patterns,0,0,0,yes,1366
undefined,undefined,undefined,undefined,white,no,Mozilla,Netscape,"5.0 (Macintosh; Intel Mac OS X 10_15_7) AppleWebKit/605.1.15 (KHTML, like Gecko) Version/14.1.2 Safari/605.1.15",xpyriment,legacy,legacy,0,uniform,0,0,0,0,24,24,24,0,0,71,71,71,71,71,0,71,0,,,,,,0,,07-02-22,07-02-22,19:26:10,Mon Mar 07 2022 19:26:10 GMT+0100 (CET),The main experiment item,yes,0,0,C:/Users/rrics/Documents/!!ResearchBMECOGSCI/gnet,0,0,0,prototype2.png,no,mono,no,18,no,black,no,no,768,1186,3.5.6,legacy,xpyriment,osweb,1.3.13,0,space,space,space,,37791,30030,37791,,2,legacy,900,1440,24,900,24,78,0,1440,1646677461391,1024,2,48000,-16,experiment,prototype1.png,0,even,MacIntel,124,142544,139526,124,124,650268,651783,645284,144081,645284,124,,,,,,visual_patterns,0,0,0,yes,1366
undefined,undefined,undefined,undefined,white,no,Mozilla,Netscape,"5.0 (Macintosh; Intel Mac OS X 10_15_7) AppleWebKit/605.1.15 (KHTML, like Gecko) Version/14.1.2 Safari/605.1.15",xpyriment,legacy,legacy,0,uniform,0,0,0,0,24,24,24,0,0,72,72,72,72,72,0,72,0,,,,,,0,,07-02-22,07-02-22,19:26:10,Mon Mar 07 2022 19:26:10 GMT+0100 (CET),The main experiment item,yes,0,0,C:/Users/rrics/Documents/!!ResearchBMECOGSCI/gnet,0,0,0,prototype2.png,no,mono,no,18,no,black,no,no,768,1186,3.5.6,legacy,xpyriment,osweb,1.3.13,0,space,space,space,,37791,30030,37791,,2,legacy,900,1440,24,900,24,78,0,1440,1646677461391,1024,2,48000,-16,experiment,prototype5.png,0,even,MacIntel,124,142544,139526,124,124,656797,658311,651814,144081,651814,124,,,,,,visual_patterns,0,0,0,yes,1366
undefined,undefined,undefined,undefined,white,no,Mozilla,Netscape,"5.0 (Macintosh; Intel Mac OS X 10_15_7) AppleWebKit/605.1.15 (KHTML, like Gecko) Version/14.1.2 Safari/605.1.15",xpyriment,legacy,legacy,0,uniform,0,0,0,0,24,24,24,0,0,73,73,73,73,73,0,73,0,,,,,,0,,07-02-22,07-02-22,19:26:10,Mon Mar 07 2022 19:26:10 GMT+0100 (CET),The main experiment item,yes,0,0,C:/Users/rrics/Documents/!!ResearchBMECOGSCI/gnet,0,0,0,prototype2.png,no,mono,no,18,no,black,no,no,768,1186,3.5.6,legacy,xpyriment,osweb,1.3.13,0,space,space,space,,37791,30030,37791,,2,legacy,900,1440,24,900,24,78,0,1440,1646677461391,1024,2,48000,-16,experiment,prototype3.png,0,even,MacIntel,124,142544,139526,124,124,663326,664830,658351,144081,658351,124,,,,,,visual_patterns,0,0,0,yes,1366
undefined,undefined,undefined,undefined,white,no,Mozilla,Netscape,"5.0 (Macintosh; Intel Mac OS X 10_15_7) AppleWebKit/605.1.15 (KHTML, like Gecko) Version/14.1.2 Safari/605.1.15",xpyriment,legacy,legacy,0,uniform,0,0,0,0,24,24,24,0,0,74,74,74,74,74,0,74,0,,,,,,0,,07-02-22,07-02-22,19:26:10,Mon Mar 07 2022 19:26:10 GMT+0100 (CET),The main experiment item,yes,0,0,C:/Users/rrics/Documents/!!ResearchBMECOGSCI/gnet,0,0,0,prototype2.png,no,mono,no,18,no,black,no,no,768,1186,3.5.6,legacy,xpyriment,osweb,1.3.13,0,space,space,space,,37791,30030,37791,,2,legacy,900,1440,24,900,24,78,0,1440,1646677461391,1024,2,48000,-16,experiment,prototype2.png,0,even,MacIntel,124,142544,139526,124,124,669846,671362,664859,144081,664859,124,,,,,,visual_patterns,0,0,0,yes,1366
undefined,undefined,undefined,undefined,white,no,Mozilla,Netscape,"5.0 (Macintosh; Intel Mac OS X 10_15_7) AppleWebKit/605.1.15 (KHTML, like Gecko) Version/14.1.2 Safari/605.1.15",xpyriment,legacy,legacy,0,uniform,0,0,0,0,24,24,24,0,0,74,74,74,74,74,0,74,0,0,0,0,0,0,0,0,07-02-22,07-02-22,19:26:10,Mon Mar 07 2022 19:26:10 GMT+0100 (CET),The main experiment item,yes,0,0,C:/Users/rrics/Documents/!!ResearchBMECOGSCI/gnet,0,0,0,prototype2.png,no,mono,no,18,no,black,no,no,768,1186,3.5.6,legacy,xpyriment,osweb,1.3.13,0,space,space,space,space,46148,30030,37791,46148,2,legacy,900,1440,24,900,24,78,0,1440,1646677461391,1024,2,48000,-16,experiment,p5sarrsha3.png,0,even,MacIntel,124,142544,139526,124,124,669846,671362,664859,144081,664859,124,720558,722072,717571,671386,717571,visual_patterns,0,0,0,yes,1366
undefined,undefined,undefined,undefined,white,no,Mozilla,Netscape,"5.0 (Macintosh; Intel Mac OS X 10_15_7) AppleWebKit/605.1.15 (KHTML, like Gecko) Version/14.1.2 Safari/605.1.15",xpyriment,legacy,legacy,0,uniform,0,0,0,0,24,24,24,0,0,74,74,74,74,74,0,74,0,1,1,1,1,1,0,1,07-02-22,07-02-22,19:26:10,Mon Mar 07 2022 19:26:10 GMT+0100 (CET),The main experiment item,yes,0,0,C:/Users/rrics/Documents/!!ResearchBMECOGSCI/gnet,0,0,0,prototype2.png,no,mono,no,18,no,black,no,no,768,1186,3.5.6,legacy,xpyriment,osweb,1.3.13,0,space,space,space,space,46148,30030,37791,46148,2,legacy,900,1440,24,900,24,78,0,1440,1646677461391,1024,2,48000,-16,experiment,p2sarrshacol1.png,0,even,MacIntel,124,142544,139526,124,124,669846,671362,664859,144081,664859,124,725088,726597,722104,671386,722104,visual_patterns,0,0,0,yes,1366
undefined,undefined,undefined,undefined,white,no,Mozilla,Netscape,"5.0 (Macintosh; Intel Mac OS X 10_15_7) AppleWebKit/605.1.15 (KHTML, like Gecko) Version/14.1.2 Safari/605.1.15",xpyriment,legacy,legacy,0,uniform,0,0,0,0,24,24,24,0,0,74,74,74,74,74,0,74,0,2,2,2,2,2,0,2,07-02-22,07-02-22,19:26:10,Mon Mar 07 2022 19:26:10 GMT+0100 (CET),The main experiment item,yes,0,0,C:/Users/rrics/Documents/!!ResearchBMECOGSCI/gnet,0,0,0,prototype2.png,no,mono,no,18,no,black,no,no,768,1186,3.5.6,legacy,xpyriment,osweb,1.3.13,0,space,space,space,space,46148,30030,37791,46148,2,legacy,900,1440,24,900,24,78,0,1440,1646677461391,1024,2,48000,-16,experiment,p4sarr4.png,0,even,MacIntel,124,142544,139526,124,124,669846,671362,664859,144081,664859,124,729616,731122,726632,671386,726632,visual_patterns,0,0,0,yes,1366
undefined,undefined,undefined,undefined,white,no,Mozilla,Netscape,"5.0 (Macintosh; Intel Mac OS X 10_15_7) AppleWebKit/605.1.15 (KHTML, like Gecko) Version/14.1.2 Safari/605.1.15",xpyriment,legacy,legacy,0,uniform,0,0,0,0,24,24,24,0,0,74,74,74,74,74,0,74,0,3,3,3,3,3,0,3,07-02-22,07-02-22,19:26:10,Mon Mar 07 2022 19:26:10 GMT+0100 (CET),The main experiment item,yes,0,0,C:/Users/rrics/Documents/!!ResearchBMECOGSCI/gnet,0,0,0,prototype2.png,no,mono,no,18,no,black,no,no,768,1186,3.5.6,legacy,xpyriment,osweb,1.3.13,0,space,space,space,space,46148,30030,37791,46148,2,legacy,900,1440,24,900,24,78,0,1440,1646677461391,1024,2,48000,-16,experiment,p5sarrsha2.png,0,even,MacIntel,124,142544,139526,124,124,669846,671362,664859,144081,664859,124,734137,735647,731155,671386,731155,visual_patterns,0,0,0,yes,1366
undefined,undefined,undefined,undefined,white,no,Mozilla,Netscape,"5.0 (Macintosh; Intel Mac OS X 10_15_7) AppleWebKit/605.1.15 (KHTML, like Gecko) Version/14.1.2 Safari/605.1.15",xpyriment,legacy,legacy,0,uniform,0,0,0,0,24,24,24,0,0,74,74,74,74,74,0,74,0,4,4,4,4,4,0,4,07-02-22,07-02-22,19:26:10,Mon Mar 07 2022 19:26:10 GMT+0100 (CET),The main experiment item,yes,0,0,C:/Users/rrics/Documents/!!ResearchBMECOGSCI/gnet,0,0,0,prototype2.png,no,mono,no,18,no,black,no,no,768,1186,3.5.6,legacy,xpyriment,osweb,1.3.13,0,space,space,space,space,46148,30030,37791,46148,2,legacy,900,1440,24,900,24,78,0,1440,1646677461391,1024,2,48000,-16,experiment,p7sarr2.png,0,even,MacIntel,124,142544,139526,124,124,669846,671362,664859,144081,664859,124,738672,740173,735685,671386,735685,visual_patterns,0,0,0,yes,1366
undefined,undefined,undefined,undefined,white,no,Mozilla,Netscape,"5.0 (Macintosh; Intel Mac OS X 10_15_7) AppleWebKit/605.1.15 (KHTML, like Gecko) Version/14.1.2 Safari/605.1.15",xpyriment,legacy,legacy,0,uniform,0,0,0,0,24,24,24,0,0,74,74,74,74,74,0,74,0,5,5,5,5,5,0,5,07-02-22,07-02-22,19:26:10,Mon Mar 07 2022 19:26:10 GMT+0100 (CET),The main experiment item,yes,0,0,C:/Users/rrics/Documents/!!ResearchBMECOGSCI/gnet,0,0,0,prototype2.png,no,mono,no,18,no,black,no,no,768,1186,3.5.6,legacy,xpyriment,osweb,1.3.13,0,space,space,space,space,46148,30030,37791,46148,2,legacy,900,1440,24,900,24,78,0,1440,1646677461391,1024,2,48000,-16,experiment,p1sarrsha4.png,0,even,MacIntel,124,142544,139526,124,124,669846,671362,664859,144081,664859,124,743191,744699,740207,671386,740207,visual_patterns,0,0,0,yes,1366
undefined,undefined,undefined,undefined,white,no,Mozilla,Netscape,"5.0 (Macintosh; Intel Mac OS X 10_15_7) AppleWebKit/605.1.15 (KHTML, like Gecko) Version/14.1.2 Safari/605.1.15",xpyriment,legacy,legacy,0,uniform,0,0,0,0,24,24,24,0,0,74,74,74,74,74,0,74,0,6,6,6,6,6,0,6,07-02-22,07-02-22,19:26:10,Mon Mar 07 2022 19:26:10 GMT+0100 (CET),The main experiment item,yes,0,0,C:/Users/rrics/Documents/!!ResearchBMECOGSCI/gnet,0,0,0,prototype2.png,no,mono,no,18,no,black,no,no,768,1186,3.5.6,legacy,xpyriment,osweb,1.3.13,0,space,space,space,space,46148,30030,37791,46148,2,legacy,900,1440,24,900,24,78,0,1440,1646677461391,1024,2,48000,-16,experiment,p3sarrcol2.png,0,even,MacIntel,124,142544,139526,124,124,669846,671362,664859,144081,664859,124,747717,749224,744732,671386,744732,visual_patterns,0,0,0,yes,1366
undefined,undefined,undefined,undefined,white,no,Mozilla,Netscape,"5.0 (Macintosh; Intel Mac OS X 10_15_7) AppleWebKit/605.1.15 (KHTML, like Gecko) Version/14.1.2 Safari/605.1.15",xpyriment,legacy,legacy,0,uniform,0,0,0,0,24,24,24,0,0,74,74,74,74,74,0,74,0,7,7,7,7,7,0,7,07-02-22,07-02-22,19:26:10,Mon Mar 07 2022 19:26:10 GMT+0100 (CET),The main experiment item,yes,0,0,C:/Users/rrics/Documents/!!ResearchBMECOGSCI/gnet,0,0,0,prototype2.png,no,mono,no,18,no,black,no,no,768,1186,3.5.6,legacy,xpyriment,osweb,1.3.13,0,space,space,space,space,46148,30030,37791,46148,2,legacy,900,1440,24,900,24,78,0,1440,1646677461391,1024,2,48000,-16,experiment,p3sarrcol3.png,0,even,MacIntel,124,142544,139526,124,124,669846,671362,664859,144081,664859,124,752242,753749,749257,671386,749257,visual_patterns,0,0,0,yes,1366
undefined,undefined,undefined,undefined,white,no,Mozilla,Netscape,"5.0 (Macintosh; Intel Mac OS X 10_15_7) AppleWebKit/605.1.15 (KHTML, like Gecko) Version/14.1.2 Safari/605.1.15",xpyriment,legacy,legacy,0,uniform,0,0,0,0,24,24,24,0,0,74,74,74,74,74,0,74,0,8,8,8,8,8,0,8,07-02-22,07-02-22,19:26:10,Mon Mar 07 2022 19:26:10 GMT+0100 (CET),The main experiment item,yes,0,0,C:/Users/rrics/Documents/!!ResearchBMECOGSCI/gnet,0,0,0,prototype2.png,no,mono,no,18,no,black,no,no,768,1186,3.5.6,legacy,xpyriment,osweb,1.3.13,0,space,space,space,space,46148,30030,37791,46148,2,legacy,900,1440,24,900,24,78,0,1440,1646677461391,1024,2,48000,-16,experiment,p1sarrsha1.png,0,even,MacIntel,124,142544,139526,124,124,669846,671362,664859,144081,664859,124,756764,758275,753780,671386,753780,visual_patterns,0,0,0,yes,1366
undefined,undefined,undefined,undefined,white,no,Mozilla,Netscape,"5.0 (Macintosh; Intel Mac OS X 10_15_7) AppleWebKit/605.1.15 (KHTML, like Gecko) Version/14.1.2 Safari/605.1.15",xpyriment,legacy,legacy,0,uniform,0,0,0,0,24,24,24,0,0,74,74,74,74,74,0,74,0,9,9,9,9,9,0,9,07-02-22,07-02-22,19:26:10,Mon Mar 07 2022 19:26:10 GMT+0100 (CET),The main experiment item,yes,0,0,C:/Users/rrics/Documents/!!ResearchBMECOGSCI/gnet,0,0,0,prototype2.png,no,mono,no,18,no,black,no,no,768,1186,3.5.6,legacy,xpyriment,osweb,1.3.13,0,space,space,space,space,46148,30030,37791,46148,2,legacy,900,1440,24,900,24,78,0,1440,1646677461391,1024,2,48000,-16,experiment,p4sarr1.png,0,even,MacIntel,124,142544,139526,124,124,669846,671362,664859,144081,664859,124,761293,762800,758307,671386,758307,visual_patterns,0,0,0,yes,1366
undefined,undefined,undefined,undefined,white,no,Mozilla,Netscape,"5.0 (Macintosh; Intel Mac OS X 10_15_7) AppleWebKit/605.1.15 (KHTML, like Gecko) Version/14.1.2 Safari/605.1.15",xpyriment,legacy,legacy,0,uniform,0,0,0,0,24,24,24,0,0,74,74,74,74,74,0,74,0,10,10,10,10,10,0,10,07-02-22,07-02-22,19:26:10,Mon Mar 07 2022 19:26:10 GMT+0100 (CET),The main experiment item,yes,0,0,C:/Users/rrics/Documents/!!ResearchBMECOGSCI/gnet,0,0,0,prototype2.png,no,mono,no,18,no,black,no,no,768,1186,3.5.6,legacy,xpyriment,osweb,1.3.13,0,space,space,space,space,46148,30030,37791,46148,2,legacy,900,1440,24,900,24,78,0,1440,1646677461391,1024,2,48000,-16,experiment,p9sarr2.png,0,even,MacIntel,124,142544,139526,124,124,669846,671362,664859,144081,664859,124,765816,767325,762833,671386,762833,visual_patterns,0,0,0,yes,1366
undefined,undefined,undefined,undefined,white,no,Mozilla,Netscape,"5.0 (Macintosh; Intel Mac OS X 10_15_7) AppleWebKit/605.1.15 (KHTML, like Gecko) Version/14.1.2 Safari/605.1.15",xpyriment,legacy,legacy,0,uniform,0,0,0,0,24,24,24,0,0,74,74,74,74,74,0,74,0,11,11,11,11,11,0,11,07-02-22,07-02-22,19:26:10,Mon Mar 07 2022 19:26:10 GMT+0100 (CET),The main experiment item,yes,0,0,C:/Users/rrics/Documents/!!ResearchBMECOGSCI/gnet,0,0,0,prototype2.png,no,mono,no,18,no,black,no,no,768,1186,3.5.6,legacy,xpyriment,osweb,1.3.13,0,space,space,space,space,46148,30030,37791,46148,2,legacy,900,1440,24,900,24,78,0,1440,1646677461391,1024,2,48000,-16,experiment,p1sarr2.png,0,even,MacIntel,124,142544,139526,124,124,669846,671362,664859,144081,664859,124,770340,771850,767357,671386,767357,visual_patterns,0,0,0,yes,1366
undefined,undefined,undefined,undefined,white,no,Mozilla,Netscape,"5.0 (Macintosh; Intel Mac OS X 10_15_7) AppleWebKit/605.1.15 (KHTML, like Gecko) Version/14.1.2 Safari/605.1.15",xpyriment,legacy,legacy,0,uniform,0,0,0,0,24,24,24,0,0,74,74,74,74,74,0,74,0,12,12,12,12,12,0,12,07-02-22,07-02-22,19:26:10,Mon Mar 07 2022 19:26:10 GMT+0100 (CET),The main experiment item,yes,0,0,C:/Users/rrics/Documents/!!ResearchBMECOGSCI/gnet,0,0,0,prototype2.png,no,mono,no,18,no,black,no,no,768,1186,3.5.6,legacy,xpyriment,osweb,1.3.13,0,space,space,space,space,46148,30030,37791,46148,2,legacy,900,1440,24,900,24,78,0,1440,1646677461391,1024,2,48000,-16,experiment,p3sarrcol4.png,0,even,MacIntel,124,142544,139526,124,124,669846,671362,664859,144081,664859,124,774866,776375,771884,671386,771884,visual_patterns,0,0,0,yes,1366
undefined,undefined,undefined,undefined,white,no,Mozilla,Netscape,"5.0 (Macintosh; Intel Mac OS X 10_15_7) AppleWebKit/605.1.15 (KHTML, like Gecko) Version/14.1.2 Safari/605.1.15",xpyriment,legacy,legacy,0,uniform,0,0,0,0,24,24,24,0,0,74,74,74,74,74,0,74,0,13,13,13,13,13,0,13,07-02-22,07-02-22,19:26:10,Mon Mar 07 2022 19:26:10 GMT+0100 (CET),The main experiment item,yes,0,0,C:/Users/rrics/Documents/!!ResearchBMECOGSCI/gnet,0,0,0,prototype2.png,no,mono,no,18,no,black,no,no,768,1186,3.5.6,legacy,xpyriment,osweb,1.3.13,0,space,space,space,space,46148,30030,37791,46148,2,legacy,900,1440,24,900,24,78,0,1440,1646677461391,1024,2,48000,-16,experiment,p2sarrshacol2.png,0,even,MacIntel,124,142544,139526,124,124,669846,671362,664859,144081,664859,124,779392,780900,776407,671386,776407,visual_patterns,0,0,0,yes,1366
undefined,undefined,undefined,undefined,white,no,Mozilla,Netscape,"5.0 (Macintosh; Intel Mac OS X 10_15_7) AppleWebKit/605.1.15 (KHTML, like Gecko) Version/14.1.2 Safari/605.1.15",xpyriment,legacy,legacy,0,uniform,0,0,0,0,24,24,24,0,0,74,74,74,74,74,0,74,0,14,14,14,14,14,0,14,07-02-22,07-02-22,19:26:10,Mon Mar 07 2022 19:26:10 GMT+0100 (CET),The main experiment item,yes,0,0,C:/Users/rrics/Documents/!!ResearchBMECOGSCI/gnet,0,0,0,prototype2.png,no,mono,no,18,no,black,no,no,768,1186,3.5.6,legacy,xpyriment,osweb,1.3.13,0,space,space,space,space,46148,30030,37791,46148,2,legacy,900,1440,24,900,24,78,0,1440,1646677461391,1024,2,48000,-16,experiment,p6sarr1.png,0,even,MacIntel,124,142544,139526,124,124,669846,671362,664859,144081,664859,124,783917,785426,780932,671386,780932,visual_patterns,0,0,0,yes,1366
undefined,undefined,undefined,undefined,white,no,Mozilla,Netscape,"5.0 (Macintosh; Intel Mac OS X 10_15_7) AppleWebKit/605.1.15 (KHTML, like Gecko) Version/14.1.2 Safari/605.1.15",xpyriment,legacy,legacy,0,uniform,0,0,0,0,24,24,24,0,0,74,74,74,74,74,0,74,0,15,15,15,15,15,0,15,07-02-22,07-02-22,19:26:10,Mon Mar 07 2022 19:26:10 GMT+0100 (CET),The main experiment item,yes,0,0,C:/Users/rrics/Documents/!!ResearchBMECOGSCI/gnet,0,0,0,prototype2.png,no,mono,no,18,no,black,no,no,768,1186,3.5.6,legacy,xpyriment,osweb,1.3.13,0,space,space,space,space,46148,30030,37791,46148,2,legacy,900,1440,24,900,24,78,0,1440,1646677461391,1024,2,48000,-16,experiment,p4sarrshacol3.png,0,even,MacIntel,124,142544,139526,124,124,669846,671362,664859,144081,664859,124,788446,789950,785460,671386,785460,visual_patterns,0,0,0,yes,1366
undefined,undefined,undefined,undefined,white,no,Mozilla,Netscape,"5.0 (Macintosh; Intel Mac OS X 10_15_7) AppleWebKit/605.1.15 (KHTML, like Gecko) Version/14.1.2 Safari/605.1.15",xpyriment,legacy,legacy,0,uniform,0,0,0,0,24,24,24,0,0,74,74,74,74,74,0,74,0,16,16,16,16,16,0,16,07-02-22,07-02-22,19:26:10,Mon Mar 07 2022 19:26:10 GMT+0100 (CET),The main experiment item,yes,0,0,C:/Users/rrics/Documents/!!ResearchBMECOGSCI/gnet,0,0,0,prototype2.png,no,mono,no,18,no,black,no,no,768,1186,3.5.6,legacy,xpyriment,osweb,1.3.13,0,space,space,space,space,46148,30030,37791,46148,2,legacy,900,1440,24,900,24,78,0,1440,1646677461391,1024,2,48000,-16,experiment,p4sarrshacol4.png,0,even,MacIntel,124,142544,139526,124,124,669846,671362,664859,144081,664859,124,792969,794475,789984,671386,789984,visual_patterns,0,0,0,yes,1366
undefined,undefined,undefined,undefined,white,no,Mozilla,Netscape,"5.0 (Macintosh; Intel Mac OS X 10_15_7) AppleWebKit/605.1.15 (KHTML, like Gecko) Version/14.1.2 Safari/605.1.15",xpyriment,legacy,legacy,0,uniform,0,0,0,0,24,24,24,0,0,74,74,74,74,74,0,74,0,17,17,17,17,17,0,17,07-02-22,07-02-22,19:26:10,Mon Mar 07 2022 19:26:10 GMT+0100 (CET),The main experiment item,yes,0,0,C:/Users/rrics/Documents/!!ResearchBMECOGSCI/gnet,0,0,0,prototype2.png,no,mono,no,18,no,black,no,no,768,1186,3.5.6,legacy,xpyriment,osweb,1.3.13,0,space,space,space,space,46148,30030,37791,46148,2,legacy,900,1440,24,900,24,78,0,1440,1646677461391,1024,2,48000,-16,experiment,p2sarrcol1.png,0,even,MacIntel,124,142544,139526,124,124,669846,671362,664859,144081,664859,124,797492,799000,794509,671386,794509,visual_patterns,0,0,0,yes,1366
undefined,undefined,undefined,undefined,white,no,Mozilla,Netscape,"5.0 (Macintosh; Intel Mac OS X 10_15_7) AppleWebKit/605.1.15 (KHTML, like Gecko) Version/14.1.2 Safari/605.1.15",xpyriment,legacy,legacy,0,uniform,0,0,0,0,24,24,24,0,0,74,74,74,74,74,0,74,0,18,18,18,18,18,0,18,07-02-22,07-02-22,19:26:10,Mon Mar 07 2022 19:26:10 GMT+0100 (CET),The main experiment item,yes,0,0,C:/Users/rrics/Documents/!!ResearchBMECOGSCI/gnet,0,0,0,prototype2.png,no,mono,no,18,no,black,no,no,768,1186,3.5.6,legacy,xpyriment,osweb,1.3.13,0,space,space,space,space,46148,30030,37791,46148,2,legacy,900,1440,24,900,24,78,0,1440,1646677461391,1024,2,48000,-16,experiment,p1sarr4.png,0,even,MacIntel,124,142544,139526,124,124,669846,671362,664859,144081,664859,124,802017,803525,799034,671386,799034,visual_patterns,0,0,0,yes,1366
undefined,undefined,undefined,undefined,white,no,Mozilla,Netscape,"5.0 (Macintosh; Intel Mac OS X 10_15_7) AppleWebKit/605.1.15 (KHTML, like Gecko) Version/14.1.2 Safari/605.1.15",xpyriment,legacy,legacy,0,uniform,0,0,0,0,24,24,24,0,0,74,74,74,74,74,0,74,0,19,19,19,19,19,0,19,07-02-22,07-02-22,19:26:10,Mon Mar 07 2022 19:26:10 GMT+0100 (CET),The main experiment item,yes,0,0,C:/Users/rrics/Documents/!!ResearchBMECOGSCI/gnet,0,0,0,prototype2.png,no,mono,no,18,no,black,no,no,768,1186,3.5.6,legacy,xpyriment,osweb,1.3.13,0,space,space,space,space,46148,30030,37791,46148,2,legacy,900,1440,24,900,24,78,0,1440,1646677461391,1024,2,48000,-16,experiment,p10sarr1.png,0,even,MacIntel,124,142544,139526,124,124,669846,671362,664859,144081,664859,124,806540,808050,803557,671386,803557,visual_patterns,0,0,0,yes,1366
undefined,undefined,undefined,undefined,white,no,Mozilla,Netscape,"5.0 (Macintosh; Intel Mac OS X 10_15_7) AppleWebKit/605.1.15 (KHTML, like Gecko) Version/14.1.2 Safari/605.1.15",xpyriment,legacy,legacy,0,uniform,0,0,0,0,24,24,24,0,0,74,74,74,74,74,0,74,0,20,20,20,20,20,0,20,07-02-22,07-02-22,19:26:10,Mon Mar 07 2022 19:26:10 GMT+0100 (CET),The main experiment item,yes,0,0,C:/Users/rrics/Documents/!!ResearchBMECOGSCI/gnet,0,0,0,prototype2.png,no,mono,no,18,no,black,no,no,768,1186,3.5.6,legacy,xpyriment,osweb,1.3.13,0,space,space,space,space,46148,30030,37791,46148,2,legacy,900,1440,24,900,24,78,0,1440,1646677461391,1024,2,48000,-16,experiment,p8sarr3.png,0,even,MacIntel,124,142544,139526,124,124,669846,671362,664859,144081,664859,124,811067,812576,808085,671386,808085,visual_patterns,0,0,0,yes,1366
undefined,undefined,undefined,undefined,white,no,Mozilla,Netscape,"5.0 (Macintosh; Intel Mac OS X 10_15_7) AppleWebKit/605.1.15 (KHTML, like Gecko) Version/14.1.2 Safari/605.1.15",xpyriment,legacy,legacy,0,uniform,0,0,0,0,24,24,24,0,0,74,74,74,74,74,0,74,0,21,21,21,21,21,0,21,07-02-22,07-02-22,19:26:10,Mon Mar 07 2022 19:26:10 GMT+0100 (CET),The main experiment item,yes,0,0,C:/Users/rrics/Documents/!!ResearchBMECOGSCI/gnet,0,0,0,prototype2.png,no,mono,no,18,no,black,no,no,768,1186,3.5.6,legacy,xpyriment,osweb,1.3.13,0,space,space,space,space,46148,30030,37791,46148,2,legacy,900,1440,24,900,24,78,0,1440,1646677461391,1024,2,48000,-16,experiment,p9sarr4.png,0,even,MacIntel,124,142544,139526,124,124,669846,671362,664859,144081,664859,124,815592,817101,812610,671386,812610,visual_patterns,0,0,0,yes,1366
undefined,undefined,undefined,undefined,white,no,Mozilla,Netscape,"5.0 (Macintosh; Intel Mac OS X 10_15_7) AppleWebKit/605.1.15 (KHTML, like Gecko) Version/14.1.2 Safari/605.1.15",xpyriment,legacy,legacy,0,uniform,0,0,0,0,24,24,24,0,0,74,74,74,74,74,0,74,0,22,22,22,22,22,0,22,07-02-22,07-02-22,19:26:10,Mon Mar 07 2022 19:26:10 GMT+0100 (CET),The main experiment item,yes,0,0,C:/Users/rrics/Documents/!!ResearchBMECOGSCI/gnet,0,0,0,prototype2.png,no,mono,no,18,no,black,no,no,768,1186,3.5.6,legacy,xpyriment,osweb,1.3.13,0,space,space,space,space,46148,30030,37791,46148,2,legacy,900,1440,24,900,24,78,0,1440,1646677461391,1024,2,48000,-16,experiment,p5sarrcol2.png,0,even,MacIntel,124,142544,139526,124,124,669846,671362,664859,144081,664859,124,820118,821626,817133,671386,817133,visual_patterns,0,0,0,yes,1366
undefined,undefined,undefined,undefined,white,no,Mozilla,Netscape,"5.0 (Macintosh; Intel Mac OS X 10_15_7) AppleWebKit/605.1.15 (KHTML, like Gecko) Version/14.1.2 Safari/605.1.15",xpyriment,legacy,legacy,0,uniform,0,0,0,0,24,24,24,0,0,74,74,74,74,74,0,74,0,23,23,23,23,23,0,23,07-02-22,07-02-22,19:26:10,Mon Mar 07 2022 19:26:10 GMT+0100 (CET),The main experiment item,yes,0,0,C:/Users/rrics/Documents/!!ResearchBMECOGSCI/gnet,0,0,0,prototype2.png,no,mono,no,18,no,black,no,no,768,1186,3.5.6,legacy,xpyriment,osweb,1.3.13,0,space,space,space,space,46148,30030,37791,46148,2,legacy,900,1440,24,900,24,78,0,1440,1646677461391,1024,2,48000,-16,experiment,p7sarr4.png,0,even,MacIntel,124,142544,139526,124,124,669846,671362,664859,144081,664859,124,824643,826152,821660,671386,821660,visual_patterns,0,0,0,yes,1366
undefined,undefined,undefined,undefined,white,no,Mozilla,Netscape,"5.0 (Macintosh; Intel Mac OS X 10_15_7) AppleWebKit/605.1.15 (KHTML, like Gecko) Version/14.1.2 Safari/605.1.15",xpyriment,legacy,legacy,0,uniform,0,0,0,0,24,24,24,0,0,74,74,74,74,74,0,74,0,24,24,24,24,24,0,24,07-02-22,07-02-22,19:26:10,Mon Mar 07 2022 19:26:10 GMT+0100 (CET),The main experiment item,yes,0,0,C:/Users/rrics/Documents/!!ResearchBMECOGSCI/gnet,0,0,0,prototype2.png,no,mono,no,18,no,black,no,no,768,1186,3.5.6,legacy,xpyriment,osweb,1.3.13,0,space,space,space,space,46148,30030,37791,46148,2,legacy,900,1440,24,900,24,78,0,1440,1646677461391,1024,2,48000,-16,experiment,p3sarrsha3.png,0,even,MacIntel,124,142544,139526,124,124,669846,671362,664859,144081,664859,124,829169,830677,826186,671386,826186,visual_patterns,0,0,0,yes,1366
undefined,undefined,undefined,undefined,white,no,Mozilla,Netscape,"5.0 (Macintosh; Intel Mac OS X 10_15_7) AppleWebKit/605.1.15 (KHTML, like Gecko) Version/14.1.2 Safari/605.1.15",xpyriment,legacy,legacy,0,uniform,0,0,0,0,24,24,24,0,0,74,74,74,74,74,0,74,0,25,25,25,25,25,0,25,07-02-22,07-02-22,19:26:10,Mon Mar 07 2022 19:26:10 GMT+0100 (CET),The main experiment item,yes,0,0,C:/Users/rrics/Documents/!!ResearchBMECOGSCI/gnet,0,0,0,prototype2.png,no,mono,no,18,no,black,no,no,768,1186,3.5.6,legacy,xpyriment,osweb,1.3.13,0,space,space,space,space,46148,30030,37791,46148,2,legacy,900,1440,24,900,24,78,0,1440,1646677461391,1024,2,48000,-16,experiment,p8sarr4.png,0,even,MacIntel,124,142544,139526,124,124,669846,671362,664859,144081,664859,124,833694,835202,830711,671386,830711,visual_patterns,0,0,0,yes,1366
undefined,undefined,undefined,undefined,white,no,Mozilla,Netscape,"5.0 (Macintosh; Intel Mac OS X 10_15_7) AppleWebKit/605.1.15 (KHTML, like Gecko) Version/14.1.2 Safari/605.1.15",xpyriment,legacy,legacy,0,uniform,0,0,0,0,24,24,24,0,0,74,74,74,74,74,0,74,0,26,26,26,26,26,0,26,07-02-22,07-02-22,19:26:10,Mon Mar 07 2022 19:26:10 GMT+0100 (CET),The main experiment item,yes,0,0,C:/Users/rrics/Documents/!!ResearchBMECOGSCI/gnet,0,0,0,prototype2.png,no,mono,no,18,no,black,no,no,768,1186,3.5.6,legacy,xpyriment,osweb,1.3.13,0,space,space,space,space,46148,30030,37791,46148,2,legacy,900,1440,24,900,24,78,0,1440,1646677461391,1024,2,48000,-16,experiment,p2sarrshacol4.png,0,even,MacIntel,124,142544,139526,124,124,669846,671362,664859,144081,664859,124,838220,839727,835237,671386,835237,visual_patterns,0,0,0,yes,1366
undefined,undefined,undefined,undefined,white,no,Mozilla,Netscape,"5.0 (Macintosh; Intel Mac OS X 10_15_7) AppleWebKit/605.1.15 (KHTML, like Gecko) Version/14.1.2 Safari/605.1.15",xpyriment,legacy,legacy,0,uniform,0,0,0,0,24,24,24,0,0,74,74,74,74,74,0,74,0,27,27,27,27,27,0,27,07-02-22,07-02-22,19:26:10,Mon Mar 07 2022 19:26:10 GMT+0100 (CET),The main experiment item,yes,0,0,C:/Users/rrics/Documents/!!ResearchBMECOGSCI/gnet,0,0,0,prototype2.png,no,mono,no,18,no,black,no,no,768,1186,3.5.6,legacy,xpyriment,osweb,1.3.13,0,space,space,space,space,46148,30030,37791,46148,2,legacy,900,1440,24,900,24,78,0,1440,1646677461391,1024,2,48000,-16,experiment,p4sarrshacol1.png,0,even,MacIntel,124,142544,139526,124,124,669846,671362,664859,144081,664859,124,842741,844252,839759,671386,839759,visual_patterns,0,0,0,yes,1366
undefined,undefined,undefined,undefined,white,no,Mozilla,Netscape,"5.0 (Macintosh; Intel Mac OS X 10_15_7) AppleWebKit/605.1.15 (KHTML, like Gecko) Version/14.1.2 Safari/605.1.15",xpyriment,legacy,legacy,0,uniform,0,0,0,0,24,24,24,0,0,74,74,74,74,74,0,74,0,28,28,28,28,28,0,28,07-02-22,07-02-22,19:26:10,Mon Mar 07 2022 19:26:10 GMT+0100 (CET),The main experiment item,yes,0,0,C:/Users/rrics/Documents/!!ResearchBMECOGSCI/gnet,0,0,0,prototype2.png,no,mono,no,18,no,black,no,no,768,1186,3.5.6,legacy,xpyriment,osweb,1.3.13,0,space,space,space,space,46148,30030,37791,46148,2,legacy,900,1440,24,900,24,78,0,1440,1646677461391,1024,2,48000,-16,experiment,p1sarrshacol3.png,0,even,MacIntel,124,142544,139526,124,124,669846,671362,664859,144081,664859,124,847269,848777,844286,671386,844286,visual_patterns,0,0,0,yes,1366
undefined,undefined,undefined,undefined,white,no,Mozilla,Netscape,"5.0 (Macintosh; Intel Mac OS X 10_15_7) AppleWebKit/605.1.15 (KHTML, like Gecko) Version/14.1.2 Safari/605.1.15",xpyriment,legacy,legacy,0,uniform,0,0,0,0,24,24,24,0,0,74,74,74,74,74,0,74,0,29,29,29,29,29,0,29,07-02-22,07-02-22,19:26:10,Mon Mar 07 2022 19:26:10 GMT+0100 (CET),The main experiment item,yes,0,0,C:/Users/rrics/Documents/!!ResearchBMECOGSCI/gnet,0,0,0,prototype2.png,no,mono,no,18,no,black,no,no,768,1186,3.5.6,legacy,xpyriment,osweb,1.3.13,0,space,space,space,space,46148,30030,37791,46148,2,legacy,900,1440,24,900,24,78,0,1440,1646677461391,1024,2,48000,-16,experiment,p2sarrsha1.png,0,even,MacIntel,124,142544,139526,124,124,669846,671362,664859,144081,664859,124,851795,853302,848807,671386,848807,visual_patterns,0,0,0,yes,1366
undefined,undefined,undefined,undefined,white,no,Mozilla,Netscape,"5.0 (Macintosh; Intel Mac OS X 10_15_7) AppleWebKit/605.1.15 (KHTML, like Gecko) Version/14.1.2 Safari/605.1.15",xpyriment,legacy,legacy,0,uniform,0,0,0,0,24,24,24,0,0,74,74,74,74,74,0,74,0,30,30,30,30,30,0,30,07-02-22,07-02-22,19:26:10,Mon Mar 07 2022 19:26:10 GMT+0100 (CET),The main experiment item,yes,0,0,C:/Users/rrics/Documents/!!ResearchBMECOGSCI/gnet,0,0,0,prototype2.png,no,mono,no,18,no,black,no,no,768,1186,3.5.6,legacy,xpyriment,osweb,1.3.13,0,space,space,space,space,46148,30030,37791,46148,2,legacy,900,1440,24,900,24,78,0,1440,1646677461391,1024,2,48000,-16,experiment,p3sarr2.png,0,even,MacIntel,124,142544,139526,124,124,669846,671362,664859,144081,664859,124,856318,857827,853335,671386,853335,visual_patterns,0,0,0,yes,1366
undefined,undefined,undefined,undefined,white,no,Mozilla,Netscape,"5.0 (Macintosh; Intel Mac OS X 10_15_7) AppleWebKit/605.1.15 (KHTML, like Gecko) Version/14.1.2 Safari/605.1.15",xpyriment,legacy,legacy,0,uniform,0,0,0,0,24,24,24,0,0,74,74,74,74,74,0,74,0,31,31,31,31,31,0,31,07-02-22,07-02-22,19:26:10,Mon Mar 07 2022 19:26:10 GMT+0100 (CET),The main experiment item,yes,0,0,C:/Users/rrics/Documents/!!ResearchBMECOGSCI/gnet,0,0,0,prototype2.png,no,mono,no,18,no,black,no,no,768,1186,3.5.6,legacy,xpyriment,osweb,1.3.13,0,space,space,space,space,46148,30030,37791,46148,2,legacy,900,1440,24,900,24,78,0,1440,1646677461391,1024,2,48000,-16,experiment,p3sarrshacol3.png,0,even,MacIntel,124,142544,139526,124,124,669846,671362,664859,144081,664859,124,860843,862353,857862,671386,857862,visual_patterns,0,0,0,yes,1366
undefined,undefined,undefined,undefined,white,no,Mozilla,Netscape,"5.0 (Macintosh; Intel Mac OS X 10_15_7) AppleWebKit/605.1.15 (KHTML, like Gecko) Version/14.1.2 Safari/605.1.15",xpyriment,legacy,legacy,0,uniform,0,0,0,0,24,24,24,0,0,74,74,74,74,74,0,74,0,32,32,32,32,32,0,32,07-02-22,07-02-22,19:26:10,Mon Mar 07 2022 19:26:10 GMT+0100 (CET),The main experiment item,yes,0,0,C:/Users/rrics/Documents/!!ResearchBMECOGSCI/gnet,0,0,0,prototype2.png,no,mono,no,18,no,black,no,no,768,1186,3.5.6,legacy,xpyriment,osweb,1.3.13,0,space,space,space,space,46148,30030,37791,46148,2,legacy,900,1440,24,900,24,78,0,1440,1646677461391,1024,2,48000,-16,experiment,p2sarrcol4.png,0,even,MacIntel,124,142544,139526,124,124,669846,671362,664859,144081,664859,124,865368,866877,862386,671386,862386,visual_patterns,0,0,0,yes,1366
undefined,undefined,undefined,undefined,white,no,Mozilla,Netscape,"5.0 (Macintosh; Intel Mac OS X 10_15_7) AppleWebKit/605.1.15 (KHTML, like Gecko) Version/14.1.2 Safari/605.1.15",xpyriment,legacy,legacy,0,uniform,0,0,0,0,24,24,24,0,0,74,74,74,74,74,0,74,0,33,33,33,33,33,0,33,07-02-22,07-02-22,19:26:10,Mon Mar 07 2022 19:26:10 GMT+0100 (CET),The main experiment item,yes,0,0,C:/Users/rrics/Documents/!!ResearchBMECOGSCI/gnet,0,0,0,prototype2.png,no,mono,no,18,no,black,no,no,768,1186,3.5.6,legacy,xpyriment,osweb,1.3.13,0,space,space,space,space,46148,30030,37791,46148,2,legacy,900,1440,24,900,24,78,0,1440,1646677461391,1024,2,48000,-16,experiment,p5sarrcol1.png,0,even,MacIntel,124,142544,139526,124,124,669846,671362,664859,144081,664859,124,869895,871402,866908,671386,866908,visual_patterns,0,0,0,yes,1366
undefined,undefined,undefined,undefined,white,no,Mozilla,Netscape,"5.0 (Macintosh; Intel Mac OS X 10_15_7) AppleWebKit/605.1.15 (KHTML, like Gecko) Version/14.1.2 Safari/605.1.15",xpyriment,legacy,legacy,0,uniform,0,0,0,0,24,24,24,0,0,74,74,74,74,74,0,74,0,34,34,34,34,34,0,34,07-02-22,07-02-22,19:26:10,Mon Mar 07 2022 19:26:10 GMT+0100 (CET),The main experiment item,yes,0,0,C:/Users/rrics/Documents/!!ResearchBMECOGSCI/gnet,0,0,0,prototype2.png,no,mono,no,18,no,black,no,no,768,1186,3.5.6,legacy,xpyriment,osweb,1.3.13,0,space,space,space,space,46148,30030,37791,46148,2,legacy,900,1440,24,900,24,78,0,1440,1646677461391,1024,2,48000,-16,experiment,p8sarr2.png,0,even,MacIntel,124,142544,139526,124,124,669846,671362,664859,144081,664859,124,874418,875928,871435,671386,871435,visual_patterns,0,0,0,yes,1366
undefined,undefined,undefined,undefined,white,no,Mozilla,Netscape,"5.0 (Macintosh; Intel Mac OS X 10_15_7) AppleWebKit/605.1.15 (KHTML, like Gecko) Version/14.1.2 Safari/605.1.15",xpyriment,legacy,legacy,0,uniform,0,0,0,0,24,24,24,0,0,74,74,74,74,74,0,74,0,35,35,35,35,35,0,35,07-02-22,07-02-22,19:26:10,Mon Mar 07 2022 19:26:10 GMT+0100 (CET),The main experiment item,yes,0,0,C:/Users/rrics/Documents/!!ResearchBMECOGSCI/gnet,0,0,0,prototype2.png,no,mono,no,18,no,black,no,no,768,1186,3.5.6,legacy,xpyriment,osweb,1.3.13,0,space,space,space,space,46148,30030,37791,46148,2,legacy,900,1440,24,900,24,78,0,1440,1646677461391,1024,2,48000,-16,experiment,p5sarr3.png,0,even,MacIntel,124,142544,139526,124,124,669846,671362,664859,144081,664859,124,878948,880452,875963,671386,875962,visual_patterns,0,0,0,yes,1366
undefined,undefined,undefined,undefined,white,no,Mozilla,Netscape,"5.0 (Macintosh; Intel Mac OS X 10_15_7) AppleWebKit/605.1.15 (KHTML, like Gecko) Version/14.1.2 Safari/605.1.15",xpyriment,legacy,legacy,0,uniform,0,0,0,0,24,24,24,0,0,74,74,74,74,74,0,74,0,36,36,36,36,36,0,36,07-02-22,07-02-22,19:26:10,Mon Mar 07 2022 19:26:10 GMT+0100 (CET),The main experiment item,yes,0,0,C:/Users/rrics/Documents/!!ResearchBMECOGSCI/gnet,0,0,0,prototype2.png,no,mono,no,18,no,black,no,no,768,1186,3.5.6,legacy,xpyriment,osweb,1.3.13,0,space,space,space,space,46148,30030,37791,46148,2,legacy,900,1440,24,900,24,78,0,1440,1646677461391,1024,2,48000,-16,experiment,p7sarr1.png,0,even,MacIntel,124,142544,139526,124,124,669846,671362,664859,144081,664859,124,883468,884977,880483,671386,880483,visual_patterns,0,0,0,yes,1366
undefined,undefined,undefined,undefined,white,no,Mozilla,Netscape,"5.0 (Macintosh; Intel Mac OS X 10_15_7) AppleWebKit/605.1.15 (KHTML, like Gecko) Version/14.1.2 Safari/605.1.15",xpyriment,legacy,legacy,0,uniform,0,0,0,0,24,24,24,0,0,74,74,74,74,74,0,74,0,37,37,37,37,37,0,37,07-02-22,07-02-22,19:26:10,Mon Mar 07 2022 19:26:10 GMT+0100 (CET),The main experiment item,yes,0,0,C:/Users/rrics/Documents/!!ResearchBMECOGSCI/gnet,0,0,0,prototype2.png,no,mono,no,18,no,black,no,no,768,1186,3.5.6,legacy,xpyriment,osweb,1.3.13,0,space,space,space,space,46148,30030,37791,46148,2,legacy,900,1440,24,900,24,78,0,1440,1646677461391,1024,2,48000,-16,experiment,p1sarrcol4.png,0,even,MacIntel,124,142544,139526,124,124,669846,671362,664859,144081,664859,124,887993,889502,885012,671386,885012,visual_patterns,0,0,0,yes,1366
undefined,undefined,undefined,undefined,white,no,Mozilla,Netscape,"5.0 (Macintosh; Intel Mac OS X 10_15_7) AppleWebKit/605.1.15 (KHTML, like Gecko) Version/14.1.2 Safari/605.1.15",xpyriment,legacy,legacy,0,uniform,0,0,0,0,24,24,24,0,0,74,74,74,74,74,0,74,0,38,38,38,38,38,0,38,07-02-22,07-02-22,19:26:10,Mon Mar 07 2022 19:26:10 GMT+0100 (CET),The main experiment item,yes,0,0,C:/Users/rrics/Documents/!!ResearchBMECOGSCI/gnet,0,0,0,prototype2.png,no,mono,no,18,no,black,no,no,768,1186,3.5.6,legacy,xpyriment,osweb,1.3.13,0,space,space,space,space,46148,30030,37791,46148,2,legacy,900,1440,24,900,24,78,0,1440,1646677461391,1024,2,48000,-16,experiment,p3sarrsha4.png,0,even,MacIntel,124,142544,139526,124,124,669846,671362,664859,144081,664859,124,892517,894028,889537,671386,889537,visual_patterns,0,0,0,yes,1366
undefined,undefined,undefined,undefined,white,no,Mozilla,Netscape,"5.0 (Macintosh; Intel Mac OS X 10_15_7) AppleWebKit/605.1.15 (KHTML, like Gecko) Version/14.1.2 Safari/605.1.15",xpyriment,legacy,legacy,0,uniform,0,0,0,0,24,24,24,0,0,74,74,74,74,74,0,74,0,39,39,39,39,39,0,39,07-02-22,07-02-22,19:26:10,Mon Mar 07 2022 19:26:10 GMT+0100 (CET),The main experiment item,yes,0,0,C:/Users/rrics/Documents/!!ResearchBMECOGSCI/gnet,0,0,0,prototype2.png,no,mono,no,18,no,black,no,no,768,1186,3.5.6,legacy,xpyriment,osweb,1.3.13,0,space,space,space,space,46148,30030,37791,46148,2,legacy,900,1440,24,900,24,78,0,1440,1646677461391,1024,2,48000,-16,experiment,p3sarr1.png,0,even,MacIntel,124,142544,139526,124,124,669846,671362,664859,144081,664859,124,897045,898552,894062,671386,894062,visual_patterns,0,0,0,yes,1366
undefined,undefined,undefined,undefined,white,no,Mozilla,Netscape,"5.0 (Macintosh; Intel Mac OS X 10_15_7) AppleWebKit/605.1.15 (KHTML, like Gecko) Version/14.1.2 Safari/605.1.15",xpyriment,legacy,legacy,0,uniform,0,0,0,0,24,24,24,0,0,74,74,74,74,74,0,74,0,40,40,40,40,40,0,40,07-02-22,07-02-22,19:26:10,Mon Mar 07 2022 19:26:10 GMT+0100 (CET),The main experiment item,yes,0,0,C:/Users/rrics/Documents/!!ResearchBMECOGSCI/gnet,0,0,0,prototype2.png,no,mono,no,18,no,black,no,no,768,1186,3.5.6,legacy,xpyriment,osweb,1.3.13,0,space,space,space,space,46148,30030,37791,46148,2,legacy,900,1440,24,900,24,78,0,1440,1646677461391,1024,2,48000,-16,experiment,p2sarrsha3.png,0,even,MacIntel,124,142544,139526,124,124,669846,671362,664859,144081,664859,124,901567,903077,898585,671386,898585,visual_patterns,0,0,0,yes,1366
undefined,undefined,undefined,undefined,white,no,Mozilla,Netscape,"5.0 (Macintosh; Intel Mac OS X 10_15_7) AppleWebKit/605.1.15 (KHTML, like Gecko) Version/14.1.2 Safari/605.1.15",xpyriment,legacy,legacy,0,uniform,0,0,0,0,24,24,24,0,0,74,74,74,74,74,0,74,0,41,41,41,41,41,0,41,07-02-22,07-02-22,19:26:10,Mon Mar 07 2022 19:26:10 GMT+0100 (CET),The main experiment item,yes,0,0,C:/Users/rrics/Documents/!!ResearchBMECOGSCI/gnet,0,0,0,prototype2.png,no,mono,no,18,no,black,no,no,768,1186,3.5.6,legacy,xpyriment,osweb,1.3.13,0,space,space,space,space,46148,30030,37791,46148,2,legacy,900,1440,24,900,24,78,0,1440,1646677461391,1024,2,48000,-16,experiment,p9sarr3.png,0,even,MacIntel,124,142544,139526,124,124,669846,671362,664859,144081,664859,124,906093,907602,903111,671386,903111,visual_patterns,0,0,0,yes,1366
undefined,undefined,undefined,undefined,white,no,Mozilla,Netscape,"5.0 (Macintosh; Intel Mac OS X 10_15_7) AppleWebKit/605.1.15 (KHTML, like Gecko) Version/14.1.2 Safari/605.1.15",xpyriment,legacy,legacy,0,uniform,0,0,0,0,24,24,24,0,0,74,74,74,74,74,0,74,0,42,42,42,42,42,0,42,07-02-22,07-02-22,19:26:10,Mon Mar 07 2022 19:26:10 GMT+0100 (CET),The main experiment item,yes,0,0,C:/Users/rrics/Documents/!!ResearchBMECOGSCI/gnet,0,0,0,prototype2.png,no,mono,no,18,no,black,no,no,768,1186,3.5.6,legacy,xpyriment,osweb,1.3.13,0,space,space,space,space,46148,30030,37791,46148,2,legacy,900,1440,24,900,24,78,0,1440,1646677461391,1024,2,48000,-16,experiment,p10sarr4.png,0,even,MacIntel,124,142544,139526,124,124,669846,671362,664859,144081,664859,124,910617,912127,907635,671386,907635,visual_patterns,0,0,0,yes,1366
undefined,undefined,undefined,undefined,white,no,Mozilla,Netscape,"5.0 (Macintosh; Intel Mac OS X 10_15_7) AppleWebKit/605.1.15 (KHTML, like Gecko) Version/14.1.2 Safari/605.1.15",xpyriment,legacy,legacy,0,uniform,0,0,0,0,24,24,24,0,0,74,74,74,74,74,0,74,0,43,43,43,43,43,0,43,07-02-22,07-02-22,19:26:10,Mon Mar 07 2022 19:26:10 GMT+0100 (CET),The main experiment item,yes,0,0,C:/Users/rrics/Documents/!!ResearchBMECOGSCI/gnet,0,0,0,prototype2.png,no,mono,no,18,no,black,no,no,768,1186,3.5.6,legacy,xpyriment,osweb,1.3.13,0,space,space,space,space,46148,30030,37791,46148,2,legacy,900,1440,24,900,24,78,0,1440,1646677461391,1024,2,48000,-16,experiment,p4sarrcol1.png,0,even,MacIntel,124,142544,139526,124,124,669846,671362,664859,144081,664859,124,915143,916653,912160,671386,912160,visual_patterns,0,0,0,yes,1366
undefined,undefined,undefined,undefined,white,no,Mozilla,Netscape,"5.0 (Macintosh; Intel Mac OS X 10_15_7) AppleWebKit/605.1.15 (KHTML, like Gecko) Version/14.1.2 Safari/605.1.15",xpyriment,legacy,legacy,0,uniform,0,0,0,0,24,24,24,0,0,74,74,74,74,74,0,74,0,44,44,44,44,44,0,44,07-02-22,07-02-22,19:26:10,Mon Mar 07 2022 19:26:10 GMT+0100 (CET),The main experiment item,yes,0,0,C:/Users/rrics/Documents/!!ResearchBMECOGSCI/gnet,0,0,0,prototype2.png,no,mono,no,18,no,black,no,no,768,1186,3.5.6,legacy,xpyriment,osweb,1.3.13,0,space,space,space,space,46148,30030,37791,46148,2,legacy,900,1440,24,900,24,78,0,1440,1646677461391,1024,2,48000,-16,experiment,p5sarrshacol4.png,0,even,MacIntel,124,142544,139526,124,124,669846,671362,664859,144081,664859,124,919670,921178,916688,671386,916687,visual_patterns,0,0,0,yes,1366
undefined,undefined,undefined,undefined,white,no,Mozilla,Netscape,"5.0 (Macintosh; Intel Mac OS X 10_15_7) AppleWebKit/605.1.15 (KHTML, like Gecko) Version/14.1.2 Safari/605.1.15",xpyriment,legacy,legacy,0,uniform,0,0,0,0,24,24,24,0,0,74,74,74,74,74,0,74,0,45,45,45,45,45,0,45,07-02-22,07-02-22,19:26:10,Mon Mar 07 2022 19:26:10 GMT+0100 (CET),The main experiment item,yes,0,0,C:/Users/rrics/Documents/!!ResearchBMECOGSCI/gnet,0,0,0,prototype2.png,no,mono,no,18,no,black,no,no,768,1186,3.5.6,legacy,xpyriment,osweb,1.3.13,0,space,space,space,space,46148,30030,37791,46148,2,legacy,900,1440,24,900,24,78,0,1440,1646677461391,1024,2,48000,-16,experiment,p3sarr3.png,0,even,MacIntel,124,142544,139526,124,124,669846,671362,664859,144081,664859,124,924194,925703,921211,671386,921211,visual_patterns,0,0,0,yes,1366
undefined,undefined,undefined,undefined,white,no,Mozilla,Netscape,"5.0 (Macintosh; Intel Mac OS X 10_15_7) AppleWebKit/605.1.15 (KHTML, like Gecko) Version/14.1.2 Safari/605.1.15",xpyriment,legacy,legacy,0,uniform,0,0,0,0,24,24,24,0,0,74,74,74,74,74,0,74,0,46,46,46,46,46,0,46,07-02-22,07-02-22,19:26:10,Mon Mar 07 2022 19:26:10 GMT+0100 (CET),The main experiment item,yes,0,0,C:/Users/rrics/Documents/!!ResearchBMECOGSCI/gnet,0,0,0,prototype2.png,no,mono,no,18,no,black,no,no,768,1186,3.5.6,legacy,xpyriment,osweb,1.3.13,0,space,space,space,space,46148,30030,37791,46148,2,legacy,900,1440,24,900,24,78,0,1440,1646677461391,1024,2,48000,-16,experiment,p2sarr3.png,0,even,MacIntel,124,142544,139526,124,124,669846,671362,664859,144081,664859,124,928718,930227,925732,671386,925732,visual_patterns,0,0,0,yes,1366
undefined,undefined,undefined,undefined,white,no,Mozilla,Netscape,"5.0 (Macintosh; Intel Mac OS X 10_15_7) AppleWebKit/605.1.15 (KHTML, like Gecko) Version/14.1.2 Safari/605.1.15",xpyriment,legacy,legacy,0,uniform,0,0,0,0,24,24,24,0,0,74,74,74,74,74,0,74,0,47,47,47,47,47,0,47,07-02-22,07-02-22,19:26:10,Mon Mar 07 2022 19:26:10 GMT+0100 (CET),The main experiment item,yes,0,0,C:/Users/rrics/Documents/!!ResearchBMECOGSCI/gnet,0,0,0,prototype2.png,no,mono,no,18,no,black,no,no,768,1186,3.5.6,legacy,xpyriment,osweb,1.3.13,0,space,space,space,space,46148,30030,37791,46148,2,legacy,900,1440,24,900,24,78,0,1440,1646677461391,1024,2,48000,-16,experiment,p4sarr2.png,0,even,MacIntel,124,142544,139526,124,124,669846,671362,664859,144081,664859,124,933244,934753,930258,671386,930258,visual_patterns,0,0,0,yes,1366
undefined,undefined,undefined,undefined,white,no,Mozilla,Netscape,"5.0 (Macintosh; Intel Mac OS X 10_15_7) AppleWebKit/605.1.15 (KHTML, like Gecko) Version/14.1.2 Safari/605.1.15",xpyriment,legacy,legacy,0,uniform,0,0,0,0,24,24,24,0,0,74,74,74,74,74,0,74,0,48,48,48,48,48,0,48,07-02-22,07-02-22,19:26:10,Mon Mar 07 2022 19:26:10 GMT+0100 (CET),The main experiment item,yes,0,0,C:/Users/rrics/Documents/!!ResearchBMECOGSCI/gnet,0,0,0,prototype2.png,no,mono,no,18,no,black,no,no,768,1186,3.5.6,legacy,xpyriment,osweb,1.3.13,0,space,space,space,space,46148,30030,37791,46148,2,legacy,900,1440,24,900,24,78,0,1440,1646677461391,1024,2,48000,-16,experiment,p2sarrshacol3.png,0,even,MacIntel,124,142544,139526,124,124,669846,671362,664859,144081,664859,124,937769,939278,934788,671386,934788,visual_patterns,0,0,0,yes,1366
undefined,undefined,undefined,undefined,white,no,Mozilla,Netscape,"5.0 (Macintosh; Intel Mac OS X 10_15_7) AppleWebKit/605.1.15 (KHTML, like Gecko) Version/14.1.2 Safari/605.1.15",xpyriment,legacy,legacy,0,uniform,0,0,0,0,24,24,24,0,0,74,74,74,74,74,0,74,0,49,49,49,49,49,0,49,07-02-22,07-02-22,19:26:10,Mon Mar 07 2022 19:26:10 GMT+0100 (CET),The main experiment item,yes,0,0,C:/Users/rrics/Documents/!!ResearchBMECOGSCI/gnet,0,0,0,prototype2.png,no,mono,no,18,no,black,no,no,768,1186,3.5.6,legacy,xpyriment,osweb,1.3.13,0,space,space,space,space,46148,30030,37791,46148,2,legacy,900,1440,24,900,24,78,0,1440,1646677461391,1024,2,48000,-16,experiment,p2sarrcol2.png,0,even,MacIntel,124,142544,139526,124,124,669846,671362,664859,144081,664859,124,942296,943803,939311,671386,939311,visual_patterns,0,0,0,yes,1366
