acc,accuracy,average_response_time,avg_rt,background,bidi,browser_codename,browser_name,browser_version,canvas_backend,clock_backend,color_backend,compensation,coordinates,count_end,count_experiment,count_osweb,count_prestudy,count_prestudy_isi,count_prestudy_sequence,count_prestudy_stimpres,count_start,count_study,count_study_coroutines,count_study_isi,count_study_logger,count_study_response,count_study_sequence,count_study_start,count_study_stimpres,count_test,count_test_coroutines,count_test_isi,count_test_logger,count_test_response,count_test_sequence,count_test_start,count_test_stimpres,date_startdate,date_startdateUTC,date_starttime,datetime,description,disable_garbage_collection,experiment_debug,experiment_parameters,experiment_path,experiment_pilot,experiment_taskname,experiment_taskversion,fampict,font_bold,font_family,font_italic,font_size,font_underline,foreground,form_clicks,fullscreen,height,jatosStudyResultId,jatosVersion,keyboard_backend,mouse_backend,opensesame_codename,opensesame_version,repeat_cycle,response,response_start,response_study_start,response_test_start,response_time,response_time_start,response_time_study_start,response_time_test_start,round_decimals,sampler_backend,screen_availableHeight,screen_availableWidth,screen_colorDepth,screen_height,screen_pixelDepth,screen_screenX,screen_screenY,screen_width,sessionid,sound_buf_size,sound_channels,sound_freq,sound_sample_size,start,stim,subject_nr,subject_parity,system_os,time_prestudy,time_prestudy_isi,time_prestudy_stimpres,time_start,time_study,time_study_isi,time_study_logger,time_study_response,time_study_start,time_study_stimpres,time_test,time_test_isi,time_test_logger,time_test_response,time_test_start,time_test_stimpres,title,total_correct,total_response_time,total_responses,uniform_coordinates,width
undefined,undefined,undefined,undefined,white,no,Mozilla,Netscape,"5.0 (Windows NT 10.0; Win64; x64) AppleWebKit/537.36 (KHTML, like Gecko) Chrome/98.0.4758.102 Safari/537.36",xpyriment,legacy,legacy,0,uniform,0,0,0,0,24,24,24,0,0,0,0,0,0,0,0,0,0,,,,,,0,,07-02-22,07-02-22,20:40:30,Mon Mar 07 2022 20:40:30 GMT+0100 (közép-európai téli idő),The main experiment item,yes,0,0,C:/Users/rrics/Documents/!!ResearchBMECOGSCI/gnet,0,0,0,prototype2.png,no,mono,no,18,no,black,no,no,768,1187,3.5.6,legacy,xpyriment,osweb,1.3.13,0,space,space,space,,22565,24835,22565,,2,legacy,824,1536,24,864,24,-1,-1,1536,1646682027377,1024,2,48000,-16,experiment,p6sarr1.png,1,odd,Win32,73,136672,133668,73,73,165805,167322,160807,138210,160806,73,,,,,,visual_patterns,0,0,0,yes,1366
undefined,undefined,undefined,undefined,white,no,Mozilla,Netscape,"5.0 (Windows NT 10.0; Win64; x64) AppleWebKit/537.36 (KHTML, like Gecko) Chrome/98.0.4758.102 Safari/537.36",xpyriment,legacy,legacy,0,uniform,0,0,0,0,24,24,24,0,0,1,1,1,1,1,0,1,0,,,,,,0,,07-02-22,07-02-22,20:40:30,Mon Mar 07 2022 20:40:30 GMT+0100 (közép-európai téli idő),The main experiment item,yes,0,0,C:/Users/rrics/Documents/!!ResearchBMECOGSCI/gnet,0,0,0,prototype2.png,no,mono,no,18,no,black,no,no,768,1187,3.5.6,legacy,xpyriment,osweb,1.3.13,0,space,space,space,,22565,24835,22565,,2,legacy,824,1536,24,864,24,-1,-1,1536,1646682027377,1024,2,48000,-16,experiment,prototype3.png,1,odd,Win32,73,136672,133668,73,73,172337,173838,167332,138210,167332,73,,,,,,visual_patterns,0,0,0,yes,1366
undefined,undefined,undefined,undefined,white,no,Mozilla,Netscape,"5.0 (Windows NT 10.0; Win64; x64) AppleWebKit/537.36 (KHTML, like Gecko) Chrome/98.0.4758.102 Safari/537.36",xpyriment,legacy,legacy,0,uniform,0,0,0,0,24,24,24,0,0,2,2,2,2,2,0,2,0,,,,,,0,,07-02-22,07-02-22,20:40:30,Mon Mar 07 2022 20:40:30 GMT+0100 (közép-európai téli idő),The main experiment item,yes,0,0,C:/Users/rrics/Documents/!!ResearchBMECOGSCI/gnet,0,0,0,prototype2.png,no,mono,no,18,no,black,no,no,768,1187,3.5.6,legacy,xpyriment,osweb,1.3.13,0,space,space,space,,22565,24835,22565,,2,legacy,824,1536,24,864,24,-1,-1,1536,1646682027377,1024,2,48000,-16,experiment,p3sarr1.png,1,odd,Win32,73,136672,133668,73,73,178884,180389,173882,138210,173882,73,,,,,,visual_patterns,0,0,0,yes,1366
undefined,undefined,undefined,undefined,white,no,Mozilla,Netscape,"5.0 (Windows NT 10.0; Win64; x64) AppleWebKit/537.36 (KHTML, like Gecko) Chrome/98.0.4758.102 Safari/537.36",xpyriment,legacy,legacy,0,uniform,0,0,0,0,24,24,24,0,0,3,3,3,3,3,0,3,0,,,,,,0,,07-02-22,07-02-22,20:40:30,Mon Mar 07 2022 20:40:30 GMT+0100 (közép-európai téli idő),The main experiment item,yes,0,0,C:/Users/rrics/Documents/!!ResearchBMECOGSCI/gnet,0,0,0,prototype2.png,no,mono,no,18,no,black,no,no,768,1187,3.5.6,legacy,xpyriment,osweb,1.3.13,0,space,space,space,,22565,24835,22565,,2,legacy,824,1536,24,864,24,-1,-1,1536,1646682027377,1024,2,48000,-16,experiment,p9sarr2.png,1,odd,Win32,73,136672,133668,73,73,185405,186906,180416,138210,180416,73,,,,,,visual_patterns,0,0,0,yes,1366
undefined,undefined,undefined,undefined,white,no,Mozilla,Netscape,"5.0 (Windows NT 10.0; Win64; x64) AppleWebKit/537.36 (KHTML, like Gecko) Chrome/98.0.4758.102 Safari/537.36",xpyriment,legacy,legacy,0,uniform,0,0,0,0,24,24,24,0,0,4,4,4,4,4,0,4,0,,,,,,0,,07-02-22,07-02-22,20:40:30,Mon Mar 07 2022 20:40:30 GMT+0100 (közép-európai téli idő),The main experiment item,yes,0,0,C:/Users/rrics/Documents/!!ResearchBMECOGSCI/gnet,0,0,0,prototype2.png,no,mono,no,18,no,black,no,no,768,1187,3.5.6,legacy,xpyriment,osweb,1.3.13,0,space,space,space,,22565,24835,22565,,2,legacy,824,1536,24,864,24,-1,-1,1536,1646682027377,1024,2,48000,-16,experiment,p4sarr2.png,1,odd,Win32,73,136672,133668,73,73,191918,193423,186933,138210,186932,73,,,,,,visual_patterns,0,0,0,yes,1366
undefined,undefined,undefined,undefined,white,no,Mozilla,Netscape,"5.0 (Windows NT 10.0; Win64; x64) AppleWebKit/537.36 (KHTML, like Gecko) Chrome/98.0.4758.102 Safari/537.36",xpyriment,legacy,legacy,0,uniform,0,0,0,0,24,24,24,0,0,5,5,5,5,5,0,5,0,,,,,,0,,07-02-22,07-02-22,20:40:30,Mon Mar 07 2022 20:40:30 GMT+0100 (közép-európai téli idő),The main experiment item,yes,0,0,C:/Users/rrics/Documents/!!ResearchBMECOGSCI/gnet,0,0,0,prototype2.png,no,mono,no,18,no,black,no,no,768,1187,3.5.6,legacy,xpyriment,osweb,1.3.13,0,space,space,space,,22565,24835,22565,,2,legacy,824,1536,24,864,24,-1,-1,1536,1646682027377,1024,2,48000,-16,experiment,p4sarrshacol2.png,1,odd,Win32,73,136672,133668,73,73,198437,199940,193437,138210,193437,73,,,,,,visual_patterns,0,0,0,yes,1366
undefined,undefined,undefined,undefined,white,no,Mozilla,Netscape,"5.0 (Windows NT 10.0; Win64; x64) AppleWebKit/537.36 (KHTML, like Gecko) Chrome/98.0.4758.102 Safari/537.36",xpyriment,legacy,legacy,0,uniform,0,0,0,0,24,24,24,0,0,6,6,6,6,6,0,6,0,,,,,,0,,07-02-22,07-02-22,20:40:30,Mon Mar 07 2022 20:40:30 GMT+0100 (közép-európai téli idő),The main experiment item,yes,0,0,C:/Users/rrics/Documents/!!ResearchBMECOGSCI/gnet,0,0,0,prototype2.png,no,mono,no,18,no,black,no,no,768,1187,3.5.6,legacy,xpyriment,osweb,1.3.13,0,space,space,space,,22565,24835,22565,,2,legacy,824,1536,24,864,24,-1,-1,1536,1646682027377,1024,2,48000,-16,experiment,p5sarrsha2.png,1,odd,Win32,73,136672,133668,73,73,204959,206473,199953,138210,199953,73,,,,,,visual_patterns,0,0,0,yes,1366
undefined,undefined,undefined,undefined,white,no,Mozilla,Netscape,"5.0 (Windows NT 10.0; Win64; x64) AppleWebKit/537.36 (KHTML, like Gecko) Chrome/98.0.4758.102 Safari/537.36",xpyriment,legacy,legacy,0,uniform,0,0,0,0,24,24,24,0,0,7,7,7,7,7,0,7,0,,,,,,0,,07-02-22,07-02-22,20:40:30,Mon Mar 07 2022 20:40:30 GMT+0100 (közép-európai téli idő),The main experiment item,yes,0,0,C:/Users/rrics/Documents/!!ResearchBMECOGSCI/gnet,0,0,0,prototype2.png,no,mono,no,18,no,black,no,no,768,1187,3.5.6,legacy,xpyriment,osweb,1.3.13,0,space,space,space,,22565,24835,22565,,2,legacy,824,1536,24,864,24,-1,-1,1536,1646682027377,1024,2,48000,-16,experiment,p2sarr1.png,1,odd,Win32,73,136672,133668,73,73,211488,212990,206501,138210,206501,73,,,,,,visual_patterns,0,0,0,yes,1366
undefined,undefined,undefined,undefined,white,no,Mozilla,Netscape,"5.0 (Windows NT 10.0; Win64; x64) AppleWebKit/537.36 (KHTML, like Gecko) Chrome/98.0.4758.102 Safari/537.36",xpyriment,legacy,legacy,0,uniform,0,0,0,0,24,24,24,0,0,8,8,8,8,8,0,8,0,,,,,,0,,07-02-22,07-02-22,20:40:30,Mon Mar 07 2022 20:40:30 GMT+0100 (közép-európai téli idő),The main experiment item,yes,0,0,C:/Users/rrics/Documents/!!ResearchBMECOGSCI/gnet,0,0,0,prototype2.png,no,mono,no,18,no,black,no,no,768,1187,3.5.6,legacy,xpyriment,osweb,1.3.13,0,space,space,space,,22565,24835,22565,,2,legacy,824,1536,24,864,24,-1,-1,1536,1646682027377,1024,2,48000,-16,experiment,prototype4.png,1,odd,Win32,73,136672,133668,73,73,218005,219507,213002,138210,213002,73,,,,,,visual_patterns,0,0,0,yes,1366
undefined,undefined,undefined,undefined,white,no,Mozilla,Netscape,"5.0 (Windows NT 10.0; Win64; x64) AppleWebKit/537.36 (KHTML, like Gecko) Chrome/98.0.4758.102 Safari/537.36",xpyriment,legacy,legacy,0,uniform,0,0,0,0,24,24,24,0,0,9,9,9,9,9,0,9,0,,,,,,0,,07-02-22,07-02-22,20:40:30,Mon Mar 07 2022 20:40:30 GMT+0100 (közép-európai téli idő),The main experiment item,yes,0,0,C:/Users/rrics/Documents/!!ResearchBMECOGSCI/gnet,0,0,0,prototype2.png,no,mono,no,18,no,black,no,no,768,1187,3.5.6,legacy,xpyriment,osweb,1.3.13,0,space,space,space,,22565,24835,22565,,2,legacy,824,1536,24,864,24,-1,-1,1536,1646682027377,1024,2,48000,-16,experiment,p5sarrsha1.png,1,odd,Win32,73,136672,133668,73,73,224524,226041,219524,138210,219524,73,,,,,,visual_patterns,0,0,0,yes,1366
undefined,undefined,undefined,undefined,white,no,Mozilla,Netscape,"5.0 (Windows NT 10.0; Win64; x64) AppleWebKit/537.36 (KHTML, like Gecko) Chrome/98.0.4758.102 Safari/537.36",xpyriment,legacy,legacy,0,uniform,0,0,0,0,24,24,24,0,0,10,10,10,10,10,0,10,0,,,,,,0,,07-02-22,07-02-22,20:40:30,Mon Mar 07 2022 20:40:30 GMT+0100 (közép-európai téli idő),The main experiment item,yes,0,0,C:/Users/rrics/Documents/!!ResearchBMECOGSCI/gnet,0,0,0,prototype2.png,no,mono,no,18,no,black,no,no,768,1187,3.5.6,legacy,xpyriment,osweb,1.3.13,0,space,space,space,,22565,24835,22565,,2,legacy,824,1536,24,864,24,-1,-1,1536,1646682027377,1024,2,48000,-16,experiment,p5sarrcol1.png,1,odd,Win32,73,136672,133668,73,73,231055,232558,226055,138210,226055,73,,,,,,visual_patterns,0,0,0,yes,1366
undefined,undefined,undefined,undefined,white,no,Mozilla,Netscape,"5.0 (Windows NT 10.0; Win64; x64) AppleWebKit/537.36 (KHTML, like Gecko) Chrome/98.0.4758.102 Safari/537.36",xpyriment,legacy,legacy,0,uniform,0,0,0,0,24,24,24,0,0,11,11,11,11,11,0,11,0,,,,,,0,,07-02-22,07-02-22,20:40:30,Mon Mar 07 2022 20:40:30 GMT+0100 (közép-európai téli idő),The main experiment item,yes,0,0,C:/Users/rrics/Documents/!!ResearchBMECOGSCI/gnet,0,0,0,prototype2.png,no,mono,no,18,no,black,no,no,768,1187,3.5.6,legacy,xpyriment,osweb,1.3.13,0,space,space,space,,22565,24835,22565,,2,legacy,824,1536,24,864,24,-1,-1,1536,1646682027377,1024,2,48000,-16,experiment,p8sarr2.png,1,odd,Win32,73,136672,133668,73,73,237569,239075,232574,138210,232574,73,,,,,,visual_patterns,0,0,0,yes,1366
undefined,undefined,undefined,undefined,white,no,Mozilla,Netscape,"5.0 (Windows NT 10.0; Win64; x64) AppleWebKit/537.36 (KHTML, like Gecko) Chrome/98.0.4758.102 Safari/537.36",xpyriment,legacy,legacy,0,uniform,0,0,0,0,24,24,24,0,0,12,12,12,12,12,0,12,0,,,,,,0,,07-02-22,07-02-22,20:40:30,Mon Mar 07 2022 20:40:30 GMT+0100 (közép-európai téli idő),The main experiment item,yes,0,0,C:/Users/rrics/Documents/!!ResearchBMECOGSCI/gnet,0,0,0,prototype2.png,no,mono,no,18,no,black,no,no,768,1187,3.5.6,legacy,xpyriment,osweb,1.3.13,0,space,space,space,,22565,24835,22565,,2,legacy,824,1536,24,864,24,-1,-1,1536,1646682027377,1024,2,48000,-16,experiment,p5sarrshacol2.png,1,odd,Win32,73,136672,133668,73,73,244113,245625,239113,138210,239113,73,,,,,,visual_patterns,0,0,0,yes,1366
undefined,undefined,undefined,undefined,white,no,Mozilla,Netscape,"5.0 (Windows NT 10.0; Win64; x64) AppleWebKit/537.36 (KHTML, like Gecko) Chrome/98.0.4758.102 Safari/537.36",xpyriment,legacy,legacy,0,uniform,0,0,0,0,24,24,24,0,0,13,13,13,13,13,0,13,0,,,,,,0,,07-02-22,07-02-22,20:40:30,Mon Mar 07 2022 20:40:30 GMT+0100 (közép-európai téli idő),The main experiment item,yes,0,0,C:/Users/rrics/Documents/!!ResearchBMECOGSCI/gnet,0,0,0,prototype2.png,no,mono,no,18,no,black,no,no,768,1187,3.5.6,legacy,xpyriment,osweb,1.3.13,0,space,space,space,,22565,24835,22565,,2,legacy,824,1536,24,864,24,-1,-1,1536,1646682027377,1024,2,48000,-16,experiment,p8sarr1.png,1,odd,Win32,73,136672,133668,73,73,250642,252159,245639,138210,245639,73,,,,,,visual_patterns,0,0,0,yes,1366
undefined,undefined,undefined,undefined,white,no,Mozilla,Netscape,"5.0 (Windows NT 10.0; Win64; x64) AppleWebKit/537.36 (KHTML, like Gecko) Chrome/98.0.4758.102 Safari/537.36",xpyriment,legacy,legacy,0,uniform,0,0,0,0,24,24,24,0,0,14,14,14,14,14,0,14,0,,,,,,0,,07-02-22,07-02-22,20:40:30,Mon Mar 07 2022 20:40:30 GMT+0100 (közép-európai téli idő),The main experiment item,yes,0,0,C:/Users/rrics/Documents/!!ResearchBMECOGSCI/gnet,0,0,0,prototype2.png,no,mono,no,18,no,black,no,no,768,1187,3.5.6,legacy,xpyriment,osweb,1.3.13,0,space,space,space,,22565,24835,22565,,2,legacy,824,1536,24,864,24,-1,-1,1536,1646682027377,1024,2,48000,-16,experiment,p3sarrcol1.png,1,odd,Win32,73,136672,133668,73,73,257177,258693,252181,138210,252181,73,,,,,,visual_patterns,0,0,0,yes,1366
undefined,undefined,undefined,undefined,white,no,Mozilla,Netscape,"5.0 (Windows NT 10.0; Win64; x64) AppleWebKit/537.36 (KHTML, like Gecko) Chrome/98.0.4758.102 Safari/537.36",xpyriment,legacy,legacy,0,uniform,0,0,0,0,24,24,24,0,0,15,15,15,15,15,0,15,0,,,,,,0,,07-02-22,07-02-22,20:40:30,Mon Mar 07 2022 20:40:30 GMT+0100 (közép-európai téli idő),The main experiment item,yes,0,0,C:/Users/rrics/Documents/!!ResearchBMECOGSCI/gnet,0,0,0,prototype2.png,no,mono,no,18,no,black,no,no,768,1187,3.5.6,legacy,xpyriment,osweb,1.3.13,0,space,space,space,,22565,24835,22565,,2,legacy,824,1536,24,864,24,-1,-1,1536,1646682027377,1024,2,48000,-16,experiment,prototype1.png,1,odd,Win32,73,136672,133668,73,73,263704,265210,258702,138210,258702,73,,,,,,visual_patterns,0,0,0,yes,1366
undefined,undefined,undefined,undefined,white,no,Mozilla,Netscape,"5.0 (Windows NT 10.0; Win64; x64) AppleWebKit/537.36 (KHTML, like Gecko) Chrome/98.0.4758.102 Safari/537.36",xpyriment,legacy,legacy,0,uniform,0,0,0,0,24,24,24,0,0,16,16,16,16,16,0,16,0,,,,,,0,,07-02-22,07-02-22,20:40:30,Mon Mar 07 2022 20:40:30 GMT+0100 (közép-európai téli idő),The main experiment item,yes,0,0,C:/Users/rrics/Documents/!!ResearchBMECOGSCI/gnet,0,0,0,prototype2.png,no,mono,no,18,no,black,no,no,768,1187,3.5.6,legacy,xpyriment,osweb,1.3.13,0,space,space,space,,22565,24835,22565,,2,legacy,824,1536,24,864,24,-1,-1,1536,1646682027377,1024,2,48000,-16,experiment,p2sarr2.png,1,odd,Win32,73,136672,133668,73,73,270226,271727,265232,138210,265232,73,,,,,,visual_patterns,0,0,0,yes,1366
undefined,undefined,undefined,undefined,white,no,Mozilla,Netscape,"5.0 (Windows NT 10.0; Win64; x64) AppleWebKit/537.36 (KHTML, like Gecko) Chrome/98.0.4758.102 Safari/537.36",xpyriment,legacy,legacy,0,uniform,0,0,0,0,24,24,24,0,0,17,17,17,17,17,0,17,0,,,,,,0,,07-02-22,07-02-22,20:40:30,Mon Mar 07 2022 20:40:30 GMT+0100 (közép-európai téli idő),The main experiment item,yes,0,0,C:/Users/rrics/Documents/!!ResearchBMECOGSCI/gnet,0,0,0,prototype2.png,no,mono,no,18,no,black,no,no,768,1187,3.5.6,legacy,xpyriment,osweb,1.3.13,0,space,space,space,,22565,24835,22565,,2,legacy,824,1536,24,864,24,-1,-1,1536,1646682027377,1024,2,48000,-16,experiment,p3sarrsha2.png,1,odd,Win32,73,136672,133668,73,73,276767,278277,271772,138210,271772,73,,,,,,visual_patterns,0,0,0,yes,1366
undefined,undefined,undefined,undefined,white,no,Mozilla,Netscape,"5.0 (Windows NT 10.0; Win64; x64) AppleWebKit/537.36 (KHTML, like Gecko) Chrome/98.0.4758.102 Safari/537.36",xpyriment,legacy,legacy,0,uniform,0,0,0,0,24,24,24,0,0,18,18,18,18,18,0,18,0,,,,,,0,,07-02-22,07-02-22,20:40:30,Mon Mar 07 2022 20:40:30 GMT+0100 (közép-európai téli idő),The main experiment item,yes,0,0,C:/Users/rrics/Documents/!!ResearchBMECOGSCI/gnet,0,0,0,prototype2.png,no,mono,no,18,no,black,no,no,768,1187,3.5.6,legacy,xpyriment,osweb,1.3.13,0,space,space,space,,22565,24835,22565,,2,legacy,824,1536,24,864,24,-1,-1,1536,1646682027377,1024,2,48000,-16,experiment,prototype4.png,1,odd,Win32,73,136672,133668,73,73,283295,284811,278290,138210,278290,73,,,,,,visual_patterns,0,0,0,yes,1366
undefined,undefined,undefined,undefined,white,no,Mozilla,Netscape,"5.0 (Windows NT 10.0; Win64; x64) AppleWebKit/537.36 (KHTML, like Gecko) Chrome/98.0.4758.102 Safari/537.36",xpyriment,legacy,legacy,0,uniform,0,0,0,0,24,24,24,0,0,19,19,19,19,19,0,19,0,,,,,,0,,07-02-22,07-02-22,20:40:30,Mon Mar 07 2022 20:40:30 GMT+0100 (közép-európai téli idő),The main experiment item,yes,0,0,C:/Users/rrics/Documents/!!ResearchBMECOGSCI/gnet,0,0,0,prototype2.png,no,mono,no,18,no,black,no,no,768,1187,3.5.6,legacy,xpyriment,osweb,1.3.13,0,space,space,space,,22565,24835,22565,,2,legacy,824,1536,24,864,24,-1,-1,1536,1646682027377,1024,2,48000,-16,experiment,p3sarrsha1.png,1,odd,Win32,73,136672,133668,73,73,289819,291328,284824,138210,284824,73,,,,,,visual_patterns,0,0,0,yes,1366
undefined,undefined,undefined,undefined,white,no,Mozilla,Netscape,"5.0 (Windows NT 10.0; Win64; x64) AppleWebKit/537.36 (KHTML, like Gecko) Chrome/98.0.4758.102 Safari/537.36",xpyriment,legacy,legacy,0,uniform,0,0,0,0,24,24,24,0,0,20,20,20,20,20,0,20,0,,,,,,0,,07-02-22,07-02-22,20:40:30,Mon Mar 07 2022 20:40:30 GMT+0100 (közép-európai téli idő),The main experiment item,yes,0,0,C:/Users/rrics/Documents/!!ResearchBMECOGSCI/gnet,0,0,0,prototype2.png,no,mono,no,18,no,black,no,no,768,1187,3.5.6,legacy,xpyriment,osweb,1.3.13,0,space,space,space,,22565,24835,22565,,2,legacy,824,1536,24,864,24,-1,-1,1536,1646682027377,1024,2,48000,-16,experiment,prototype2.png,1,odd,Win32,73,136672,133668,73,73,296342,297845,291340,138210,291340,73,,,,,,visual_patterns,0,0,0,yes,1366
undefined,undefined,undefined,undefined,white,no,Mozilla,Netscape,"5.0 (Windows NT 10.0; Win64; x64) AppleWebKit/537.36 (KHTML, like Gecko) Chrome/98.0.4758.102 Safari/537.36",xpyriment,legacy,legacy,0,uniform,0,0,0,0,24,24,24,0,0,21,21,21,21,21,0,21,0,,,,,,0,,07-02-22,07-02-22,20:40:30,Mon Mar 07 2022 20:40:30 GMT+0100 (közép-európai téli idő),The main experiment item,yes,0,0,C:/Users/rrics/Documents/!!ResearchBMECOGSCI/gnet,0,0,0,prototype2.png,no,mono,no,18,no,black,no,no,768,1187,3.5.6,legacy,xpyriment,osweb,1.3.13,0,space,space,space,,22565,24835,22565,,2,legacy,824,1536,24,864,24,-1,-1,1536,1646682027377,1024,2,48000,-16,experiment,p4sarrcol2.png,1,odd,Win32,73,136672,133668,73,73,302861,304362,297872,138210,297872,73,,,,,,visual_patterns,0,0,0,yes,1366
undefined,undefined,undefined,undefined,white,no,Mozilla,Netscape,"5.0 (Windows NT 10.0; Win64; x64) AppleWebKit/537.36 (KHTML, like Gecko) Chrome/98.0.4758.102 Safari/537.36",xpyriment,legacy,legacy,0,uniform,0,0,0,0,24,24,24,0,0,22,22,22,22,22,0,22,0,,,,,,0,,07-02-22,07-02-22,20:40:30,Mon Mar 07 2022 20:40:30 GMT+0100 (közép-európai téli idő),The main experiment item,yes,0,0,C:/Users/rrics/Documents/!!ResearchBMECOGSCI/gnet,0,0,0,prototype2.png,no,mono,no,18,no,black,no,no,768,1187,3.5.6,legacy,xpyriment,osweb,1.3.13,0,space,space,space,,22565,24835,22565,,2,legacy,824,1536,24,864,24,-1,-1,1536,1646682027377,1024,2,48000,-16,experiment,p5sarrshacol1.png,1,odd,Win32,73,136672,133668,73,73,309410,310912,304410,138210,304410,73,,,,,,visual_patterns,0,0,0,yes,1366
undefined,undefined,undefined,undefined,white,no,Mozilla,Netscape,"5.0 (Windows NT 10.0; Win64; x64) AppleWebKit/537.36 (KHTML, like Gecko) Chrome/98.0.4758.102 Safari/537.36",xpyriment,legacy,legacy,0,uniform,0,0,0,0,24,24,24,0,0,23,23,23,23,23,0,23,0,,,,,,0,,07-02-22,07-02-22,20:40:30,Mon Mar 07 2022 20:40:30 GMT+0100 (közép-európai téli idő),The main experiment item,yes,0,0,C:/Users/rrics/Documents/!!ResearchBMECOGSCI/gnet,0,0,0,prototype2.png,no,mono,no,18,no,black,no,no,768,1187,3.5.6,legacy,xpyriment,osweb,1.3.13,0,space,space,space,,22565,24835,22565,,2,legacy,824,1536,24,864,24,-1,-1,1536,1646682027377,1024,2,48000,-16,experiment,prototype2.png,1,odd,Win32,73,136672,133668,73,73,315928,317437,310923,138210,310922,73,,,,,,visual_patterns,0,0,0,yes,1366
undefined,undefined,undefined,undefined,white,no,Mozilla,Netscape,"5.0 (Windows NT 10.0; Win64; x64) AppleWebKit/537.36 (KHTML, like Gecko) Chrome/98.0.4758.102 Safari/537.36",xpyriment,legacy,legacy,0,uniform,0,0,0,0,24,24,24,0,0,24,24,24,24,24,0,24,0,,,,,,0,,07-02-22,07-02-22,20:40:30,Mon Mar 07 2022 20:40:30 GMT+0100 (közép-európai téli idő),The main experiment item,yes,0,0,C:/Users/rrics/Documents/!!ResearchBMECOGSCI/gnet,0,0,0,prototype2.png,no,mono,no,18,no,black,no,no,768,1187,3.5.6,legacy,xpyriment,osweb,1.3.13,0,space,space,space,,22565,24835,22565,,2,legacy,824,1536,24,864,24,-1,-1,1536,1646682027377,1024,2,48000,-16,experiment,p4sarrsha2.png,1,odd,Win32,73,136672,133668,73,73,322453,323963,317450,138210,317450,73,,,,,,visual_patterns,0,0,0,yes,1366
undefined,undefined,undefined,undefined,white,no,Mozilla,Netscape,"5.0 (Windows NT 10.0; Win64; x64) AppleWebKit/537.36 (KHTML, like Gecko) Chrome/98.0.4758.102 Safari/537.36",xpyriment,legacy,legacy,0,uniform,0,0,0,0,24,24,24,0,0,25,25,25,25,25,0,25,0,,,,,,0,,07-02-22,07-02-22,20:40:30,Mon Mar 07 2022 20:40:30 GMT+0100 (közép-európai téli idő),The main experiment item,yes,0,0,C:/Users/rrics/Documents/!!ResearchBMECOGSCI/gnet,0,0,0,prototype2.png,no,mono,no,18,no,black,no,no,768,1187,3.5.6,legacy,xpyriment,osweb,1.3.13,0,space,space,space,,22565,24835,22565,,2,legacy,824,1536,24,864,24,-1,-1,1536,1646682027377,1024,2,48000,-16,experiment,p9sarr1.png,1,odd,Win32,73,136672,133668,73,73,328975,330480,323975,138210,323975,73,,,,,,visual_patterns,0,0,0,yes,1366
undefined,undefined,undefined,undefined,white,no,Mozilla,Netscape,"5.0 (Windows NT 10.0; Win64; x64) AppleWebKit/537.36 (KHTML, like Gecko) Chrome/98.0.4758.102 Safari/537.36",xpyriment,legacy,legacy,0,uniform,0,0,0,0,24,24,24,0,0,26,26,26,26,26,0,26,0,,,,,,0,,07-02-22,07-02-22,20:40:30,Mon Mar 07 2022 20:40:30 GMT+0100 (közép-európai téli idő),The main experiment item,yes,0,0,C:/Users/rrics/Documents/!!ResearchBMECOGSCI/gnet,0,0,0,prototype2.png,no,mono,no,18,no,black,no,no,768,1187,3.5.6,legacy,xpyriment,osweb,1.3.13,0,space,space,space,,22565,24835,22565,,2,legacy,824,1536,24,864,24,-1,-1,1536,1646682027377,1024,2,48000,-16,experiment,prototype1.png,1,odd,Win32,73,136672,133668,73,73,335494,336997,330505,138210,330504,73,,,,,,visual_patterns,0,0,0,yes,1366
undefined,undefined,undefined,undefined,white,no,Mozilla,Netscape,"5.0 (Windows NT 10.0; Win64; x64) AppleWebKit/537.36 (KHTML, like Gecko) Chrome/98.0.4758.102 Safari/537.36",xpyriment,legacy,legacy,0,uniform,0,0,0,0,24,24,24,0,0,27,27,27,27,27,0,27,0,,,,,,0,,07-02-22,07-02-22,20:40:30,Mon Mar 07 2022 20:40:30 GMT+0100 (közép-európai téli idő),The main experiment item,yes,0,0,C:/Users/rrics/Documents/!!ResearchBMECOGSCI/gnet,0,0,0,prototype2.png,no,mono,no,18,no,black,no,no,768,1187,3.5.6,legacy,xpyriment,osweb,1.3.13,0,space,space,space,,22565,24835,22565,,2,legacy,824,1536,24,864,24,-1,-1,1536,1646682027377,1024,2,48000,-16,experiment,p4sarrcol1.png,1,odd,Win32,73,136672,133668,73,73,342007,343514,337023,138210,337023,73,,,,,,visual_patterns,0,0,0,yes,1366
undefined,undefined,undefined,undefined,white,no,Mozilla,Netscape,"5.0 (Windows NT 10.0; Win64; x64) AppleWebKit/537.36 (KHTML, like Gecko) Chrome/98.0.4758.102 Safari/537.36",xpyriment,legacy,legacy,0,uniform,0,0,0,0,24,24,24,0,0,28,28,28,28,28,0,28,0,,,,,,0,,07-02-22,07-02-22,20:40:30,Mon Mar 07 2022 20:40:30 GMT+0100 (közép-európai téli idő),The main experiment item,yes,0,0,C:/Users/rrics/Documents/!!ResearchBMECOGSCI/gnet,0,0,0,prototype2.png,no,mono,no,18,no,black,no,no,768,1187,3.5.6,legacy,xpyriment,osweb,1.3.13,0,space,space,space,,22565,24835,22565,,2,legacy,824,1536,24,864,24,-1,-1,1536,1646682027377,1024,2,48000,-16,experiment,prototype4.png,1,odd,Win32,73,136672,133668,73,73,348529,350031,343545,138210,343545,73,,,,,,visual_patterns,0,0,0,yes,1366
undefined,undefined,undefined,undefined,white,no,Mozilla,Netscape,"5.0 (Windows NT 10.0; Win64; x64) AppleWebKit/537.36 (KHTML, like Gecko) Chrome/98.0.4758.102 Safari/537.36",xpyriment,legacy,legacy,0,uniform,0,0,0,0,24,24,24,0,0,29,29,29,29,29,0,29,0,,,,,,0,,07-02-22,07-02-22,20:40:30,Mon Mar 07 2022 20:40:30 GMT+0100 (közép-európai téli idő),The main experiment item,yes,0,0,C:/Users/rrics/Documents/!!ResearchBMECOGSCI/gnet,0,0,0,prototype2.png,no,mono,no,18,no,black,no,no,768,1187,3.5.6,legacy,xpyriment,osweb,1.3.13,0,space,space,space,,22565,24835,22565,,2,legacy,824,1536,24,864,24,-1,-1,1536,1646682027377,1024,2,48000,-16,experiment,prototype5.png,1,odd,Win32,73,136672,133668,73,73,355048,356582,350044,138210,350044,73,,,,,,visual_patterns,0,0,0,yes,1366
undefined,undefined,undefined,undefined,white,no,Mozilla,Netscape,"5.0 (Windows NT 10.0; Win64; x64) AppleWebKit/537.36 (KHTML, like Gecko) Chrome/98.0.4758.102 Safari/537.36",xpyriment,legacy,legacy,0,uniform,0,0,0,0,24,24,24,0,0,30,30,30,30,30,0,30,0,,,,,,0,,07-02-22,07-02-22,20:40:30,Mon Mar 07 2022 20:40:30 GMT+0100 (közép-európai téli idő),The main experiment item,yes,0,0,C:/Users/rrics/Documents/!!ResearchBMECOGSCI/gnet,0,0,0,prototype2.png,no,mono,no,18,no,black,no,no,768,1187,3.5.6,legacy,xpyriment,osweb,1.3.13,0,space,space,space,,22565,24835,22565,,2,legacy,824,1536,24,864,24,-1,-1,1536,1646682027377,1024,2,48000,-16,experiment,p5sarrcol2.png,1,odd,Win32,73,136672,133668,73,73,361609,363115,356607,138210,356607,73,,,,,,visual_patterns,0,0,0,yes,1366
undefined,undefined,undefined,undefined,white,no,Mozilla,Netscape,"5.0 (Windows NT 10.0; Win64; x64) AppleWebKit/537.36 (KHTML, like Gecko) Chrome/98.0.4758.102 Safari/537.36",xpyriment,legacy,legacy,0,uniform,0,0,0,0,24,24,24,0,0,31,31,31,31,31,0,31,0,,,,,,0,,07-02-22,07-02-22,20:40:30,Mon Mar 07 2022 20:40:30 GMT+0100 (közép-európai téli idő),The main experiment item,yes,0,0,C:/Users/rrics/Documents/!!ResearchBMECOGSCI/gnet,0,0,0,prototype2.png,no,mono,no,18,no,black,no,no,768,1187,3.5.6,legacy,xpyriment,osweb,1.3.13,0,space,space,space,,22565,24835,22565,,2,legacy,824,1536,24,864,24,-1,-1,1536,1646682027377,1024,2,48000,-16,experiment,p2sarrsha2.png,1,odd,Win32,73,136672,133668,73,73,368129,369632,363128,138210,363128,73,,,,,,visual_patterns,0,0,0,yes,1366
undefined,undefined,undefined,undefined,white,no,Mozilla,Netscape,"5.0 (Windows NT 10.0; Win64; x64) AppleWebKit/537.36 (KHTML, like Gecko) Chrome/98.0.4758.102 Safari/537.36",xpyriment,legacy,legacy,0,uniform,0,0,0,0,24,24,24,0,0,32,32,32,32,32,0,32,0,,,,,,0,,07-02-22,07-02-22,20:40:30,Mon Mar 07 2022 20:40:30 GMT+0100 (közép-európai téli idő),The main experiment item,yes,0,0,C:/Users/rrics/Documents/!!ResearchBMECOGSCI/gnet,0,0,0,prototype2.png,no,mono,no,18,no,black,no,no,768,1187,3.5.6,legacy,xpyriment,osweb,1.3.13,0,space,space,space,,22565,24835,22565,,2,legacy,824,1536,24,864,24,-1,-1,1536,1646682027377,1024,2,48000,-16,experiment,p5sarr1.png,1,odd,Win32,73,136672,133668,73,73,374647,376149,369663,138210,369662,73,,,,,,visual_patterns,0,0,0,yes,1366
undefined,undefined,undefined,undefined,white,no,Mozilla,Netscape,"5.0 (Windows NT 10.0; Win64; x64) AppleWebKit/537.36 (KHTML, like Gecko) Chrome/98.0.4758.102 Safari/537.36",xpyriment,legacy,legacy,0,uniform,0,0,0,0,24,24,24,0,0,33,33,33,33,33,0,33,0,,,,,,0,,07-02-22,07-02-22,20:40:30,Mon Mar 07 2022 20:40:30 GMT+0100 (közép-európai téli idő),The main experiment item,yes,0,0,C:/Users/rrics/Documents/!!ResearchBMECOGSCI/gnet,0,0,0,prototype2.png,no,mono,no,18,no,black,no,no,768,1187,3.5.6,legacy,xpyriment,osweb,1.3.13,0,space,space,space,,22565,24835,22565,,2,legacy,824,1536,24,864,24,-1,-1,1536,1646682027377,1024,2,48000,-16,experiment,p3sarrshacol1.png,1,odd,Win32,73,136672,133668,73,73,381163,382666,376164,138210,376164,73,,,,,,visual_patterns,0,0,0,yes,1366
undefined,undefined,undefined,undefined,white,no,Mozilla,Netscape,"5.0 (Windows NT 10.0; Win64; x64) AppleWebKit/537.36 (KHTML, like Gecko) Chrome/98.0.4758.102 Safari/537.36",xpyriment,legacy,legacy,0,uniform,0,0,0,0,24,24,24,0,0,34,34,34,34,34,0,34,0,,,,,,0,,07-02-22,07-02-22,20:40:30,Mon Mar 07 2022 20:40:30 GMT+0100 (közép-európai téli idő),The main experiment item,yes,0,0,C:/Users/rrics/Documents/!!ResearchBMECOGSCI/gnet,0,0,0,prototype2.png,no,mono,no,18,no,black,no,no,768,1187,3.5.6,legacy,xpyriment,osweb,1.3.13,0,space,space,space,,22565,24835,22565,,2,legacy,824,1536,24,864,24,-1,-1,1536,1646682027377,1024,2,48000,-16,experiment,prototype1.png,1,odd,Win32,73,136672,133668,73,73,387681,389183,382675,138210,382675,73,,,,,,visual_patterns,0,0,0,yes,1366
undefined,undefined,undefined,undefined,white,no,Mozilla,Netscape,"5.0 (Windows NT 10.0; Win64; x64) AppleWebKit/537.36 (KHTML, like Gecko) Chrome/98.0.4758.102 Safari/537.36",xpyriment,legacy,legacy,0,uniform,0,0,0,0,24,24,24,0,0,35,35,35,35,35,0,35,0,,,,,,0,,07-02-22,07-02-22,20:40:30,Mon Mar 07 2022 20:40:30 GMT+0100 (közép-európai téli idő),The main experiment item,yes,0,0,C:/Users/rrics/Documents/!!ResearchBMECOGSCI/gnet,0,0,0,prototype2.png,no,mono,no,18,no,black,no,no,768,1187,3.5.6,legacy,xpyriment,osweb,1.3.13,0,space,space,space,,22565,24835,22565,,2,legacy,824,1536,24,864,24,-1,-1,1536,1646682027377,1024,2,48000,-16,experiment,p4sarrshacol1.png,1,odd,Win32,73,136672,133668,73,73,394202,395717,389197,138210,389197,73,,,,,,visual_patterns,0,0,0,yes,1366
undefined,undefined,undefined,undefined,white,no,Mozilla,Netscape,"5.0 (Windows NT 10.0; Win64; x64) AppleWebKit/537.36 (KHTML, like Gecko) Chrome/98.0.4758.102 Safari/537.36",xpyriment,legacy,legacy,0,uniform,0,0,0,0,24,24,24,0,0,36,36,36,36,36,0,36,0,,,,,,0,,07-02-22,07-02-22,20:40:30,Mon Mar 07 2022 20:40:30 GMT+0100 (közép-európai téli idő),The main experiment item,yes,0,0,C:/Users/rrics/Documents/!!ResearchBMECOGSCI/gnet,0,0,0,prototype2.png,no,mono,no,18,no,black,no,no,768,1187,3.5.6,legacy,xpyriment,osweb,1.3.13,0,space,space,space,,22565,24835,22565,,2,legacy,824,1536,24,864,24,-1,-1,1536,1646682027377,1024,2,48000,-16,experiment,prototype3.png,1,odd,Win32,73,136672,133668,73,73,400734,402250,395737,138210,395737,73,,,,,,visual_patterns,0,0,0,yes,1366
undefined,undefined,undefined,undefined,white,no,Mozilla,Netscape,"5.0 (Windows NT 10.0; Win64; x64) AppleWebKit/537.36 (KHTML, like Gecko) Chrome/98.0.4758.102 Safari/537.36",xpyriment,legacy,legacy,0,uniform,0,0,0,0,24,24,24,0,0,37,37,37,37,37,0,37,0,,,,,,0,,07-02-22,07-02-22,20:40:30,Mon Mar 07 2022 20:40:30 GMT+0100 (közép-európai téli idő),The main experiment item,yes,0,0,C:/Users/rrics/Documents/!!ResearchBMECOGSCI/gnet,0,0,0,prototype2.png,no,mono,no,18,no,black,no,no,768,1187,3.5.6,legacy,xpyriment,osweb,1.3.13,0,space,space,space,,22565,24835,22565,,2,legacy,824,1536,24,864,24,-1,-1,1536,1646682027377,1024,2,48000,-16,experiment,prototype3.png,1,odd,Win32,73,136672,133668,73,73,407270,408784,402280,138210,402280,73,,,,,,visual_patterns,0,0,0,yes,1366
undefined,undefined,undefined,undefined,white,no,Mozilla,Netscape,"5.0 (Windows NT 10.0; Win64; x64) AppleWebKit/537.36 (KHTML, like Gecko) Chrome/98.0.4758.102 Safari/537.36",xpyriment,legacy,legacy,0,uniform,0,0,0,0,24,24,24,0,0,38,38,38,38,38,0,38,0,,,,,,0,,07-02-22,07-02-22,20:40:30,Mon Mar 07 2022 20:40:30 GMT+0100 (közép-európai téli idő),The main experiment item,yes,0,0,C:/Users/rrics/Documents/!!ResearchBMECOGSCI/gnet,0,0,0,prototype2.png,no,mono,no,18,no,black,no,no,768,1187,3.5.6,legacy,xpyriment,osweb,1.3.13,0,space,space,space,,22565,24835,22565,,2,legacy,824,1536,24,864,24,-1,-1,1536,1646682027377,1024,2,48000,-16,experiment,p7sarr1.png,1,odd,Win32,73,136672,133668,73,73,413803,415318,408810,138210,408810,73,,,,,,visual_patterns,0,0,0,yes,1366
undefined,undefined,undefined,undefined,white,no,Mozilla,Netscape,"5.0 (Windows NT 10.0; Win64; x64) AppleWebKit/537.36 (KHTML, like Gecko) Chrome/98.0.4758.102 Safari/537.36",xpyriment,legacy,legacy,0,uniform,0,0,0,0,24,24,24,0,0,39,39,39,39,39,0,39,0,,,,,,0,,07-02-22,07-02-22,20:40:30,Mon Mar 07 2022 20:40:30 GMT+0100 (közép-európai téli idő),The main experiment item,yes,0,0,C:/Users/rrics/Documents/!!ResearchBMECOGSCI/gnet,0,0,0,prototype2.png,no,mono,no,18,no,black,no,no,768,1187,3.5.6,legacy,xpyriment,osweb,1.3.13,0,space,space,space,,22565,24835,22565,,2,legacy,824,1536,24,864,24,-1,-1,1536,1646682027377,1024,2,48000,-16,experiment,p1sarrsha1.png,1,odd,Win32,73,136672,133668,73,73,420334,421835,415341,138210,415341,73,,,,,,visual_patterns,0,0,0,yes,1366
undefined,undefined,undefined,undefined,white,no,Mozilla,Netscape,"5.0 (Windows NT 10.0; Win64; x64) AppleWebKit/537.36 (KHTML, like Gecko) Chrome/98.0.4758.102 Safari/537.36",xpyriment,legacy,legacy,0,uniform,0,0,0,0,24,24,24,0,0,40,40,40,40,40,0,40,0,,,,,,0,,07-02-22,07-02-22,20:40:30,Mon Mar 07 2022 20:40:30 GMT+0100 (közép-európai téli idő),The main experiment item,yes,0,0,C:/Users/rrics/Documents/!!ResearchBMECOGSCI/gnet,0,0,0,prototype2.png,no,mono,no,18,no,black,no,no,768,1187,3.5.6,legacy,xpyriment,osweb,1.3.13,0,space,space,space,,22565,24835,22565,,2,legacy,824,1536,24,864,24,-1,-1,1536,1646682027377,1024,2,48000,-16,experiment,prototype5.png,1,odd,Win32,73,136672,133668,73,73,426850,428352,421852,138210,421852,73,,,,,,visual_patterns,0,0,0,yes,1366
undefined,undefined,undefined,undefined,white,no,Mozilla,Netscape,"5.0 (Windows NT 10.0; Win64; x64) AppleWebKit/537.36 (KHTML, like Gecko) Chrome/98.0.4758.102 Safari/537.36",xpyriment,legacy,legacy,0,uniform,0,0,0,0,24,24,24,0,0,41,41,41,41,41,0,41,0,,,,,,0,,07-02-22,07-02-22,20:40:30,Mon Mar 07 2022 20:40:30 GMT+0100 (közép-európai téli idő),The main experiment item,yes,0,0,C:/Users/rrics/Documents/!!ResearchBMECOGSCI/gnet,0,0,0,prototype2.png,no,mono,no,18,no,black,no,no,768,1187,3.5.6,legacy,xpyriment,osweb,1.3.13,0,space,space,space,,22565,24835,22565,,2,legacy,824,1536,24,864,24,-1,-1,1536,1646682027377,1024,2,48000,-16,experiment,p3sarrshacol2.png,1,odd,Win32,73,136672,133668,73,73,433362,434869,428380,138210,428380,73,,,,,,visual_patterns,0,0,0,yes,1366
undefined,undefined,undefined,undefined,white,no,Mozilla,Netscape,"5.0 (Windows NT 10.0; Win64; x64) AppleWebKit/537.36 (KHTML, like Gecko) Chrome/98.0.4758.102 Safari/537.36",xpyriment,legacy,legacy,0,uniform,0,0,0,0,24,24,24,0,0,42,42,42,42,42,0,42,0,,,,,,0,,07-02-22,07-02-22,20:40:30,Mon Mar 07 2022 20:40:30 GMT+0100 (közép-európai téli idő),The main experiment item,yes,0,0,C:/Users/rrics/Documents/!!ResearchBMECOGSCI/gnet,0,0,0,prototype2.png,no,mono,no,18,no,black,no,no,768,1187,3.5.6,legacy,xpyriment,osweb,1.3.13,0,space,space,space,,22565,24835,22565,,2,legacy,824,1536,24,864,24,-1,-1,1536,1646682027377,1024,2,48000,-16,experiment,p3sarrcol2.png,1,odd,Win32,73,136672,133668,73,73,439886,441403,434882,138210,434882,73,,,,,,visual_patterns,0,0,0,yes,1366
undefined,undefined,undefined,undefined,white,no,Mozilla,Netscape,"5.0 (Windows NT 10.0; Win64; x64) AppleWebKit/537.36 (KHTML, like Gecko) Chrome/98.0.4758.102 Safari/537.36",xpyriment,legacy,legacy,0,uniform,0,0,0,0,24,24,24,0,0,43,43,43,43,43,0,43,0,,,,,,0,,07-02-22,07-02-22,20:40:30,Mon Mar 07 2022 20:40:30 GMT+0100 (közép-európai téli idő),The main experiment item,yes,0,0,C:/Users/rrics/Documents/!!ResearchBMECOGSCI/gnet,0,0,0,prototype2.png,no,mono,no,18,no,black,no,no,768,1187,3.5.6,legacy,xpyriment,osweb,1.3.13,0,space,space,space,,22565,24835,22565,,2,legacy,824,1536,24,864,24,-1,-1,1536,1646682027377,1024,2,48000,-16,experiment,p3sarr2.png,1,odd,Win32,73,136672,133668,73,73,446418,447920,441417,138210,441417,73,,,,,,visual_patterns,0,0,0,yes,1366
undefined,undefined,undefined,undefined,white,no,Mozilla,Netscape,"5.0 (Windows NT 10.0; Win64; x64) AppleWebKit/537.36 (KHTML, like Gecko) Chrome/98.0.4758.102 Safari/537.36",xpyriment,legacy,legacy,0,uniform,0,0,0,0,24,24,24,0,0,44,44,44,44,44,0,44,0,,,,,,0,,07-02-22,07-02-22,20:40:30,Mon Mar 07 2022 20:40:30 GMT+0100 (közép-európai téli idő),The main experiment item,yes,0,0,C:/Users/rrics/Documents/!!ResearchBMECOGSCI/gnet,0,0,0,prototype2.png,no,mono,no,18,no,black,no,no,768,1187,3.5.6,legacy,xpyriment,osweb,1.3.13,0,space,space,space,,22565,24835,22565,,2,legacy,824,1536,24,864,24,-1,-1,1536,1646682027377,1024,2,48000,-16,experiment,p2sarrsha1.png,1,odd,Win32,73,136672,133668,73,73,452933,454437,447933,138210,447933,73,,,,,,visual_patterns,0,0,0,yes,1366
undefined,undefined,undefined,undefined,white,no,Mozilla,Netscape,"5.0 (Windows NT 10.0; Win64; x64) AppleWebKit/537.36 (KHTML, like Gecko) Chrome/98.0.4758.102 Safari/537.36",xpyriment,legacy,legacy,0,uniform,0,0,0,0,24,24,24,0,0,45,45,45,45,45,0,45,0,,,,,,0,,07-02-22,07-02-22,20:40:30,Mon Mar 07 2022 20:40:30 GMT+0100 (közép-európai téli idő),The main experiment item,yes,0,0,C:/Users/rrics/Documents/!!ResearchBMECOGSCI/gnet,0,0,0,prototype2.png,no,mono,no,18,no,black,no,no,768,1187,3.5.6,legacy,xpyriment,osweb,1.3.13,0,space,space,space,,22565,24835,22565,,2,legacy,824,1536,24,864,24,-1,-1,1536,1646682027377,1024,2,48000,-16,experiment,p4sarrsha1.png,1,odd,Win32,73,136672,133668,73,73,459452,460954,454466,138210,454466,73,,,,,,visual_patterns,0,0,0,yes,1366
undefined,undefined,undefined,undefined,white,no,Mozilla,Netscape,"5.0 (Windows NT 10.0; Win64; x64) AppleWebKit/537.36 (KHTML, like Gecko) Chrome/98.0.4758.102 Safari/537.36",xpyriment,legacy,legacy,0,uniform,0,0,0,0,24,24,24,0,0,46,46,46,46,46,0,46,0,,,,,,0,,07-02-22,07-02-22,20:40:30,Mon Mar 07 2022 20:40:30 GMT+0100 (közép-európai téli idő),The main experiment item,yes,0,0,C:/Users/rrics/Documents/!!ResearchBMECOGSCI/gnet,0,0,0,prototype2.png,no,mono,no,18,no,black,no,no,768,1187,3.5.6,legacy,xpyriment,osweb,1.3.13,0,space,space,space,,22565,24835,22565,,2,legacy,824,1536,24,864,24,-1,-1,1536,1646682027377,1024,2,48000,-16,experiment,p1sarrcol1.png,1,odd,Win32,73,136672,133668,73,73,465964,467471,460967,138210,460967,73,,,,,,visual_patterns,0,0,0,yes,1366
undefined,undefined,undefined,undefined,white,no,Mozilla,Netscape,"5.0 (Windows NT 10.0; Win64; x64) AppleWebKit/537.36 (KHTML, like Gecko) Chrome/98.0.4758.102 Safari/537.36",xpyriment,legacy,legacy,0,uniform,0,0,0,0,24,24,24,0,0,47,47,47,47,47,0,47,0,,,,,,0,,07-02-22,07-02-22,20:40:30,Mon Mar 07 2022 20:40:30 GMT+0100 (közép-európai téli idő),The main experiment item,yes,0,0,C:/Users/rrics/Documents/!!ResearchBMECOGSCI/gnet,0,0,0,prototype2.png,no,mono,no,18,no,black,no,no,768,1187,3.5.6,legacy,xpyriment,osweb,1.3.13,0,space,space,space,,22565,24835,22565,,2,legacy,824,1536,24,864,24,-1,-1,1536,1646682027377,1024,2,48000,-16,experiment,p1sarrsha2.png,1,odd,Win32,73,136672,133668,73,73,472485,473988,467501,138210,467500,73,,,,,,visual_patterns,0,0,0,yes,1366
undefined,undefined,undefined,undefined,white,no,Mozilla,Netscape,"5.0 (Windows NT 10.0; Win64; x64) AppleWebKit/537.36 (KHTML, like Gecko) Chrome/98.0.4758.102 Safari/537.36",xpyriment,legacy,legacy,0,uniform,0,0,0,0,24,24,24,0,0,48,48,48,48,48,0,48,0,,,,,,0,,07-02-22,07-02-22,20:40:30,Mon Mar 07 2022 20:40:30 GMT+0100 (közép-európai téli idő),The main experiment item,yes,0,0,C:/Users/rrics/Documents/!!ResearchBMECOGSCI/gnet,0,0,0,prototype2.png,no,mono,no,18,no,black,no,no,768,1187,3.5.6,legacy,xpyriment,osweb,1.3.13,0,space,space,space,,22565,24835,22565,,2,legacy,824,1536,24,864,24,-1,-1,1536,1646682027377,1024,2,48000,-16,experiment,p7sarr2.png,1,odd,Win32,73,136672,133668,73,73,479005,480521,474003,138210,474003,73,,,,,,visual_patterns,0,0,0,yes,1366
undefined,undefined,undefined,undefined,white,no,Mozilla,Netscape,"5.0 (Windows NT 10.0; Win64; x64) AppleWebKit/537.36 (KHTML, like Gecko) Chrome/98.0.4758.102 Safari/537.36",xpyriment,legacy,legacy,0,uniform,0,0,0,0,24,24,24,0,0,49,49,49,49,49,0,49,0,,,,,,0,,07-02-22,07-02-22,20:40:30,Mon Mar 07 2022 20:40:30 GMT+0100 (közép-európai téli idő),The main experiment item,yes,0,0,C:/Users/rrics/Documents/!!ResearchBMECOGSCI/gnet,0,0,0,prototype2.png,no,mono,no,18,no,black,no,no,768,1187,3.5.6,legacy,xpyriment,osweb,1.3.13,0,space,space,space,,22565,24835,22565,,2,legacy,824,1536,24,864,24,-1,-1,1536,1646682027377,1024,2,48000,-16,experiment,p4sarr1.png,1,odd,Win32,73,136672,133668,73,73,485531,487038,480550,138210,480550,73,,,,,,visual_patterns,0,0,0,yes,1366
undefined,undefined,undefined,undefined,white,no,Mozilla,Netscape,"5.0 (Windows NT 10.0; Win64; x64) AppleWebKit/537.36 (KHTML, like Gecko) Chrome/98.0.4758.102 Safari/537.36",xpyriment,legacy,legacy,0,uniform,0,0,0,0,24,24,24,0,0,50,50,50,50,50,0,50,0,,,,,,0,,07-02-22,07-02-22,20:40:30,Mon Mar 07 2022 20:40:30 GMT+0100 (közép-európai téli idő),The main experiment item,yes,0,0,C:/Users/rrics/Documents/!!ResearchBMECOGSCI/gnet,0,0,0,prototype2.png,no,mono,no,18,no,black,no,no,768,1187,3.5.6,legacy,xpyriment,osweb,1.3.13,0,space,space,space,,22565,24835,22565,,2,legacy,824,1536,24,864,24,-1,-1,1536,1646682027377,1024,2,48000,-16,experiment,p10sarr1.png,1,odd,Win32,73,136672,133668,73,73,492050,493556,487052,138210,487052,73,,,,,,visual_patterns,0,0,0,yes,1366
undefined,undefined,undefined,undefined,white,no,Mozilla,Netscape,"5.0 (Windows NT 10.0; Win64; x64) AppleWebKit/537.36 (KHTML, like Gecko) Chrome/98.0.4758.102 Safari/537.36",xpyriment,legacy,legacy,0,uniform,0,0,0,0,24,24,24,0,0,51,51,51,51,51,0,51,0,,,,,,0,,07-02-22,07-02-22,20:40:30,Mon Mar 07 2022 20:40:30 GMT+0100 (közép-európai téli idő),The main experiment item,yes,0,0,C:/Users/rrics/Documents/!!ResearchBMECOGSCI/gnet,0,0,0,prototype2.png,no,mono,no,18,no,black,no,no,768,1187,3.5.6,legacy,xpyriment,osweb,1.3.13,0,space,space,space,,22565,24835,22565,,2,legacy,824,1536,24,864,24,-1,-1,1536,1646682027377,1024,2,48000,-16,experiment,prototype3.png,1,odd,Win32,73,136672,133668,73,73,498579,500089,493588,138210,493588,73,,,,,,visual_patterns,0,0,0,yes,1366
undefined,undefined,undefined,undefined,white,no,Mozilla,Netscape,"5.0 (Windows NT 10.0; Win64; x64) AppleWebKit/537.36 (KHTML, like Gecko) Chrome/98.0.4758.102 Safari/537.36",xpyriment,legacy,legacy,0,uniform,0,0,0,0,24,24,24,0,0,52,52,52,52,52,0,52,0,,,,,,0,,07-02-22,07-02-22,20:40:30,Mon Mar 07 2022 20:40:30 GMT+0100 (közép-európai téli idő),The main experiment item,yes,0,0,C:/Users/rrics/Documents/!!ResearchBMECOGSCI/gnet,0,0,0,prototype2.png,no,mono,no,18,no,black,no,no,768,1187,3.5.6,legacy,xpyriment,osweb,1.3.13,0,space,space,space,,22565,24835,22565,,2,legacy,824,1536,24,864,24,-1,-1,1536,1646682027377,1024,2,48000,-16,experiment,p1sarr1.png,1,odd,Win32,73,136672,133668,73,73,505114,506623,500112,138210,500112,73,,,,,,visual_patterns,0,0,0,yes,1366
undefined,undefined,undefined,undefined,white,no,Mozilla,Netscape,"5.0 (Windows NT 10.0; Win64; x64) AppleWebKit/537.36 (KHTML, like Gecko) Chrome/98.0.4758.102 Safari/537.36",xpyriment,legacy,legacy,0,uniform,0,0,0,0,24,24,24,0,0,53,53,53,53,53,0,53,0,,,,,,0,,07-02-22,07-02-22,20:40:30,Mon Mar 07 2022 20:40:30 GMT+0100 (közép-európai téli idő),The main experiment item,yes,0,0,C:/Users/rrics/Documents/!!ResearchBMECOGSCI/gnet,0,0,0,prototype2.png,no,mono,no,18,no,black,no,no,768,1187,3.5.6,legacy,xpyriment,osweb,1.3.13,0,space,space,space,,22565,24835,22565,,2,legacy,824,1536,24,864,24,-1,-1,1536,1646682027377,1024,2,48000,-16,experiment,p1sarrcol2.png,1,odd,Win32,73,136672,133668,73,73,511635,513140,506641,138210,506640,73,,,,,,visual_patterns,0,0,0,yes,1366
undefined,undefined,undefined,undefined,white,no,Mozilla,Netscape,"5.0 (Windows NT 10.0; Win64; x64) AppleWebKit/537.36 (KHTML, like Gecko) Chrome/98.0.4758.102 Safari/537.36",xpyriment,legacy,legacy,0,uniform,0,0,0,0,24,24,24,0,0,54,54,54,54,54,0,54,0,,,,,,0,,07-02-22,07-02-22,20:40:30,Mon Mar 07 2022 20:40:30 GMT+0100 (közép-európai téli idő),The main experiment item,yes,0,0,C:/Users/rrics/Documents/!!ResearchBMECOGSCI/gnet,0,0,0,prototype2.png,no,mono,no,18,no,black,no,no,768,1187,3.5.6,legacy,xpyriment,osweb,1.3.13,0,space,space,space,,22565,24835,22565,,2,legacy,824,1536,24,864,24,-1,-1,1536,1646682027377,1024,2,48000,-16,experiment,p2sarrcol2.png,1,odd,Win32,73,136672,133668,73,73,518150,519657,513152,138210,513152,73,,,,,,visual_patterns,0,0,0,yes,1366
undefined,undefined,undefined,undefined,white,no,Mozilla,Netscape,"5.0 (Windows NT 10.0; Win64; x64) AppleWebKit/537.36 (KHTML, like Gecko) Chrome/98.0.4758.102 Safari/537.36",xpyriment,legacy,legacy,0,uniform,0,0,0,0,24,24,24,0,0,55,55,55,55,55,0,55,0,,,,,,0,,07-02-22,07-02-22,20:40:30,Mon Mar 07 2022 20:40:30 GMT+0100 (közép-európai téli idő),The main experiment item,yes,0,0,C:/Users/rrics/Documents/!!ResearchBMECOGSCI/gnet,0,0,0,prototype2.png,no,mono,no,18,no,black,no,no,768,1187,3.5.6,legacy,xpyriment,osweb,1.3.13,0,space,space,space,,22565,24835,22565,,2,legacy,824,1536,24,864,24,-1,-1,1536,1646682027377,1024,2,48000,-16,experiment,prototype4.png,1,odd,Win32,73,136672,133668,73,73,524671,526174,519677,138210,519677,73,,,,,,visual_patterns,0,0,0,yes,1366
undefined,undefined,undefined,undefined,white,no,Mozilla,Netscape,"5.0 (Windows NT 10.0; Win64; x64) AppleWebKit/537.36 (KHTML, like Gecko) Chrome/98.0.4758.102 Safari/537.36",xpyriment,legacy,legacy,0,uniform,0,0,0,0,24,24,24,0,0,56,56,56,56,56,0,56,0,,,,,,0,,07-02-22,07-02-22,20:40:30,Mon Mar 07 2022 20:40:30 GMT+0100 (közép-európai téli idő),The main experiment item,yes,0,0,C:/Users/rrics/Documents/!!ResearchBMECOGSCI/gnet,0,0,0,prototype2.png,no,mono,no,18,no,black,no,no,768,1187,3.5.6,legacy,xpyriment,osweb,1.3.13,0,space,space,space,,22565,24835,22565,,2,legacy,824,1536,24,864,24,-1,-1,1536,1646682027377,1024,2,48000,-16,experiment,p2sarrshacol1.png,1,odd,Win32,73,136672,133668,73,73,531189,532691,526188,138210,526188,73,,,,,,visual_patterns,0,0,0,yes,1366
undefined,undefined,undefined,undefined,white,no,Mozilla,Netscape,"5.0 (Windows NT 10.0; Win64; x64) AppleWebKit/537.36 (KHTML, like Gecko) Chrome/98.0.4758.102 Safari/537.36",xpyriment,legacy,legacy,0,uniform,0,0,0,0,24,24,24,0,0,57,57,57,57,57,0,57,0,,,,,,0,,07-02-22,07-02-22,20:40:30,Mon Mar 07 2022 20:40:30 GMT+0100 (közép-európai téli idő),The main experiment item,yes,0,0,C:/Users/rrics/Documents/!!ResearchBMECOGSCI/gnet,0,0,0,prototype2.png,no,mono,no,18,no,black,no,no,768,1187,3.5.6,legacy,xpyriment,osweb,1.3.13,0,space,space,space,,22565,24835,22565,,2,legacy,824,1536,24,864,24,-1,-1,1536,1646682027377,1024,2,48000,-16,experiment,prototype5.png,1,odd,Win32,73,136672,133668,73,73,537725,539241,532725,138210,532725,73,,,,,,visual_patterns,0,0,0,yes,1366
undefined,undefined,undefined,undefined,white,no,Mozilla,Netscape,"5.0 (Windows NT 10.0; Win64; x64) AppleWebKit/537.36 (KHTML, like Gecko) Chrome/98.0.4758.102 Safari/537.36",xpyriment,legacy,legacy,0,uniform,0,0,0,0,24,24,24,0,0,58,58,58,58,58,0,58,0,,,,,,0,,07-02-22,07-02-22,20:40:30,Mon Mar 07 2022 20:40:30 GMT+0100 (közép-európai téli idő),The main experiment item,yes,0,0,C:/Users/rrics/Documents/!!ResearchBMECOGSCI/gnet,0,0,0,prototype2.png,no,mono,no,18,no,black,no,no,768,1187,3.5.6,legacy,xpyriment,osweb,1.3.13,0,space,space,space,,22565,24835,22565,,2,legacy,824,1536,24,864,24,-1,-1,1536,1646682027377,1024,2,48000,-16,experiment,prototype2.png,1,odd,Win32,73,136672,133668,73,73,544251,545758,539265,138210,539265,73,,,,,,visual_patterns,0,0,0,yes,1366
undefined,undefined,undefined,undefined,white,no,Mozilla,Netscape,"5.0 (Windows NT 10.0; Win64; x64) AppleWebKit/537.36 (KHTML, like Gecko) Chrome/98.0.4758.102 Safari/537.36",xpyriment,legacy,legacy,0,uniform,0,0,0,0,24,24,24,0,0,59,59,59,59,59,0,59,0,,,,,,0,,07-02-22,07-02-22,20:40:30,Mon Mar 07 2022 20:40:30 GMT+0100 (közép-európai téli idő),The main experiment item,yes,0,0,C:/Users/rrics/Documents/!!ResearchBMECOGSCI/gnet,0,0,0,prototype2.png,no,mono,no,18,no,black,no,no,768,1187,3.5.6,legacy,xpyriment,osweb,1.3.13,0,space,space,space,,22565,24835,22565,,2,legacy,824,1536,24,864,24,-1,-1,1536,1646682027377,1024,2,48000,-16,experiment,prototype5.png,1,odd,Win32,73,136672,133668,73,73,550776,552292,545775,138210,545775,73,,,,,,visual_patterns,0,0,0,yes,1366
undefined,undefined,undefined,undefined,white,no,Mozilla,Netscape,"5.0 (Windows NT 10.0; Win64; x64) AppleWebKit/537.36 (KHTML, like Gecko) Chrome/98.0.4758.102 Safari/537.36",xpyriment,legacy,legacy,0,uniform,0,0,0,0,24,24,24,0,0,60,60,60,60,60,0,60,0,,,,,,0,,07-02-22,07-02-22,20:40:30,Mon Mar 07 2022 20:40:30 GMT+0100 (közép-európai téli idő),The main experiment item,yes,0,0,C:/Users/rrics/Documents/!!ResearchBMECOGSCI/gnet,0,0,0,prototype2.png,no,mono,no,18,no,black,no,no,768,1187,3.5.6,legacy,xpyriment,osweb,1.3.13,0,space,space,space,,22565,24835,22565,,2,legacy,824,1536,24,864,24,-1,-1,1536,1646682027377,1024,2,48000,-16,experiment,p1sarrshacol2.png,1,odd,Win32,73,136672,133668,73,73,557304,558809,552313,138210,552313,73,,,,,,visual_patterns,0,0,0,yes,1366
undefined,undefined,undefined,undefined,white,no,Mozilla,Netscape,"5.0 (Windows NT 10.0; Win64; x64) AppleWebKit/537.36 (KHTML, like Gecko) Chrome/98.0.4758.102 Safari/537.36",xpyriment,legacy,legacy,0,uniform,0,0,0,0,24,24,24,0,0,61,61,61,61,61,0,61,0,,,,,,0,,07-02-22,07-02-22,20:40:30,Mon Mar 07 2022 20:40:30 GMT+0100 (közép-európai téli idő),The main experiment item,yes,0,0,C:/Users/rrics/Documents/!!ResearchBMECOGSCI/gnet,0,0,0,prototype2.png,no,mono,no,18,no,black,no,no,768,1187,3.5.6,legacy,xpyriment,osweb,1.3.13,0,space,space,space,,22565,24835,22565,,2,legacy,824,1536,24,864,24,-1,-1,1536,1646682027377,1024,2,48000,-16,experiment,p2sarrcol1.png,1,odd,Win32,73,136672,133668,73,73,563827,565343,558824,138210,558824,73,,,,,,visual_patterns,0,0,0,yes,1366
undefined,undefined,undefined,undefined,white,no,Mozilla,Netscape,"5.0 (Windows NT 10.0; Win64; x64) AppleWebKit/537.36 (KHTML, like Gecko) Chrome/98.0.4758.102 Safari/537.36",xpyriment,legacy,legacy,0,uniform,0,0,0,0,24,24,24,0,0,62,62,62,62,62,0,62,0,,,,,,0,,07-02-22,07-02-22,20:40:30,Mon Mar 07 2022 20:40:30 GMT+0100 (közép-európai téli idő),The main experiment item,yes,0,0,C:/Users/rrics/Documents/!!ResearchBMECOGSCI/gnet,0,0,0,prototype2.png,no,mono,no,18,no,black,no,no,768,1187,3.5.6,legacy,xpyriment,osweb,1.3.13,0,space,space,space,,22565,24835,22565,,2,legacy,824,1536,24,864,24,-1,-1,1536,1646682027377,1024,2,48000,-16,experiment,p5sarr2.png,1,odd,Win32,73,136672,133668,73,73,570376,571884,565380,138210,565380,73,,,,,,visual_patterns,0,0,0,yes,1366
undefined,undefined,undefined,undefined,white,no,Mozilla,Netscape,"5.0 (Windows NT 10.0; Win64; x64) AppleWebKit/537.36 (KHTML, like Gecko) Chrome/98.0.4758.102 Safari/537.36",xpyriment,legacy,legacy,0,uniform,0,0,0,0,24,24,24,0,0,63,63,63,63,63,0,63,0,,,,,,0,,07-02-22,07-02-22,20:40:30,Mon Mar 07 2022 20:40:30 GMT+0100 (közép-európai téli idő),The main experiment item,yes,0,0,C:/Users/rrics/Documents/!!ResearchBMECOGSCI/gnet,0,0,0,prototype2.png,no,mono,no,18,no,black,no,no,768,1187,3.5.6,legacy,xpyriment,osweb,1.3.13,0,space,space,space,,22565,24835,22565,,2,legacy,824,1536,24,864,24,-1,-1,1536,1646682027377,1024,2,48000,-16,experiment,p10sarr2.png,1,odd,Win32,73,136672,133668,73,73,576905,578410,571910,138210,571910,73,,,,,,visual_patterns,0,0,0,yes,1366
undefined,undefined,undefined,undefined,white,no,Mozilla,Netscape,"5.0 (Windows NT 10.0; Win64; x64) AppleWebKit/537.36 (KHTML, like Gecko) Chrome/98.0.4758.102 Safari/537.36",xpyriment,legacy,legacy,0,uniform,0,0,0,0,24,24,24,0,0,64,64,64,64,64,0,64,0,,,,,,0,,07-02-22,07-02-22,20:40:30,Mon Mar 07 2022 20:40:30 GMT+0100 (közép-európai téli idő),The main experiment item,yes,0,0,C:/Users/rrics/Documents/!!ResearchBMECOGSCI/gnet,0,0,0,prototype2.png,no,mono,no,18,no,black,no,no,768,1187,3.5.6,legacy,xpyriment,osweb,1.3.13,0,space,space,space,,22565,24835,22565,,2,legacy,824,1536,24,864,24,-1,-1,1536,1646682027377,1024,2,48000,-16,experiment,prototype1.png,1,odd,Win32,73,136672,133668,73,73,583424,584927,578435,138210,578435,73,,,,,,visual_patterns,0,0,0,yes,1366
undefined,undefined,undefined,undefined,white,no,Mozilla,Netscape,"5.0 (Windows NT 10.0; Win64; x64) AppleWebKit/537.36 (KHTML, like Gecko) Chrome/98.0.4758.102 Safari/537.36",xpyriment,legacy,legacy,0,uniform,0,0,0,0,24,24,24,0,0,65,65,65,65,65,0,65,0,,,,,,0,,07-02-22,07-02-22,20:40:30,Mon Mar 07 2022 20:40:30 GMT+0100 (közép-európai téli idő),The main experiment item,yes,0,0,C:/Users/rrics/Documents/!!ResearchBMECOGSCI/gnet,0,0,0,prototype2.png,no,mono,no,18,no,black,no,no,768,1187,3.5.6,legacy,xpyriment,osweb,1.3.13,0,space,space,space,,22565,24835,22565,,2,legacy,824,1536,24,864,24,-1,-1,1536,1646682027377,1024,2,48000,-16,experiment,prototype4.png,1,odd,Win32,73,136672,133668,73,73,589940,591444,584953,138210,584953,73,,,,,,visual_patterns,0,0,0,yes,1366
undefined,undefined,undefined,undefined,white,no,Mozilla,Netscape,"5.0 (Windows NT 10.0; Win64; x64) AppleWebKit/537.36 (KHTML, like Gecko) Chrome/98.0.4758.102 Safari/537.36",xpyriment,legacy,legacy,0,uniform,0,0,0,0,24,24,24,0,0,66,66,66,66,66,0,66,0,,,,,,0,,07-02-22,07-02-22,20:40:30,Mon Mar 07 2022 20:40:30 GMT+0100 (közép-európai téli idő),The main experiment item,yes,0,0,C:/Users/rrics/Documents/!!ResearchBMECOGSCI/gnet,0,0,0,prototype2.png,no,mono,no,18,no,black,no,no,768,1187,3.5.6,legacy,xpyriment,osweb,1.3.13,0,space,space,space,,22565,24835,22565,,2,legacy,824,1536,24,864,24,-1,-1,1536,1646682027377,1024,2,48000,-16,experiment,p2sarrshacol2.png,1,odd,Win32,73,136672,133668,73,73,596453,597961,591475,138210,591475,73,,,,,,visual_patterns,0,0,0,yes,1366
undefined,undefined,undefined,undefined,white,no,Mozilla,Netscape,"5.0 (Windows NT 10.0; Win64; x64) AppleWebKit/537.36 (KHTML, like Gecko) Chrome/98.0.4758.102 Safari/537.36",xpyriment,legacy,legacy,0,uniform,0,0,0,0,24,24,24,0,0,67,67,67,67,67,0,67,0,,,,,,0,,07-02-22,07-02-22,20:40:30,Mon Mar 07 2022 20:40:30 GMT+0100 (közép-európai téli idő),The main experiment item,yes,0,0,C:/Users/rrics/Documents/!!ResearchBMECOGSCI/gnet,0,0,0,prototype2.png,no,mono,no,18,no,black,no,no,768,1187,3.5.6,legacy,xpyriment,osweb,1.3.13,0,space,space,space,,22565,24835,22565,,2,legacy,824,1536,24,864,24,-1,-1,1536,1646682027377,1024,2,48000,-16,experiment,p1sarr2.png,1,odd,Win32,73,136672,133668,73,73,602995,604511,597996,138210,597996,73,,,,,,visual_patterns,0,0,0,yes,1366
undefined,undefined,undefined,undefined,white,no,Mozilla,Netscape,"5.0 (Windows NT 10.0; Win64; x64) AppleWebKit/537.36 (KHTML, like Gecko) Chrome/98.0.4758.102 Safari/537.36",xpyriment,legacy,legacy,0,uniform,0,0,0,0,24,24,24,0,0,68,68,68,68,68,0,68,0,,,,,,0,,07-02-22,07-02-22,20:40:30,Mon Mar 07 2022 20:40:30 GMT+0100 (közép-európai téli idő),The main experiment item,yes,0,0,C:/Users/rrics/Documents/!!ResearchBMECOGSCI/gnet,0,0,0,prototype2.png,no,mono,no,18,no,black,no,no,768,1187,3.5.6,legacy,xpyriment,osweb,1.3.13,0,space,space,space,,22565,24835,22565,,2,legacy,824,1536,24,864,24,-1,-1,1536,1646682027377,1024,2,48000,-16,experiment,p6sarr2.png,1,odd,Win32,73,136672,133668,73,73,609528,611045,604541,138210,604541,73,,,,,,visual_patterns,0,0,0,yes,1366
undefined,undefined,undefined,undefined,white,no,Mozilla,Netscape,"5.0 (Windows NT 10.0; Win64; x64) AppleWebKit/537.36 (KHTML, like Gecko) Chrome/98.0.4758.102 Safari/537.36",xpyriment,legacy,legacy,0,uniform,0,0,0,0,24,24,24,0,0,69,69,69,69,69,0,69,0,,,,,,0,,07-02-22,07-02-22,20:40:30,Mon Mar 07 2022 20:40:30 GMT+0100 (közép-európai téli idő),The main experiment item,yes,0,0,C:/Users/rrics/Documents/!!ResearchBMECOGSCI/gnet,0,0,0,prototype2.png,no,mono,no,18,no,black,no,no,768,1187,3.5.6,legacy,xpyriment,osweb,1.3.13,0,space,space,space,,22565,24835,22565,,2,legacy,824,1536,24,864,24,-1,-1,1536,1646682027377,1024,2,48000,-16,experiment,prototype2.png,1,odd,Win32,73,136672,133668,73,73,616058,617562,611058,138210,611058,73,,,,,,visual_patterns,0,0,0,yes,1366
undefined,undefined,undefined,undefined,white,no,Mozilla,Netscape,"5.0 (Windows NT 10.0; Win64; x64) AppleWebKit/537.36 (KHTML, like Gecko) Chrome/98.0.4758.102 Safari/537.36",xpyriment,legacy,legacy,0,uniform,0,0,0,0,24,24,24,0,0,70,70,70,70,70,0,70,0,,,,,,0,,07-02-22,07-02-22,20:40:30,Mon Mar 07 2022 20:40:30 GMT+0100 (közép-európai téli idő),The main experiment item,yes,0,0,C:/Users/rrics/Documents/!!ResearchBMECOGSCI/gnet,0,0,0,prototype2.png,no,mono,no,18,no,black,no,no,768,1187,3.5.6,legacy,xpyriment,osweb,1.3.13,0,space,space,space,,22565,24835,22565,,2,legacy,824,1536,24,864,24,-1,-1,1536,1646682027377,1024,2,48000,-16,experiment,p1sarrshacol1.png,1,odd,Win32,73,136672,133668,73,73,622577,624079,617576,138210,617575,73,,,,,,visual_patterns,0,0,0,yes,1366
undefined,undefined,undefined,undefined,white,no,Mozilla,Netscape,"5.0 (Windows NT 10.0; Win64; x64) AppleWebKit/537.36 (KHTML, like Gecko) Chrome/98.0.4758.102 Safari/537.36",xpyriment,legacy,legacy,0,uniform,0,0,0,0,24,24,24,0,0,71,71,71,71,71,0,71,0,,,,,,0,,07-02-22,07-02-22,20:40:30,Mon Mar 07 2022 20:40:30 GMT+0100 (közép-európai téli idő),The main experiment item,yes,0,0,C:/Users/rrics/Documents/!!ResearchBMECOGSCI/gnet,0,0,0,prototype2.png,no,mono,no,18,no,black,no,no,768,1187,3.5.6,legacy,xpyriment,osweb,1.3.13,0,space,space,space,,22565,24835,22565,,2,legacy,824,1536,24,864,24,-1,-1,1536,1646682027377,1024,2,48000,-16,experiment,prototype1.png,1,odd,Win32,73,136672,133668,73,73,629094,630596,624104,138210,624104,73,,,,,,visual_patterns,0,0,0,yes,1366
undefined,undefined,undefined,undefined,white,no,Mozilla,Netscape,"5.0 (Windows NT 10.0; Win64; x64) AppleWebKit/537.36 (KHTML, like Gecko) Chrome/98.0.4758.102 Safari/537.36",xpyriment,legacy,legacy,0,uniform,0,0,0,0,24,24,24,0,0,72,72,72,72,72,0,72,0,,,,,,0,,07-02-22,07-02-22,20:40:30,Mon Mar 07 2022 20:40:30 GMT+0100 (közép-európai téli idő),The main experiment item,yes,0,0,C:/Users/rrics/Documents/!!ResearchBMECOGSCI/gnet,0,0,0,prototype2.png,no,mono,no,18,no,black,no,no,768,1187,3.5.6,legacy,xpyriment,osweb,1.3.13,0,space,space,space,,22565,24835,22565,,2,legacy,824,1536,24,864,24,-1,-1,1536,1646682027377,1024,2,48000,-16,experiment,prototype5.png,1,odd,Win32,73,136672,133668,73,73,635636,637147,630633,138210,630633,73,,,,,,visual_patterns,0,0,0,yes,1366
undefined,undefined,undefined,undefined,white,no,Mozilla,Netscape,"5.0 (Windows NT 10.0; Win64; x64) AppleWebKit/537.36 (KHTML, like Gecko) Chrome/98.0.4758.102 Safari/537.36",xpyriment,legacy,legacy,0,uniform,0,0,0,0,24,24,24,0,0,73,73,73,73,73,0,73,0,,,,,,0,,07-02-22,07-02-22,20:40:30,Mon Mar 07 2022 20:40:30 GMT+0100 (közép-európai téli idő),The main experiment item,yes,0,0,C:/Users/rrics/Documents/!!ResearchBMECOGSCI/gnet,0,0,0,prototype2.png,no,mono,no,18,no,black,no,no,768,1187,3.5.6,legacy,xpyriment,osweb,1.3.13,0,space,space,space,,22565,24835,22565,,2,legacy,824,1536,24,864,24,-1,-1,1536,1646682027377,1024,2,48000,-16,experiment,prototype3.png,1,odd,Win32,73,136672,133668,73,73,642164,643680,637163,138210,637163,73,,,,,,visual_patterns,0,0,0,yes,1366
undefined,undefined,undefined,undefined,white,no,Mozilla,Netscape,"5.0 (Windows NT 10.0; Win64; x64) AppleWebKit/537.36 (KHTML, like Gecko) Chrome/98.0.4758.102 Safari/537.36",xpyriment,legacy,legacy,0,uniform,0,0,0,0,24,24,24,0,0,74,74,74,74,74,0,74,0,,,,,,0,,07-02-22,07-02-22,20:40:30,Mon Mar 07 2022 20:40:30 GMT+0100 (közép-európai téli idő),The main experiment item,yes,0,0,C:/Users/rrics/Documents/!!ResearchBMECOGSCI/gnet,0,0,0,prototype2.png,no,mono,no,18,no,black,no,no,768,1187,3.5.6,legacy,xpyriment,osweb,1.3.13,0,space,space,space,,22565,24835,22565,,2,legacy,824,1536,24,864,24,-1,-1,1536,1646682027377,1024,2,48000,-16,experiment,prototype2.png,1,odd,Win32,73,136672,133668,73,73,648690,650197,643690,138210,643690,73,,,,,,visual_patterns,0,0,0,yes,1366
undefined,undefined,undefined,undefined,white,no,Mozilla,Netscape,"5.0 (Windows NT 10.0; Win64; x64) AppleWebKit/537.36 (KHTML, like Gecko) Chrome/98.0.4758.102 Safari/537.36",xpyriment,legacy,legacy,0,uniform,0,0,0,0,24,24,24,0,0,74,74,74,74,74,0,74,0,0,0,0,0,0,0,0,07-02-22,07-02-22,20:40:30,Mon Mar 07 2022 20:40:30 GMT+0100 (közép-európai téli idő),The main experiment item,yes,0,0,C:/Users/rrics/Documents/!!ResearchBMECOGSCI/gnet,0,0,0,prototype2.png,no,mono,no,18,no,black,no,no,768,1187,3.5.6,legacy,xpyriment,osweb,1.3.13,0,space,space,space,space,331635,24835,22565,331635,2,legacy,824,1536,24,864,24,-1,-1,1536,1646682027377,1024,2,48000,-16,experiment,p5sarrsha3.png,1,odd,Win32,73,136672,133668,73,73,648690,650197,643690,138210,643690,73,984895,986399,981890,650217,981890,visual_patterns,0,0,0,yes,1366
undefined,undefined,undefined,undefined,white,no,Mozilla,Netscape,"5.0 (Windows NT 10.0; Win64; x64) AppleWebKit/537.36 (KHTML, like Gecko) Chrome/98.0.4758.102 Safari/537.36",xpyriment,legacy,legacy,0,uniform,0,0,0,0,24,24,24,0,0,74,74,74,74,74,0,74,0,1,1,1,1,1,0,1,07-02-22,07-02-22,20:40:30,Mon Mar 07 2022 20:40:30 GMT+0100 (közép-európai téli idő),The main experiment item,yes,0,0,C:/Users/rrics/Documents/!!ResearchBMECOGSCI/gnet,0,0,0,prototype2.png,no,mono,no,18,no,black,no,no,768,1187,3.5.6,legacy,xpyriment,osweb,1.3.13,0,space,space,space,space,331635,24835,22565,331635,2,legacy,824,1536,24,864,24,-1,-1,1536,1646682027377,1024,2,48000,-16,experiment,p2sarrshacol1.png,1,odd,Win32,73,136672,133668,73,73,648690,650197,643690,138210,643690,73,989412,990916,986419,650217,986419,visual_patterns,0,0,0,yes,1366
undefined,undefined,undefined,undefined,white,no,Mozilla,Netscape,"5.0 (Windows NT 10.0; Win64; x64) AppleWebKit/537.36 (KHTML, like Gecko) Chrome/98.0.4758.102 Safari/537.36",xpyriment,legacy,legacy,0,uniform,0,0,0,0,24,24,24,0,0,74,74,74,74,74,0,74,0,2,2,2,2,2,0,2,07-02-22,07-02-22,20:40:30,Mon Mar 07 2022 20:40:30 GMT+0100 (közép-európai téli idő),The main experiment item,yes,0,0,C:/Users/rrics/Documents/!!ResearchBMECOGSCI/gnet,0,0,0,prototype2.png,no,mono,no,18,no,black,no,no,768,1187,3.5.6,legacy,xpyriment,osweb,1.3.13,0,space,space,space,space,331635,24835,22565,331635,2,legacy,824,1536,24,864,24,-1,-1,1536,1646682027377,1024,2,48000,-16,experiment,p4sarr4.png,1,odd,Win32,73,136672,133668,73,73,648690,650197,643690,138210,643690,73,993928,995433,990930,650217,990930,visual_patterns,0,0,0,yes,1366
undefined,undefined,undefined,undefined,white,no,Mozilla,Netscape,"5.0 (Windows NT 10.0; Win64; x64) AppleWebKit/537.36 (KHTML, like Gecko) Chrome/98.0.4758.102 Safari/537.36",xpyriment,legacy,legacy,0,uniform,0,0,0,0,24,24,24,0,0,74,74,74,74,74,0,74,0,3,3,3,3,3,0,3,07-02-22,07-02-22,20:40:30,Mon Mar 07 2022 20:40:30 GMT+0100 (közép-európai téli idő),The main experiment item,yes,0,0,C:/Users/rrics/Documents/!!ResearchBMECOGSCI/gnet,0,0,0,prototype2.png,no,mono,no,18,no,black,no,no,768,1187,3.5.6,legacy,xpyriment,osweb,1.3.13,0,space,space,space,space,331635,24835,22565,331635,2,legacy,824,1536,24,864,24,-1,-1,1536,1646682027377,1024,2,48000,-16,experiment,p5sarrsha2.png,1,odd,Win32,73,136672,133668,73,73,648690,650197,643690,138210,643690,73,998456,999966,995452,650217,995452,visual_patterns,0,0,0,yes,1366
undefined,undefined,undefined,undefined,white,no,Mozilla,Netscape,"5.0 (Windows NT 10.0; Win64; x64) AppleWebKit/537.36 (KHTML, like Gecko) Chrome/98.0.4758.102 Safari/537.36",xpyriment,legacy,legacy,0,uniform,0,0,0,0,24,24,24,0,0,74,74,74,74,74,0,74,0,4,4,4,4,4,0,4,07-02-22,07-02-22,20:40:30,Mon Mar 07 2022 20:40:30 GMT+0100 (közép-európai téli idő),The main experiment item,yes,0,0,C:/Users/rrics/Documents/!!ResearchBMECOGSCI/gnet,0,0,0,prototype2.png,no,mono,no,18,no,black,no,no,768,1187,3.5.6,legacy,xpyriment,osweb,1.3.13,0,space,space,space,space,331635,24835,22565,331635,2,legacy,824,1536,24,864,24,-1,-1,1536,1646682027377,1024,2,48000,-16,experiment,p7sarr2.png,1,odd,Win32,73,136672,133668,73,73,648690,650197,643690,138210,643690,73,1002985,1004499,999988,650217,999988,visual_patterns,0,0,0,yes,1366
undefined,undefined,undefined,undefined,white,no,Mozilla,Netscape,"5.0 (Windows NT 10.0; Win64; x64) AppleWebKit/537.36 (KHTML, like Gecko) Chrome/98.0.4758.102 Safari/537.36",xpyriment,legacy,legacy,0,uniform,0,0,0,0,24,24,24,0,0,74,74,74,74,74,0,74,0,5,5,5,5,5,0,5,07-02-22,07-02-22,20:40:30,Mon Mar 07 2022 20:40:30 GMT+0100 (közép-európai téli idő),The main experiment item,yes,0,0,C:/Users/rrics/Documents/!!ResearchBMECOGSCI/gnet,0,0,0,prototype2.png,no,mono,no,18,no,black,no,no,768,1187,3.5.6,legacy,xpyriment,osweb,1.3.13,0,space,space,space,space,331635,24835,22565,331635,2,legacy,824,1536,24,864,24,-1,-1,1536,1646682027377,1024,2,48000,-16,experiment,p1sarrsha4.png,1,odd,Win32,73,136672,133668,73,73,648690,650197,643690,138210,643690,73,1007512,1009017,1004513,650217,1004513,visual_patterns,0,0,0,yes,1366
undefined,undefined,undefined,undefined,white,no,Mozilla,Netscape,"5.0 (Windows NT 10.0; Win64; x64) AppleWebKit/537.36 (KHTML, like Gecko) Chrome/98.0.4758.102 Safari/537.36",xpyriment,legacy,legacy,0,uniform,0,0,0,0,24,24,24,0,0,74,74,74,74,74,0,74,0,6,6,6,6,6,0,6,07-02-22,07-02-22,20:40:30,Mon Mar 07 2022 20:40:30 GMT+0100 (közép-európai téli idő),The main experiment item,yes,0,0,C:/Users/rrics/Documents/!!ResearchBMECOGSCI/gnet,0,0,0,prototype2.png,no,mono,no,18,no,black,no,no,768,1187,3.5.6,legacy,xpyriment,osweb,1.3.13,0,space,space,space,space,331635,24835,22565,331635,2,legacy,824,1536,24,864,24,-1,-1,1536,1646682027377,1024,2,48000,-16,experiment,p3sarrcol2.png,1,odd,Win32,73,136672,133668,73,73,648690,650197,643690,138210,643690,73,1012034,1013550,1009044,650217,1009044,visual_patterns,0,0,0,yes,1366
undefined,undefined,undefined,undefined,white,no,Mozilla,Netscape,"5.0 (Windows NT 10.0; Win64; x64) AppleWebKit/537.36 (KHTML, like Gecko) Chrome/98.0.4758.102 Safari/537.36",xpyriment,legacy,legacy,0,uniform,0,0,0,0,24,24,24,0,0,74,74,74,74,74,0,74,0,7,7,7,7,7,0,7,07-02-22,07-02-22,20:40:30,Mon Mar 07 2022 20:40:30 GMT+0100 (közép-európai téli idő),The main experiment item,yes,0,0,C:/Users/rrics/Documents/!!ResearchBMECOGSCI/gnet,0,0,0,prototype2.png,no,mono,no,18,no,black,no,no,768,1187,3.5.6,legacy,xpyriment,osweb,1.3.13,0,space,space,space,space,331635,24835,22565,331635,2,legacy,824,1536,24,864,24,-1,-1,1536,1646682027377,1024,2,48000,-16,experiment,p3sarrcol3.png,1,odd,Win32,73,136672,133668,73,73,648690,650197,643690,138210,643690,73,1016568,1018084,1013564,650217,1013564,visual_patterns,0,0,0,yes,1366
undefined,undefined,undefined,undefined,white,no,Mozilla,Netscape,"5.0 (Windows NT 10.0; Win64; x64) AppleWebKit/537.36 (KHTML, like Gecko) Chrome/98.0.4758.102 Safari/537.36",xpyriment,legacy,legacy,0,uniform,0,0,0,0,24,24,24,0,0,74,74,74,74,74,0,74,0,8,8,8,8,8,0,8,07-02-22,07-02-22,20:40:30,Mon Mar 07 2022 20:40:30 GMT+0100 (közép-európai téli idő),The main experiment item,yes,0,0,C:/Users/rrics/Documents/!!ResearchBMECOGSCI/gnet,0,0,0,prototype2.png,no,mono,no,18,no,black,no,no,768,1187,3.5.6,legacy,xpyriment,osweb,1.3.13,0,space,space,space,space,331635,24835,22565,331635,2,legacy,824,1536,24,864,24,-1,-1,1536,1646682027377,1024,2,48000,-16,experiment,p1sarrsha1.png,1,odd,Win32,73,136672,133668,73,73,648690,650197,643690,138210,643690,73,1021098,1022601,1018098,650217,1018098,visual_patterns,0,0,0,yes,1366
undefined,undefined,undefined,undefined,white,no,Mozilla,Netscape,"5.0 (Windows NT 10.0; Win64; x64) AppleWebKit/537.36 (KHTML, like Gecko) Chrome/98.0.4758.102 Safari/537.36",xpyriment,legacy,legacy,0,uniform,0,0,0,0,24,24,24,0,0,74,74,74,74,74,0,74,0,9,9,9,9,9,0,9,07-02-22,07-02-22,20:40:30,Mon Mar 07 2022 20:40:30 GMT+0100 (közép-európai téli idő),The main experiment item,yes,0,0,C:/Users/rrics/Documents/!!ResearchBMECOGSCI/gnet,0,0,0,prototype2.png,no,mono,no,18,no,black,no,no,768,1187,3.5.6,legacy,xpyriment,osweb,1.3.13,0,space,space,space,space,331635,24835,22565,331635,2,legacy,824,1536,24,864,24,-1,-1,1536,1646682027377,1024,2,48000,-16,experiment,p4sarr1.png,1,odd,Win32,73,136672,133668,73,73,648690,650197,643690,138210,643690,73,1025651,1027167,1022650,650217,1022650,visual_patterns,0,0,0,yes,1366
undefined,undefined,undefined,undefined,white,no,Mozilla,Netscape,"5.0 (Windows NT 10.0; Win64; x64) AppleWebKit/537.36 (KHTML, like Gecko) Chrome/98.0.4758.102 Safari/537.36",xpyriment,legacy,legacy,0,uniform,0,0,0,0,24,24,24,0,0,74,74,74,74,74,0,74,0,10,10,10,10,10,0,10,07-02-22,07-02-22,20:40:30,Mon Mar 07 2022 20:40:30 GMT+0100 (közép-európai téli idő),The main experiment item,yes,0,0,C:/Users/rrics/Documents/!!ResearchBMECOGSCI/gnet,0,0,0,prototype2.png,no,mono,no,18,no,black,no,no,768,1187,3.5.6,legacy,xpyriment,osweb,1.3.13,0,space,space,space,space,331635,24835,22565,331635,2,legacy,824,1536,24,864,24,-1,-1,1536,1646682027377,1024,2,48000,-16,experiment,p9sarr2.png,1,odd,Win32,73,136672,133668,73,73,648690,650197,643690,138210,643690,73,1030191,1031701,1027184,650217,1027184,visual_patterns,0,0,0,yes,1366
undefined,undefined,undefined,undefined,white,no,Mozilla,Netscape,"5.0 (Windows NT 10.0; Win64; x64) AppleWebKit/537.36 (KHTML, like Gecko) Chrome/98.0.4758.102 Safari/537.36",xpyriment,legacy,legacy,0,uniform,0,0,0,0,24,24,24,0,0,74,74,74,74,74,0,74,0,11,11,11,11,11,0,11,07-02-22,07-02-22,20:40:30,Mon Mar 07 2022 20:40:30 GMT+0100 (közép-európai téli idő),The main experiment item,yes,0,0,C:/Users/rrics/Documents/!!ResearchBMECOGSCI/gnet,0,0,0,prototype2.png,no,mono,no,18,no,black,no,no,768,1187,3.5.6,legacy,xpyriment,osweb,1.3.13,0,space,space,space,space,331635,24835,22565,331635,2,legacy,824,1536,24,864,24,-1,-1,1536,1646682027377,1024,2,48000,-16,experiment,p1sarr2.png,1,odd,Win32,73,136672,133668,73,73,648690,650197,643690,138210,643690,73,1034718,1036236,1031717,650217,1031717,visual_patterns,0,0,0,yes,1366
undefined,undefined,undefined,undefined,white,no,Mozilla,Netscape,"5.0 (Windows NT 10.0; Win64; x64) AppleWebKit/537.36 (KHTML, like Gecko) Chrome/98.0.4758.102 Safari/537.36",xpyriment,legacy,legacy,0,uniform,0,0,0,0,24,24,24,0,0,74,74,74,74,74,0,74,0,12,12,12,12,12,0,12,07-02-22,07-02-22,20:40:30,Mon Mar 07 2022 20:40:30 GMT+0100 (közép-európai téli idő),The main experiment item,yes,0,0,C:/Users/rrics/Documents/!!ResearchBMECOGSCI/gnet,0,0,0,prototype2.png,no,mono,no,18,no,black,no,no,768,1187,3.5.6,legacy,xpyriment,osweb,1.3.13,0,space,space,space,space,331635,24835,22565,331635,2,legacy,824,1536,24,864,24,-1,-1,1536,1646682027377,1024,2,48000,-16,experiment,p3sarrcol4.png,1,odd,Win32,73,136672,133668,73,73,648690,650197,643690,138210,643690,73,1039250,1040752,1036249,650217,1036249,visual_patterns,0,0,0,yes,1366
undefined,undefined,undefined,undefined,white,no,Mozilla,Netscape,"5.0 (Windows NT 10.0; Win64; x64) AppleWebKit/537.36 (KHTML, like Gecko) Chrome/98.0.4758.102 Safari/537.36",xpyriment,legacy,legacy,0,uniform,0,0,0,0,24,24,24,0,0,74,74,74,74,74,0,74,0,13,13,13,13,13,0,13,07-02-22,07-02-22,20:40:30,Mon Mar 07 2022 20:40:30 GMT+0100 (közép-európai téli idő),The main experiment item,yes,0,0,C:/Users/rrics/Documents/!!ResearchBMECOGSCI/gnet,0,0,0,prototype2.png,no,mono,no,18,no,black,no,no,768,1187,3.5.6,legacy,xpyriment,osweb,1.3.13,0,space,space,space,space,331635,24835,22565,331635,2,legacy,824,1536,24,864,24,-1,-1,1536,1646682027377,1024,2,48000,-16,experiment,p2sarrshacol2.png,1,odd,Win32,73,136672,133668,73,73,648690,650197,643690,138210,643690,73,1043776,1045285,1040781,650217,1040781,visual_patterns,0,0,0,yes,1366
undefined,undefined,undefined,undefined,white,no,Mozilla,Netscape,"5.0 (Windows NT 10.0; Win64; x64) AppleWebKit/537.36 (KHTML, like Gecko) Chrome/98.0.4758.102 Safari/537.36",xpyriment,legacy,legacy,0,uniform,0,0,0,0,24,24,24,0,0,74,74,74,74,74,0,74,0,14,14,14,14,14,0,14,07-02-22,07-02-22,20:40:30,Mon Mar 07 2022 20:40:30 GMT+0100 (közép-európai téli idő),The main experiment item,yes,0,0,C:/Users/rrics/Documents/!!ResearchBMECOGSCI/gnet,0,0,0,prototype2.png,no,mono,no,18,no,black,no,no,768,1187,3.5.6,legacy,xpyriment,osweb,1.3.13,0,space,space,space,space,331635,24835,22565,331635,2,legacy,824,1536,24,864,24,-1,-1,1536,1646682027377,1024,2,48000,-16,experiment,p6sarr1.png,1,odd,Win32,73,136672,133668,73,73,648690,650197,643690,138210,643690,73,1048342,1049843,1045338,650217,1045338,visual_patterns,0,0,0,yes,1366
undefined,undefined,undefined,undefined,white,no,Mozilla,Netscape,"5.0 (Windows NT 10.0; Win64; x64) AppleWebKit/537.36 (KHTML, like Gecko) Chrome/98.0.4758.102 Safari/537.36",xpyriment,legacy,legacy,0,uniform,0,0,0,0,24,24,24,0,0,74,74,74,74,74,0,74,0,15,15,15,15,15,0,15,07-02-22,07-02-22,20:40:30,Mon Mar 07 2022 20:40:30 GMT+0100 (közép-európai téli idő),The main experiment item,yes,0,0,C:/Users/rrics/Documents/!!ResearchBMECOGSCI/gnet,0,0,0,prototype2.png,no,mono,no,18,no,black,no,no,768,1187,3.5.6,legacy,xpyriment,osweb,1.3.13,0,space,space,space,space,331635,24835,22565,331635,2,legacy,824,1536,24,864,24,-1,-1,1536,1646682027377,1024,2,48000,-16,experiment,p4sarrshacol3.png,1,odd,Win32,73,136672,133668,73,73,648690,650197,643690,138210,643690,73,1052862,1054369,1049875,650217,1049875,visual_patterns,0,0,0,yes,1366
undefined,undefined,undefined,undefined,white,no,Mozilla,Netscape,"5.0 (Windows NT 10.0; Win64; x64) AppleWebKit/537.36 (KHTML, like Gecko) Chrome/98.0.4758.102 Safari/537.36",xpyriment,legacy,legacy,0,uniform,0,0,0,0,24,24,24,0,0,74,74,74,74,74,0,74,0,16,16,16,16,16,0,16,07-02-22,07-02-22,20:40:30,Mon Mar 07 2022 20:40:30 GMT+0100 (közép-európai téli idő),The main experiment item,yes,0,0,C:/Users/rrics/Documents/!!ResearchBMECOGSCI/gnet,0,0,0,prototype2.png,no,mono,no,18,no,black,no,no,768,1187,3.5.6,legacy,xpyriment,osweb,1.3.13,0,space,space,space,space,331635,24835,22565,331635,2,legacy,824,1536,24,864,24,-1,-1,1536,1646682027377,1024,2,48000,-16,experiment,p4sarrshacol4.png,1,odd,Win32,73,136672,133668,73,73,648690,650197,643690,138210,643690,73,1057390,1058903,1054385,650217,1054385,visual_patterns,0,0,0,yes,1366
undefined,undefined,undefined,undefined,white,no,Mozilla,Netscape,"5.0 (Windows NT 10.0; Win64; x64) AppleWebKit/537.36 (KHTML, like Gecko) Chrome/98.0.4758.102 Safari/537.36",xpyriment,legacy,legacy,0,uniform,0,0,0,0,24,24,24,0,0,74,74,74,74,74,0,74,0,17,17,17,17,17,0,17,07-02-22,07-02-22,20:40:30,Mon Mar 07 2022 20:40:30 GMT+0100 (közép-európai téli idő),The main experiment item,yes,0,0,C:/Users/rrics/Documents/!!ResearchBMECOGSCI/gnet,0,0,0,prototype2.png,no,mono,no,18,no,black,no,no,768,1187,3.5.6,legacy,xpyriment,osweb,1.3.13,0,space,space,space,space,331635,24835,22565,331635,2,legacy,824,1536,24,864,24,-1,-1,1536,1646682027377,1024,2,48000,-16,experiment,p2sarrcol1.png,1,odd,Win32,73,136672,133668,73,73,648690,650197,643690,138210,643690,73,1061926,1063436,1058919,650217,1058919,visual_patterns,0,0,0,yes,1366
undefined,undefined,undefined,undefined,white,no,Mozilla,Netscape,"5.0 (Windows NT 10.0; Win64; x64) AppleWebKit/537.36 (KHTML, like Gecko) Chrome/98.0.4758.102 Safari/537.36",xpyriment,legacy,legacy,0,uniform,0,0,0,0,24,24,24,0,0,74,74,74,74,74,0,74,0,18,18,18,18,18,0,18,07-02-22,07-02-22,20:40:30,Mon Mar 07 2022 20:40:30 GMT+0100 (közép-európai téli idő),The main experiment item,yes,0,0,C:/Users/rrics/Documents/!!ResearchBMECOGSCI/gnet,0,0,0,prototype2.png,no,mono,no,18,no,black,no,no,768,1187,3.5.6,legacy,xpyriment,osweb,1.3.13,0,space,space,space,space,331635,24835,22565,331635,2,legacy,824,1536,24,864,24,-1,-1,1536,1646682027377,1024,2,48000,-16,experiment,p1sarr4.png,1,odd,Win32,73,136672,133668,73,73,648690,650197,643690,138210,643690,73,1066453,1067970,1063466,650217,1063466,visual_patterns,0,0,0,yes,1366
undefined,undefined,undefined,undefined,white,no,Mozilla,Netscape,"5.0 (Windows NT 10.0; Win64; x64) AppleWebKit/537.36 (KHTML, like Gecko) Chrome/98.0.4758.102 Safari/537.36",xpyriment,legacy,legacy,0,uniform,0,0,0,0,24,24,24,0,0,74,74,74,74,74,0,74,0,19,19,19,19,19,0,19,07-02-22,07-02-22,20:40:30,Mon Mar 07 2022 20:40:30 GMT+0100 (közép-európai téli idő),The main experiment item,yes,0,0,C:/Users/rrics/Documents/!!ResearchBMECOGSCI/gnet,0,0,0,prototype2.png,no,mono,no,18,no,black,no,no,768,1187,3.5.6,legacy,xpyriment,osweb,1.3.13,0,space,space,space,space,331635,24835,22565,331635,2,legacy,824,1536,24,864,24,-1,-1,1536,1646682027377,1024,2,48000,-16,experiment,p10sarr1.png,1,odd,Win32,73,136672,133668,73,73,648690,650197,643690,138210,643690,73,1071031,1072537,1068021,650217,1068021,visual_patterns,0,0,0,yes,1366
undefined,undefined,undefined,undefined,white,no,Mozilla,Netscape,"5.0 (Windows NT 10.0; Win64; x64) AppleWebKit/537.36 (KHTML, like Gecko) Chrome/98.0.4758.102 Safari/537.36",xpyriment,legacy,legacy,0,uniform,0,0,0,0,24,24,24,0,0,74,74,74,74,74,0,74,0,20,20,20,20,20,0,20,07-02-22,07-02-22,20:40:30,Mon Mar 07 2022 20:40:30 GMT+0100 (közép-európai téli idő),The main experiment item,yes,0,0,C:/Users/rrics/Documents/!!ResearchBMECOGSCI/gnet,0,0,0,prototype2.png,no,mono,no,18,no,black,no,no,768,1187,3.5.6,legacy,xpyriment,osweb,1.3.13,0,space,space,space,space,331635,24835,22565,331635,2,legacy,824,1536,24,864,24,-1,-1,1536,1646682027377,1024,2,48000,-16,experiment,p8sarr3.png,1,odd,Win32,73,136672,133668,73,73,648690,650197,643690,138210,643690,73,1075554,1077070,1072552,650217,1072552,visual_patterns,0,0,0,yes,1366
undefined,undefined,undefined,undefined,white,no,Mozilla,Netscape,"5.0 (Windows NT 10.0; Win64; x64) AppleWebKit/537.36 (KHTML, like Gecko) Chrome/98.0.4758.102 Safari/537.36",xpyriment,legacy,legacy,0,uniform,0,0,0,0,24,24,24,0,0,74,74,74,74,74,0,74,0,21,21,21,21,21,0,21,07-02-22,07-02-22,20:40:30,Mon Mar 07 2022 20:40:30 GMT+0100 (közép-európai téli idő),The main experiment item,yes,0,0,C:/Users/rrics/Documents/!!ResearchBMECOGSCI/gnet,0,0,0,prototype2.png,no,mono,no,18,no,black,no,no,768,1187,3.5.6,legacy,xpyriment,osweb,1.3.13,0,space,space,space,space,331635,24835,22565,331635,2,legacy,824,1536,24,864,24,-1,-1,1536,1646682027377,1024,2,48000,-16,experiment,p9sarr4.png,1,odd,Win32,73,136672,133668,73,73,648690,650197,643690,138210,643690,73,1080087,1081604,1077085,650217,1077085,visual_patterns,0,0,0,yes,1366
undefined,undefined,undefined,undefined,white,no,Mozilla,Netscape,"5.0 (Windows NT 10.0; Win64; x64) AppleWebKit/537.36 (KHTML, like Gecko) Chrome/98.0.4758.102 Safari/537.36",xpyriment,legacy,legacy,0,uniform,0,0,0,0,24,24,24,0,0,74,74,74,74,74,0,74,0,22,22,22,22,22,0,22,07-02-22,07-02-22,20:40:30,Mon Mar 07 2022 20:40:30 GMT+0100 (közép-európai téli idő),The main experiment item,yes,0,0,C:/Users/rrics/Documents/!!ResearchBMECOGSCI/gnet,0,0,0,prototype2.png,no,mono,no,18,no,black,no,no,768,1187,3.5.6,legacy,xpyriment,osweb,1.3.13,0,space,space,space,space,331635,24835,22565,331635,2,legacy,824,1536,24,864,24,-1,-1,1536,1646682027377,1024,2,48000,-16,experiment,p5sarrcol2.png,1,odd,Win32,73,136672,133668,73,73,648690,650197,643690,138210,643690,73,1084617,1086121,1081620,650217,1081619,visual_patterns,0,0,0,yes,1366
undefined,undefined,undefined,undefined,white,no,Mozilla,Netscape,"5.0 (Windows NT 10.0; Win64; x64) AppleWebKit/537.36 (KHTML, like Gecko) Chrome/98.0.4758.102 Safari/537.36",xpyriment,legacy,legacy,0,uniform,0,0,0,0,24,24,24,0,0,74,74,74,74,74,0,74,0,23,23,23,23,23,0,23,07-02-22,07-02-22,20:40:30,Mon Mar 07 2022 20:40:30 GMT+0100 (közép-európai téli idő),The main experiment item,yes,0,0,C:/Users/rrics/Documents/!!ResearchBMECOGSCI/gnet,0,0,0,prototype2.png,no,mono,no,18,no,black,no,no,768,1187,3.5.6,legacy,xpyriment,osweb,1.3.13,0,space,space,space,space,331635,24835,22565,331635,2,legacy,824,1536,24,864,24,-1,-1,1536,1646682027377,1024,2,48000,-16,experiment,p7sarr4.png,1,odd,Win32,73,136672,133668,73,73,648690,650197,643690,138210,643690,73,1089134,1090638,1086136,650217,1086136,visual_patterns,0,0,0,yes,1366
undefined,undefined,undefined,undefined,white,no,Mozilla,Netscape,"5.0 (Windows NT 10.0; Win64; x64) AppleWebKit/537.36 (KHTML, like Gecko) Chrome/98.0.4758.102 Safari/537.36",xpyriment,legacy,legacy,0,uniform,0,0,0,0,24,24,24,0,0,74,74,74,74,74,0,74,0,24,24,24,24,24,0,24,07-02-22,07-02-22,20:40:30,Mon Mar 07 2022 20:40:30 GMT+0100 (közép-európai téli idő),The main experiment item,yes,0,0,C:/Users/rrics/Documents/!!ResearchBMECOGSCI/gnet,0,0,0,prototype2.png,no,mono,no,18,no,black,no,no,768,1187,3.5.6,legacy,xpyriment,osweb,1.3.13,0,space,space,space,space,331635,24835,22565,331635,2,legacy,824,1536,24,864,24,-1,-1,1536,1646682027377,1024,2,48000,-16,experiment,p3sarrsha3.png,1,odd,Win32,73,136672,133668,73,73,648690,650197,643690,138210,643690,73,1093689,1095205,1090688,650217,1090688,visual_patterns,0,0,0,yes,1366
undefined,undefined,undefined,undefined,white,no,Mozilla,Netscape,"5.0 (Windows NT 10.0; Win64; x64) AppleWebKit/537.36 (KHTML, like Gecko) Chrome/98.0.4758.102 Safari/537.36",xpyriment,legacy,legacy,0,uniform,0,0,0,0,24,24,24,0,0,74,74,74,74,74,0,74,0,25,25,25,25,25,0,25,07-02-22,07-02-22,20:40:30,Mon Mar 07 2022 20:40:30 GMT+0100 (közép-európai téli idő),The main experiment item,yes,0,0,C:/Users/rrics/Documents/!!ResearchBMECOGSCI/gnet,0,0,0,prototype2.png,no,mono,no,18,no,black,no,no,768,1187,3.5.6,legacy,xpyriment,osweb,1.3.13,0,space,space,space,space,331635,24835,22565,331635,2,legacy,824,1536,24,864,24,-1,-1,1536,1646682027377,1024,2,48000,-16,experiment,p8sarr4.png,1,odd,Win32,73,136672,133668,73,73,648690,650197,643690,138210,643690,73,1098221,1099738,1095219,650217,1095219,visual_patterns,0,0,0,yes,1366
undefined,undefined,undefined,undefined,white,no,Mozilla,Netscape,"5.0 (Windows NT 10.0; Win64; x64) AppleWebKit/537.36 (KHTML, like Gecko) Chrome/98.0.4758.102 Safari/537.36",xpyriment,legacy,legacy,0,uniform,0,0,0,0,24,24,24,0,0,74,74,74,74,74,0,74,0,26,26,26,26,26,0,26,07-02-22,07-02-22,20:40:30,Mon Mar 07 2022 20:40:30 GMT+0100 (közép-európai téli idő),The main experiment item,yes,0,0,C:/Users/rrics/Documents/!!ResearchBMECOGSCI/gnet,0,0,0,prototype2.png,no,mono,no,18,no,black,no,no,768,1187,3.5.6,legacy,xpyriment,osweb,1.3.13,0,space,space,space,space,331635,24835,22565,331635,2,legacy,824,1536,24,864,24,-1,-1,1536,1646682027377,1024,2,48000,-16,experiment,p2sarrshacol4.png,1,odd,Win32,73,136672,133668,73,73,648690,650197,643690,138210,643690,73,1102757,1104272,1099754,650217,1099754,visual_patterns,0,0,0,yes,1366
undefined,undefined,undefined,undefined,white,no,Mozilla,Netscape,"5.0 (Windows NT 10.0; Win64; x64) AppleWebKit/537.36 (KHTML, like Gecko) Chrome/98.0.4758.102 Safari/537.36",xpyriment,legacy,legacy,0,uniform,0,0,0,0,24,24,24,0,0,74,74,74,74,74,0,74,0,27,27,27,27,27,0,27,07-02-22,07-02-22,20:40:30,Mon Mar 07 2022 20:40:30 GMT+0100 (közép-európai téli idő),The main experiment item,yes,0,0,C:/Users/rrics/Documents/!!ResearchBMECOGSCI/gnet,0,0,0,prototype2.png,no,mono,no,18,no,black,no,no,768,1187,3.5.6,legacy,xpyriment,osweb,1.3.13,0,space,space,space,space,331635,24835,22565,331635,2,legacy,824,1536,24,864,24,-1,-1,1536,1646682027377,1024,2,48000,-16,experiment,p4sarrshacol1.png,1,odd,Win32,73,136672,133668,73,73,648690,650197,643690,138210,643690,73,1107284,1108789,1104283,650217,1104283,visual_patterns,0,0,0,yes,1366
undefined,undefined,undefined,undefined,white,no,Mozilla,Netscape,"5.0 (Windows NT 10.0; Win64; x64) AppleWebKit/537.36 (KHTML, like Gecko) Chrome/98.0.4758.102 Safari/537.36",xpyriment,legacy,legacy,0,uniform,0,0,0,0,24,24,24,0,0,74,74,74,74,74,0,74,0,28,28,28,28,28,0,28,07-02-22,07-02-22,20:40:30,Mon Mar 07 2022 20:40:30 GMT+0100 (közép-európai téli idő),The main experiment item,yes,0,0,C:/Users/rrics/Documents/!!ResearchBMECOGSCI/gnet,0,0,0,prototype2.png,no,mono,no,18,no,black,no,no,768,1187,3.5.6,legacy,xpyriment,osweb,1.3.13,0,space,space,space,space,331635,24835,22565,331635,2,legacy,824,1536,24,864,24,-1,-1,1536,1646682027377,1024,2,48000,-16,experiment,p1sarrshacol3.png,1,odd,Win32,73,136672,133668,73,73,648690,650197,643690,138210,643690,73,1111806,1113322,1108818,650217,1108818,visual_patterns,0,0,0,yes,1366
undefined,undefined,undefined,undefined,white,no,Mozilla,Netscape,"5.0 (Windows NT 10.0; Win64; x64) AppleWebKit/537.36 (KHTML, like Gecko) Chrome/98.0.4758.102 Safari/537.36",xpyriment,legacy,legacy,0,uniform,0,0,0,0,24,24,24,0,0,74,74,74,74,74,0,74,0,29,29,29,29,29,0,29,07-02-22,07-02-22,20:40:30,Mon Mar 07 2022 20:40:30 GMT+0100 (közép-európai téli idő),The main experiment item,yes,0,0,C:/Users/rrics/Documents/!!ResearchBMECOGSCI/gnet,0,0,0,prototype2.png,no,mono,no,18,no,black,no,no,768,1187,3.5.6,legacy,xpyriment,osweb,1.3.13,0,space,space,space,space,331635,24835,22565,331635,2,legacy,824,1536,24,864,24,-1,-1,1536,1646682027377,1024,2,48000,-16,experiment,p2sarrsha1.png,1,odd,Win32,73,136672,133668,73,73,648690,650197,643690,138210,643690,73,1116338,1117839,1113346,650217,1113346,visual_patterns,0,0,0,yes,1366
undefined,undefined,undefined,undefined,white,no,Mozilla,Netscape,"5.0 (Windows NT 10.0; Win64; x64) AppleWebKit/537.36 (KHTML, like Gecko) Chrome/98.0.4758.102 Safari/537.36",xpyriment,legacy,legacy,0,uniform,0,0,0,0,24,24,24,0,0,74,74,74,74,74,0,74,0,30,30,30,30,30,0,30,07-02-22,07-02-22,20:40:30,Mon Mar 07 2022 20:40:30 GMT+0100 (közép-európai téli idő),The main experiment item,yes,0,0,C:/Users/rrics/Documents/!!ResearchBMECOGSCI/gnet,0,0,0,prototype2.png,no,mono,no,18,no,black,no,no,768,1187,3.5.6,legacy,xpyriment,osweb,1.3.13,0,space,space,space,space,331635,24835,22565,331635,2,legacy,824,1536,24,864,24,-1,-1,1536,1646682027377,1024,2,48000,-16,experiment,p3sarr2.png,1,odd,Win32,73,136672,133668,73,73,648690,650197,643690,138210,643690,73,1120857,1122373,1117862,650217,1117862,visual_patterns,0,0,0,yes,1366
undefined,undefined,undefined,undefined,white,no,Mozilla,Netscape,"5.0 (Windows NT 10.0; Win64; x64) AppleWebKit/537.36 (KHTML, like Gecko) Chrome/98.0.4758.102 Safari/537.36",xpyriment,legacy,legacy,0,uniform,0,0,0,0,24,24,24,0,0,74,74,74,74,74,0,74,0,31,31,31,31,31,0,31,07-02-22,07-02-22,20:40:30,Mon Mar 07 2022 20:40:30 GMT+0100 (közép-európai téli idő),The main experiment item,yes,0,0,C:/Users/rrics/Documents/!!ResearchBMECOGSCI/gnet,0,0,0,prototype2.png,no,mono,no,18,no,black,no,no,768,1187,3.5.6,legacy,xpyriment,osweb,1.3.13,0,space,space,space,space,331635,24835,22565,331635,2,legacy,824,1536,24,864,24,-1,-1,1536,1646682027377,1024,2,48000,-16,experiment,p3sarrshacol3.png,1,odd,Win32,73,136672,133668,73,73,648690,650197,643690,138210,643690,73,1125390,1126906,1122395,650217,1122395,visual_patterns,0,0,0,yes,1366
undefined,undefined,undefined,undefined,white,no,Mozilla,Netscape,"5.0 (Windows NT 10.0; Win64; x64) AppleWebKit/537.36 (KHTML, like Gecko) Chrome/98.0.4758.102 Safari/537.36",xpyriment,legacy,legacy,0,uniform,0,0,0,0,24,24,24,0,0,74,74,74,74,74,0,74,0,32,32,32,32,32,0,32,07-02-22,07-02-22,20:40:30,Mon Mar 07 2022 20:40:30 GMT+0100 (közép-európai téli idő),The main experiment item,yes,0,0,C:/Users/rrics/Documents/!!ResearchBMECOGSCI/gnet,0,0,0,prototype2.png,no,mono,no,18,no,black,no,no,768,1187,3.5.6,legacy,xpyriment,osweb,1.3.13,0,space,space,space,space,331635,24835,22565,331635,2,legacy,824,1536,24,864,24,-1,-1,1536,1646682027377,1024,2,48000,-16,experiment,p2sarrcol4.png,1,odd,Win32,73,136672,133668,73,73,648690,650197,643690,138210,643690,73,1129924,1131440,1126922,650217,1126922,visual_patterns,0,0,0,yes,1366
undefined,undefined,undefined,undefined,white,no,Mozilla,Netscape,"5.0 (Windows NT 10.0; Win64; x64) AppleWebKit/537.36 (KHTML, like Gecko) Chrome/98.0.4758.102 Safari/537.36",xpyriment,legacy,legacy,0,uniform,0,0,0,0,24,24,24,0,0,74,74,74,74,74,0,74,0,33,33,33,33,33,0,33,07-02-22,07-02-22,20:40:30,Mon Mar 07 2022 20:40:30 GMT+0100 (közép-európai téli idő),The main experiment item,yes,0,0,C:/Users/rrics/Documents/!!ResearchBMECOGSCI/gnet,0,0,0,prototype2.png,no,mono,no,18,no,black,no,no,768,1187,3.5.6,legacy,xpyriment,osweb,1.3.13,0,space,space,space,space,331635,24835,22565,331635,2,legacy,824,1536,24,864,24,-1,-1,1536,1646682027377,1024,2,48000,-16,experiment,p5sarrcol1.png,1,odd,Win32,73,136672,133668,73,73,648690,650197,643690,138210,643690,73,1134458,1135973,1131453,650217,1131453,visual_patterns,0,0,0,yes,1366
undefined,undefined,undefined,undefined,white,no,Mozilla,Netscape,"5.0 (Windows NT 10.0; Win64; x64) AppleWebKit/537.36 (KHTML, like Gecko) Chrome/98.0.4758.102 Safari/537.36",xpyriment,legacy,legacy,0,uniform,0,0,0,0,24,24,24,0,0,74,74,74,74,74,0,74,0,34,34,34,34,34,0,34,07-02-22,07-02-22,20:40:30,Mon Mar 07 2022 20:40:30 GMT+0100 (közép-európai téli idő),The main experiment item,yes,0,0,C:/Users/rrics/Documents/!!ResearchBMECOGSCI/gnet,0,0,0,prototype2.png,no,mono,no,18,no,black,no,no,768,1187,3.5.6,legacy,xpyriment,osweb,1.3.13,0,space,space,space,space,331635,24835,22565,331635,2,legacy,824,1536,24,864,24,-1,-1,1536,1646682027377,1024,2,48000,-16,experiment,p8sarr2.png,1,odd,Win32,73,136672,133668,73,73,648690,650197,643690,138210,643690,73,1138985,1140490,1135983,650217,1135983,visual_patterns,0,0,0,yes,1366
undefined,undefined,undefined,undefined,white,no,Mozilla,Netscape,"5.0 (Windows NT 10.0; Win64; x64) AppleWebKit/537.36 (KHTML, like Gecko) Chrome/98.0.4758.102 Safari/537.36",xpyriment,legacy,legacy,0,uniform,0,0,0,0,24,24,24,0,0,74,74,74,74,74,0,74,0,35,35,35,35,35,0,35,07-02-22,07-02-22,20:40:30,Mon Mar 07 2022 20:40:30 GMT+0100 (közép-európai téli idő),The main experiment item,yes,0,0,C:/Users/rrics/Documents/!!ResearchBMECOGSCI/gnet,0,0,0,prototype2.png,no,mono,no,18,no,black,no,no,768,1187,3.5.6,legacy,xpyriment,osweb,1.3.13,0,space,space,space,space,331635,24835,22565,331635,2,legacy,824,1536,24,864,24,-1,-1,1536,1646682027377,1024,2,48000,-16,experiment,p5sarr3.png,1,odd,Win32,73,136672,133668,73,73,648690,650197,643690,138210,643690,73,1143509,1145024,1140520,650217,1140520,visual_patterns,0,0,0,yes,1366
undefined,undefined,undefined,undefined,white,no,Mozilla,Netscape,"5.0 (Windows NT 10.0; Win64; x64) AppleWebKit/537.36 (KHTML, like Gecko) Chrome/98.0.4758.102 Safari/537.36",xpyriment,legacy,legacy,0,uniform,0,0,0,0,24,24,24,0,0,74,74,74,74,74,0,74,0,36,36,36,36,36,0,36,07-02-22,07-02-22,20:40:30,Mon Mar 07 2022 20:40:30 GMT+0100 (közép-európai téli idő),The main experiment item,yes,0,0,C:/Users/rrics/Documents/!!ResearchBMECOGSCI/gnet,0,0,0,prototype2.png,no,mono,no,18,no,black,no,no,768,1187,3.5.6,legacy,xpyriment,osweb,1.3.13,0,space,space,space,space,331635,24835,22565,331635,2,legacy,824,1536,24,864,24,-1,-1,1536,1646682027377,1024,2,48000,-16,experiment,p7sarr1.png,1,odd,Win32,73,136672,133668,73,73,648690,650197,643690,138210,643690,73,1148047,1149557,1145036,650217,1145036,visual_patterns,0,0,0,yes,1366
undefined,undefined,undefined,undefined,white,no,Mozilla,Netscape,"5.0 (Windows NT 10.0; Win64; x64) AppleWebKit/537.36 (KHTML, like Gecko) Chrome/98.0.4758.102 Safari/537.36",xpyriment,legacy,legacy,0,uniform,0,0,0,0,24,24,24,0,0,74,74,74,74,74,0,74,0,37,37,37,37,37,0,37,07-02-22,07-02-22,20:40:30,Mon Mar 07 2022 20:40:30 GMT+0100 (közép-európai téli idő),The main experiment item,yes,0,0,C:/Users/rrics/Documents/!!ResearchBMECOGSCI/gnet,0,0,0,prototype2.png,no,mono,no,18,no,black,no,no,768,1187,3.5.6,legacy,xpyriment,osweb,1.3.13,0,space,space,space,space,331635,24835,22565,331635,2,legacy,824,1536,24,864,24,-1,-1,1536,1646682027377,1024,2,48000,-16,experiment,p1sarrcol4.png,1,odd,Win32,73,136672,133668,73,73,648690,650197,643690,138210,643690,73,1152569,1154074,1149572,650217,1149572,visual_patterns,0,0,0,yes,1366
undefined,undefined,undefined,undefined,white,no,Mozilla,Netscape,"5.0 (Windows NT 10.0; Win64; x64) AppleWebKit/537.36 (KHTML, like Gecko) Chrome/98.0.4758.102 Safari/537.36",xpyriment,legacy,legacy,0,uniform,0,0,0,0,24,24,24,0,0,74,74,74,74,74,0,74,0,38,38,38,38,38,0,38,07-02-22,07-02-22,20:40:30,Mon Mar 07 2022 20:40:30 GMT+0100 (közép-európai téli idő),The main experiment item,yes,0,0,C:/Users/rrics/Documents/!!ResearchBMECOGSCI/gnet,0,0,0,prototype2.png,no,mono,no,18,no,black,no,no,768,1187,3.5.6,legacy,xpyriment,osweb,1.3.13,0,space,space,space,space,331635,24835,22565,331635,2,legacy,824,1536,24,864,24,-1,-1,1536,1646682027377,1024,2,48000,-16,experiment,p3sarrsha4.png,1,odd,Win32,73,136672,133668,73,73,648690,650197,643690,138210,643690,73,1157086,1158592,1154092,650217,1154092,visual_patterns,0,0,0,yes,1366
undefined,undefined,undefined,undefined,white,no,Mozilla,Netscape,"5.0 (Windows NT 10.0; Win64; x64) AppleWebKit/537.36 (KHTML, like Gecko) Chrome/98.0.4758.102 Safari/537.36",xpyriment,legacy,legacy,0,uniform,0,0,0,0,24,24,24,0,0,74,74,74,74,74,0,74,0,39,39,39,39,39,0,39,07-02-22,07-02-22,20:40:30,Mon Mar 07 2022 20:40:30 GMT+0100 (közép-európai téli idő),The main experiment item,yes,0,0,C:/Users/rrics/Documents/!!ResearchBMECOGSCI/gnet,0,0,0,prototype2.png,no,mono,no,18,no,black,no,no,768,1187,3.5.6,legacy,xpyriment,osweb,1.3.13,0,space,space,space,space,331635,24835,22565,331635,2,legacy,824,1536,24,864,24,-1,-1,1536,1646682027377,1024,2,48000,-16,experiment,p3sarr1.png,1,odd,Win32,73,136672,133668,73,73,648690,650197,643690,138210,643690,73,1161603,1163108,1158620,650217,1158620,visual_patterns,0,0,0,yes,1366
undefined,undefined,undefined,undefined,white,no,Mozilla,Netscape,"5.0 (Windows NT 10.0; Win64; x64) AppleWebKit/537.36 (KHTML, like Gecko) Chrome/98.0.4758.102 Safari/537.36",xpyriment,legacy,legacy,0,uniform,0,0,0,0,24,24,24,0,0,74,74,74,74,74,0,74,0,40,40,40,40,40,0,40,07-02-22,07-02-22,20:40:30,Mon Mar 07 2022 20:40:30 GMT+0100 (közép-európai téli idő),The main experiment item,yes,0,0,C:/Users/rrics/Documents/!!ResearchBMECOGSCI/gnet,0,0,0,prototype2.png,no,mono,no,18,no,black,no,no,768,1187,3.5.6,legacy,xpyriment,osweb,1.3.13,0,space,space,space,space,331635,24835,22565,331635,2,legacy,824,1536,24,864,24,-1,-1,1536,1646682027377,1024,2,48000,-16,experiment,p2sarrsha3.png,1,odd,Win32,73,136672,133668,73,73,648690,650197,643690,138210,643690,73,1166121,1167625,1163123,650217,1163123,visual_patterns,0,0,0,yes,1366
undefined,undefined,undefined,undefined,white,no,Mozilla,Netscape,"5.0 (Windows NT 10.0; Win64; x64) AppleWebKit/537.36 (KHTML, like Gecko) Chrome/98.0.4758.102 Safari/537.36",xpyriment,legacy,legacy,0,uniform,0,0,0,0,24,24,24,0,0,74,74,74,74,74,0,74,0,41,41,41,41,41,0,41,07-02-22,07-02-22,20:40:30,Mon Mar 07 2022 20:40:30 GMT+0100 (közép-európai téli idő),The main experiment item,yes,0,0,C:/Users/rrics/Documents/!!ResearchBMECOGSCI/gnet,0,0,0,prototype2.png,no,mono,no,18,no,black,no,no,768,1187,3.5.6,legacy,xpyriment,osweb,1.3.13,0,space,space,space,space,331635,24835,22565,331635,2,legacy,824,1536,24,864,24,-1,-1,1536,1646682027377,1024,2,48000,-16,experiment,p9sarr3.png,1,odd,Win32,73,136672,133668,73,73,648690,650197,643690,138210,643690,73,1170642,1172158,1167641,650217,1167641,visual_patterns,0,0,0,yes,1366
undefined,undefined,undefined,undefined,white,no,Mozilla,Netscape,"5.0 (Windows NT 10.0; Win64; x64) AppleWebKit/537.36 (KHTML, like Gecko) Chrome/98.0.4758.102 Safari/537.36",xpyriment,legacy,legacy,0,uniform,0,0,0,0,24,24,24,0,0,74,74,74,74,74,0,74,0,42,42,42,42,42,0,42,07-02-22,07-02-22,20:40:30,Mon Mar 07 2022 20:40:30 GMT+0100 (közép-európai téli idő),The main experiment item,yes,0,0,C:/Users/rrics/Documents/!!ResearchBMECOGSCI/gnet,0,0,0,prototype2.png,no,mono,no,18,no,black,no,no,768,1187,3.5.6,legacy,xpyriment,osweb,1.3.13,0,space,space,space,space,331635,24835,22565,331635,2,legacy,824,1536,24,864,24,-1,-1,1536,1646682027377,1024,2,48000,-16,experiment,p10sarr4.png,1,odd,Win32,73,136672,133668,73,73,648690,650197,643690,138210,643690,73,1175175,1176676,1172189,650217,1172189,visual_patterns,0,0,0,yes,1366
undefined,undefined,undefined,undefined,white,no,Mozilla,Netscape,"5.0 (Windows NT 10.0; Win64; x64) AppleWebKit/537.36 (KHTML, like Gecko) Chrome/98.0.4758.102 Safari/537.36",xpyriment,legacy,legacy,0,uniform,0,0,0,0,24,24,24,0,0,74,74,74,74,74,0,74,0,43,43,43,43,43,0,43,07-02-22,07-02-22,20:40:30,Mon Mar 07 2022 20:40:30 GMT+0100 (közép-európai téli idő),The main experiment item,yes,0,0,C:/Users/rrics/Documents/!!ResearchBMECOGSCI/gnet,0,0,0,prototype2.png,no,mono,no,18,no,black,no,no,768,1187,3.5.6,legacy,xpyriment,osweb,1.3.13,0,space,space,space,space,331635,24835,22565,331635,2,legacy,824,1536,24,864,24,-1,-1,1536,1646682027377,1024,2,48000,-16,experiment,p4sarrcol1.png,1,odd,Win32,73,136672,133668,73,73,648690,650197,643690,138210,643690,73,1179690,1181192,1176698,650217,1176698,visual_patterns,0,0,0,yes,1366
undefined,undefined,undefined,undefined,white,no,Mozilla,Netscape,"5.0 (Windows NT 10.0; Win64; x64) AppleWebKit/537.36 (KHTML, like Gecko) Chrome/98.0.4758.102 Safari/537.36",xpyriment,legacy,legacy,0,uniform,0,0,0,0,24,24,24,0,0,74,74,74,74,74,0,74,0,44,44,44,44,44,0,44,07-02-22,07-02-22,20:40:30,Mon Mar 07 2022 20:40:30 GMT+0100 (közép-európai téli idő),The main experiment item,yes,0,0,C:/Users/rrics/Documents/!!ResearchBMECOGSCI/gnet,0,0,0,prototype2.png,no,mono,no,18,no,black,no,no,768,1187,3.5.6,legacy,xpyriment,osweb,1.3.13,0,space,space,space,space,331635,24835,22565,331635,2,legacy,824,1536,24,864,24,-1,-1,1536,1646682027377,1024,2,48000,-16,experiment,p5sarrshacol4.png,1,odd,Win32,73,136672,133668,73,73,648690,650197,643690,138210,643690,73,1184211,1185726,1181210,650217,1181210,visual_patterns,0,0,0,yes,1366
undefined,undefined,undefined,undefined,white,no,Mozilla,Netscape,"5.0 (Windows NT 10.0; Win64; x64) AppleWebKit/537.36 (KHTML, like Gecko) Chrome/98.0.4758.102 Safari/537.36",xpyriment,legacy,legacy,0,uniform,0,0,0,0,24,24,24,0,0,74,74,74,74,74,0,74,0,45,45,45,45,45,0,45,07-02-22,07-02-22,20:40:30,Mon Mar 07 2022 20:40:30 GMT+0100 (közép-európai téli idő),The main experiment item,yes,0,0,C:/Users/rrics/Documents/!!ResearchBMECOGSCI/gnet,0,0,0,prototype2.png,no,mono,no,18,no,black,no,no,768,1187,3.5.6,legacy,xpyriment,osweb,1.3.13,0,space,space,space,space,331635,24835,22565,331635,2,legacy,824,1536,24,864,24,-1,-1,1536,1646682027377,1024,2,48000,-16,experiment,p3sarr3.png,1,odd,Win32,73,136672,133668,73,73,648690,650197,643690,138210,643690,73,1188744,1190260,1185743,650217,1185743,visual_patterns,0,0,0,yes,1366
undefined,undefined,undefined,undefined,white,no,Mozilla,Netscape,"5.0 (Windows NT 10.0; Win64; x64) AppleWebKit/537.36 (KHTML, like Gecko) Chrome/98.0.4758.102 Safari/537.36",xpyriment,legacy,legacy,0,uniform,0,0,0,0,24,24,24,0,0,74,74,74,74,74,0,74,0,46,46,46,46,46,0,46,07-02-22,07-02-22,20:40:30,Mon Mar 07 2022 20:40:30 GMT+0100 (közép-európai téli idő),The main experiment item,yes,0,0,C:/Users/rrics/Documents/!!ResearchBMECOGSCI/gnet,0,0,0,prototype2.png,no,mono,no,18,no,black,no,no,768,1187,3.5.6,legacy,xpyriment,osweb,1.3.13,0,space,space,space,space,331635,24835,22565,331635,2,legacy,824,1536,24,864,24,-1,-1,1536,1646682027377,1024,2,48000,-16,experiment,p2sarr3.png,1,odd,Win32,73,136672,133668,73,73,648690,650197,643690,138210,643690,73,1193277,1194800,1190277,650217,1190276,visual_patterns,0,0,0,yes,1366
undefined,undefined,undefined,undefined,white,no,Mozilla,Netscape,"5.0 (Windows NT 10.0; Win64; x64) AppleWebKit/537.36 (KHTML, like Gecko) Chrome/98.0.4758.102 Safari/537.36",xpyriment,legacy,legacy,0,uniform,0,0,0,0,24,24,24,0,0,74,74,74,74,74,0,74,0,47,47,47,47,47,0,47,07-02-22,07-02-22,20:40:30,Mon Mar 07 2022 20:40:30 GMT+0100 (közép-európai téli idő),The main experiment item,yes,0,0,C:/Users/rrics/Documents/!!ResearchBMECOGSCI/gnet,0,0,0,prototype2.png,no,mono,no,18,no,black,no,no,768,1187,3.5.6,legacy,xpyriment,osweb,1.3.13,0,space,space,space,space,331635,24835,22565,331635,2,legacy,824,1536,24,864,24,-1,-1,1536,1646682027377,1024,2,48000,-16,experiment,p4sarr2.png,1,odd,Win32,73,136672,133668,73,73,648690,650197,643690,138210,643690,73,1197811,1199327,1194819,650217,1194819,visual_patterns,0,0,0,yes,1366
undefined,undefined,undefined,undefined,white,no,Mozilla,Netscape,"5.0 (Windows NT 10.0; Win64; x64) AppleWebKit/537.36 (KHTML, like Gecko) Chrome/98.0.4758.102 Safari/537.36",xpyriment,legacy,legacy,0,uniform,0,0,0,0,24,24,24,0,0,74,74,74,74,74,0,74,0,48,48,48,48,48,0,48,07-02-22,07-02-22,20:40:30,Mon Mar 07 2022 20:40:30 GMT+0100 (közép-európai téli idő),The main experiment item,yes,0,0,C:/Users/rrics/Documents/!!ResearchBMECOGSCI/gnet,0,0,0,prototype2.png,no,mono,no,18,no,black,no,no,768,1187,3.5.6,legacy,xpyriment,osweb,1.3.13,0,space,space,space,space,331635,24835,22565,331635,2,legacy,824,1536,24,864,24,-1,-1,1536,1646682027377,1024,2,48000,-16,experiment,p2sarrshacol3.png,1,odd,Win32,73,136672,133668,73,73,648690,650197,643690,138210,643690,73,1202351,1203860,1199353,650217,1199353,visual_patterns,0,0,0,yes,1366
