acc,accuracy,average_response_time,avg_rt,background,bidi,browser_codename,browser_name,browser_version,canvas_backend,clock_backend,color_backend,compensation,coordinates,count_end,count_experiment,count_osweb,count_prestudy,count_prestudy_isi,count_prestudy_sequence,count_prestudy_stimpres,count_start,count_study,count_study_coroutines,count_study_isi,count_study_logger,count_study_response,count_study_sequence,count_study_start,count_study_stimpres,count_test,count_test_coroutines,count_test_isi,count_test_logger,count_test_response,count_test_sequence,count_test_start,count_test_stimpres,date_startdate,date_startdateUTC,date_starttime,datetime,description,disable_garbage_collection,experiment_debug,experiment_parameters,experiment_path,experiment_pilot,experiment_taskname,experiment_taskversion,fampict,font_bold,font_family,font_italic,font_size,font_underline,foreground,form_clicks,fullscreen,height,jatosStudyResultId,jatosVersion,keyboard_backend,mouse_backend,opensesame_codename,opensesame_version,repeat_cycle,response,response_start,response_study_start,response_test_start,response_time,response_time_start,response_time_study_start,response_time_test_start,round_decimals,sampler_backend,screen_availableHeight,screen_availableWidth,screen_colorDepth,screen_height,screen_pixelDepth,screen_screenX,screen_screenY,screen_width,sessionid,sound_buf_size,sound_channels,sound_freq,sound_sample_size,start,stim,subject_nr,subject_parity,system_os,time_prestudy,time_prestudy_isi,time_prestudy_stimpres,time_start,time_study,time_study_isi,time_study_logger,time_study_response,time_study_start,time_study_stimpres,time_test,time_test_isi,time_test_logger,time_test_response,time_test_start,time_test_stimpres,title,total_correct,total_response_time,total_responses,uniform_coordinates,width
undefined,undefined,undefined,undefined,white,no,Mozilla,Netscape,"5.0 (Windows NT 10.0; Win64; x64) AppleWebKit/537.36 (KHTML, like Gecko) Chrome/97.0.4692.99 Safari/537.36",xpyriment,legacy,legacy,0,uniform,0,0,0,0,24,24,24,0,0,0,0,0,0,0,0,0,0,,,,,,0,,08-02-22,08-02-22,13:58:14,Tue Mar 08 2022 13:58:14 GMT+0100 (közép-európai téli idő),The main experiment item,yes,0,0,C:/Users/rrics/Documents/!!ResearchBMECOGSCI/gnet,0,0,0,prototype1.png,no,mono,no,18,no,black,no,no,768,1188,3.5.6,legacy,xpyriment,osweb,1.3.13,0,space,space,space,,33047,17931,33047,,2,legacy,1040,1920,24,1080,24,0,0,1920,1646744337823,1024,2,48000,-16,experiment,p6sarr1.png,0,even,Win32,2839,132576,129566,2839,2839,172167,173669,167171,134095,167171,2839,,,,,,visual_patterns,0,0,0,yes,1366
undefined,undefined,undefined,undefined,white,no,Mozilla,Netscape,"5.0 (Windows NT 10.0; Win64; x64) AppleWebKit/537.36 (KHTML, like Gecko) Chrome/97.0.4692.99 Safari/537.36",xpyriment,legacy,legacy,0,uniform,0,0,0,0,24,24,24,0,0,1,1,1,1,1,0,1,0,,,,,,0,,08-02-22,08-02-22,13:58:14,Tue Mar 08 2022 13:58:14 GMT+0100 (közép-európai téli idő),The main experiment item,yes,0,0,C:/Users/rrics/Documents/!!ResearchBMECOGSCI/gnet,0,0,0,prototype1.png,no,mono,no,18,no,black,no,no,768,1188,3.5.6,legacy,xpyriment,osweb,1.3.13,0,space,space,space,,33047,17931,33047,,2,legacy,1040,1920,24,1080,24,0,0,1920,1646744337823,1024,2,48000,-16,experiment,prototype3.png,0,even,Win32,2839,132576,129566,2839,2839,178679,180184,173680,134095,173680,2839,,,,,,visual_patterns,0,0,0,yes,1366
undefined,undefined,undefined,undefined,white,no,Mozilla,Netscape,"5.0 (Windows NT 10.0; Win64; x64) AppleWebKit/537.36 (KHTML, like Gecko) Chrome/97.0.4692.99 Safari/537.36",xpyriment,legacy,legacy,0,uniform,0,0,0,0,24,24,24,0,0,2,2,2,2,2,0,2,0,,,,,,0,,08-02-22,08-02-22,13:58:14,Tue Mar 08 2022 13:58:14 GMT+0100 (közép-európai téli idő),The main experiment item,yes,0,0,C:/Users/rrics/Documents/!!ResearchBMECOGSCI/gnet,0,0,0,prototype1.png,no,mono,no,18,no,black,no,no,768,1188,3.5.6,legacy,xpyriment,osweb,1.3.13,0,space,space,space,,33047,17931,33047,,2,legacy,1040,1920,24,1080,24,0,0,1920,1646744337823,1024,2,48000,-16,experiment,p3sarr1.png,0,even,Win32,2839,132576,129566,2839,2839,185194,186701,180195,134095,180195,2839,,,,,,visual_patterns,0,0,0,yes,1366
undefined,undefined,undefined,undefined,white,no,Mozilla,Netscape,"5.0 (Windows NT 10.0; Win64; x64) AppleWebKit/537.36 (KHTML, like Gecko) Chrome/97.0.4692.99 Safari/537.36",xpyriment,legacy,legacy,0,uniform,0,0,0,0,24,24,24,0,0,3,3,3,3,3,0,3,0,,,,,,0,,08-02-22,08-02-22,13:58:14,Tue Mar 08 2022 13:58:14 GMT+0100 (közép-európai téli idő),The main experiment item,yes,0,0,C:/Users/rrics/Documents/!!ResearchBMECOGSCI/gnet,0,0,0,prototype1.png,no,mono,no,18,no,black,no,no,768,1188,3.5.6,legacy,xpyriment,osweb,1.3.13,0,space,space,space,,33047,17931,33047,,2,legacy,1040,1920,24,1080,24,0,0,1920,1646744337823,1024,2,48000,-16,experiment,p9sarr2.png,0,even,Win32,2839,132576,129566,2839,2839,191712,193216,186717,134095,186717,2839,,,,,,visual_patterns,0,0,0,yes,1366
undefined,undefined,undefined,undefined,white,no,Mozilla,Netscape,"5.0 (Windows NT 10.0; Win64; x64) AppleWebKit/537.36 (KHTML, like Gecko) Chrome/97.0.4692.99 Safari/537.36",xpyriment,legacy,legacy,0,uniform,0,0,0,0,24,24,24,0,0,4,4,4,4,4,0,4,0,,,,,,0,,08-02-22,08-02-22,13:58:14,Tue Mar 08 2022 13:58:14 GMT+0100 (közép-európai téli idő),The main experiment item,yes,0,0,C:/Users/rrics/Documents/!!ResearchBMECOGSCI/gnet,0,0,0,prototype1.png,no,mono,no,18,no,black,no,no,768,1188,3.5.6,legacy,xpyriment,osweb,1.3.13,0,space,space,space,,33047,17931,33047,,2,legacy,1040,1920,24,1080,24,0,0,1920,1646744337823,1024,2,48000,-16,experiment,p4sarr2.png,0,even,Win32,2839,132576,129566,2839,2839,198223,199732,193227,134095,193227,2839,,,,,,visual_patterns,0,0,0,yes,1366
undefined,undefined,undefined,undefined,white,no,Mozilla,Netscape,"5.0 (Windows NT 10.0; Win64; x64) AppleWebKit/537.36 (KHTML, like Gecko) Chrome/97.0.4692.99 Safari/537.36",xpyriment,legacy,legacy,0,uniform,0,0,0,0,24,24,24,0,0,5,5,5,5,5,0,5,0,,,,,,0,,08-02-22,08-02-22,13:58:14,Tue Mar 08 2022 13:58:14 GMT+0100 (közép-európai téli idő),The main experiment item,yes,0,0,C:/Users/rrics/Documents/!!ResearchBMECOGSCI/gnet,0,0,0,prototype1.png,no,mono,no,18,no,black,no,no,768,1188,3.5.6,legacy,xpyriment,osweb,1.3.13,0,space,space,space,,33047,17931,33047,,2,legacy,1040,1920,24,1080,24,0,0,1920,1646744337823,1024,2,48000,-16,experiment,p4sarrshacol2.png,0,even,Win32,2839,132576,129566,2839,2839,204739,206247,199744,134095,199744,2839,,,,,,visual_patterns,0,0,0,yes,1366
undefined,undefined,undefined,undefined,white,no,Mozilla,Netscape,"5.0 (Windows NT 10.0; Win64; x64) AppleWebKit/537.36 (KHTML, like Gecko) Chrome/97.0.4692.99 Safari/537.36",xpyriment,legacy,legacy,0,uniform,0,0,0,0,24,24,24,0,0,6,6,6,6,6,0,6,0,,,,,,0,,08-02-22,08-02-22,13:58:14,Tue Mar 08 2022 13:58:14 GMT+0100 (közép-európai téli idő),The main experiment item,yes,0,0,C:/Users/rrics/Documents/!!ResearchBMECOGSCI/gnet,0,0,0,prototype1.png,no,mono,no,18,no,black,no,no,768,1188,3.5.6,legacy,xpyriment,osweb,1.3.13,0,space,space,space,,33047,17931,33047,,2,legacy,1040,1920,24,1080,24,0,0,1920,1646744337823,1024,2,48000,-16,experiment,p5sarrsha2.png,0,even,Win32,2839,132576,129566,2839,2839,211265,212777,206274,134095,206274,2839,,,,,,visual_patterns,0,0,0,yes,1366
undefined,undefined,undefined,undefined,white,no,Mozilla,Netscape,"5.0 (Windows NT 10.0; Win64; x64) AppleWebKit/537.36 (KHTML, like Gecko) Chrome/97.0.4692.99 Safari/537.36",xpyriment,legacy,legacy,0,uniform,0,0,0,0,24,24,24,0,0,7,7,7,7,7,0,7,0,,,,,,0,,08-02-22,08-02-22,13:58:14,Tue Mar 08 2022 13:58:14 GMT+0100 (közép-európai téli idő),The main experiment item,yes,0,0,C:/Users/rrics/Documents/!!ResearchBMECOGSCI/gnet,0,0,0,prototype1.png,no,mono,no,18,no,black,no,no,768,1188,3.5.6,legacy,xpyriment,osweb,1.3.13,0,space,space,space,,33047,17931,33047,,2,legacy,1040,1920,24,1080,24,0,0,1920,1646744337823,1024,2,48000,-16,experiment,p2sarr1.png,0,even,Win32,2839,132576,129566,2839,2839,217788,219295,212795,134095,212795,2839,,,,,,visual_patterns,0,0,0,yes,1366
undefined,undefined,undefined,undefined,white,no,Mozilla,Netscape,"5.0 (Windows NT 10.0; Win64; x64) AppleWebKit/537.36 (KHTML, like Gecko) Chrome/97.0.4692.99 Safari/537.36",xpyriment,legacy,legacy,0,uniform,0,0,0,0,24,24,24,0,0,8,8,8,8,8,0,8,0,,,,,,0,,08-02-22,08-02-22,13:58:14,Tue Mar 08 2022 13:58:14 GMT+0100 (közép-európai téli idő),The main experiment item,yes,0,0,C:/Users/rrics/Documents/!!ResearchBMECOGSCI/gnet,0,0,0,prototype1.png,no,mono,no,18,no,black,no,no,768,1188,3.5.6,legacy,xpyriment,osweb,1.3.13,0,space,space,space,,33047,17931,33047,,2,legacy,1040,1920,24,1080,24,0,0,1920,1646744337823,1024,2,48000,-16,experiment,prototype4.png,0,even,Win32,2839,132576,129566,2839,2839,224301,225810,219305,134095,219305,2839,,,,,,visual_patterns,0,0,0,yes,1366
undefined,undefined,undefined,undefined,white,no,Mozilla,Netscape,"5.0 (Windows NT 10.0; Win64; x64) AppleWebKit/537.36 (KHTML, like Gecko) Chrome/97.0.4692.99 Safari/537.36",xpyriment,legacy,legacy,0,uniform,0,0,0,0,24,24,24,0,0,9,9,9,9,9,0,9,0,,,,,,0,,08-02-22,08-02-22,13:58:14,Tue Mar 08 2022 13:58:14 GMT+0100 (közép-európai téli idő),The main experiment item,yes,0,0,C:/Users/rrics/Documents/!!ResearchBMECOGSCI/gnet,0,0,0,prototype1.png,no,mono,no,18,no,black,no,no,768,1188,3.5.6,legacy,xpyriment,osweb,1.3.13,0,space,space,space,,33047,17931,33047,,2,legacy,1040,1920,24,1080,24,0,0,1920,1646744337823,1024,2,48000,-16,experiment,p5sarrsha1.png,0,even,Win32,2839,132576,129566,2839,2839,230820,232325,225820,134095,225820,2839,,,,,,visual_patterns,0,0,0,yes,1366
undefined,undefined,undefined,undefined,white,no,Mozilla,Netscape,"5.0 (Windows NT 10.0; Win64; x64) AppleWebKit/537.36 (KHTML, like Gecko) Chrome/97.0.4692.99 Safari/537.36",xpyriment,legacy,legacy,0,uniform,0,0,0,0,24,24,24,0,0,10,10,10,10,10,0,10,0,,,,,,0,,08-02-22,08-02-22,13:58:14,Tue Mar 08 2022 13:58:14 GMT+0100 (közép-európai téli idő),The main experiment item,yes,0,0,C:/Users/rrics/Documents/!!ResearchBMECOGSCI/gnet,0,0,0,prototype1.png,no,mono,no,18,no,black,no,no,768,1188,3.5.6,legacy,xpyriment,osweb,1.3.13,0,space,space,space,,33047,17931,33047,,2,legacy,1040,1920,24,1080,24,0,0,1920,1646744337823,1024,2,48000,-16,experiment,p5sarrcol1.png,0,even,Win32,2839,132576,129566,2839,2839,237346,238857,232353,134095,232352,2839,,,,,,visual_patterns,0,0,0,yes,1366
undefined,undefined,undefined,undefined,white,no,Mozilla,Netscape,"5.0 (Windows NT 10.0; Win64; x64) AppleWebKit/537.36 (KHTML, like Gecko) Chrome/97.0.4692.99 Safari/537.36",xpyriment,legacy,legacy,0,uniform,0,0,0,0,24,24,24,0,0,11,11,11,11,11,0,11,0,,,,,,0,,08-02-22,08-02-22,13:58:14,Tue Mar 08 2022 13:58:14 GMT+0100 (közép-európai téli idő),The main experiment item,yes,0,0,C:/Users/rrics/Documents/!!ResearchBMECOGSCI/gnet,0,0,0,prototype1.png,no,mono,no,18,no,black,no,no,768,1188,3.5.6,legacy,xpyriment,osweb,1.3.13,0,space,space,space,,33047,17931,33047,,2,legacy,1040,1920,24,1080,24,0,0,1920,1646744337823,1024,2,48000,-16,experiment,p8sarr2.png,0,even,Win32,2839,132576,129566,2839,2839,243878,245387,238886,134095,238886,2839,,,,,,visual_patterns,0,0,0,yes,1366
undefined,undefined,undefined,undefined,white,no,Mozilla,Netscape,"5.0 (Windows NT 10.0; Win64; x64) AppleWebKit/537.36 (KHTML, like Gecko) Chrome/97.0.4692.99 Safari/537.36",xpyriment,legacy,legacy,0,uniform,0,0,0,0,24,24,24,0,0,12,12,12,12,12,0,12,0,,,,,,0,,08-02-22,08-02-22,13:58:14,Tue Mar 08 2022 13:58:14 GMT+0100 (közép-európai téli idő),The main experiment item,yes,0,0,C:/Users/rrics/Documents/!!ResearchBMECOGSCI/gnet,0,0,0,prototype1.png,no,mono,no,18,no,black,no,no,768,1188,3.5.6,legacy,xpyriment,osweb,1.3.13,0,space,space,space,,33047,17931,33047,,2,legacy,1040,1920,24,1080,24,0,0,1920,1646744337823,1024,2,48000,-16,experiment,p5sarrshacol2.png,0,even,Win32,2839,132576,129566,2839,2839,250398,251903,245398,134095,245398,2839,,,,,,visual_patterns,0,0,0,yes,1366
undefined,undefined,undefined,undefined,white,no,Mozilla,Netscape,"5.0 (Windows NT 10.0; Win64; x64) AppleWebKit/537.36 (KHTML, like Gecko) Chrome/97.0.4692.99 Safari/537.36",xpyriment,legacy,legacy,0,uniform,0,0,0,0,24,24,24,0,0,13,13,13,13,13,0,13,0,,,,,,0,,08-02-22,08-02-22,13:58:14,Tue Mar 08 2022 13:58:14 GMT+0100 (közép-európai téli idő),The main experiment item,yes,0,0,C:/Users/rrics/Documents/!!ResearchBMECOGSCI/gnet,0,0,0,prototype1.png,no,mono,no,18,no,black,no,no,768,1188,3.5.6,legacy,xpyriment,osweb,1.3.13,0,space,space,space,,33047,17931,33047,,2,legacy,1040,1920,24,1080,24,0,0,1920,1646744337823,1024,2,48000,-16,experiment,p8sarr1.png,0,even,Win32,2839,132576,129566,2839,2839,256913,258419,251915,134095,251915,2839,,,,,,visual_patterns,0,0,0,yes,1366
undefined,undefined,undefined,undefined,white,no,Mozilla,Netscape,"5.0 (Windows NT 10.0; Win64; x64) AppleWebKit/537.36 (KHTML, like Gecko) Chrome/97.0.4692.99 Safari/537.36",xpyriment,legacy,legacy,0,uniform,0,0,0,0,24,24,24,0,0,14,14,14,14,14,0,14,0,,,,,,0,,08-02-22,08-02-22,13:58:14,Tue Mar 08 2022 13:58:14 GMT+0100 (közép-európai téli idő),The main experiment item,yes,0,0,C:/Users/rrics/Documents/!!ResearchBMECOGSCI/gnet,0,0,0,prototype1.png,no,mono,no,18,no,black,no,no,768,1188,3.5.6,legacy,xpyriment,osweb,1.3.13,0,space,space,space,,33047,17931,33047,,2,legacy,1040,1920,24,1080,24,0,0,1920,1646744337823,1024,2,48000,-16,experiment,p3sarrcol1.png,0,even,Win32,2839,132576,129566,2839,2839,263426,264934,258430,134095,258430,2839,,,,,,visual_patterns,0,0,0,yes,1366
undefined,undefined,undefined,undefined,white,no,Mozilla,Netscape,"5.0 (Windows NT 10.0; Win64; x64) AppleWebKit/537.36 (KHTML, like Gecko) Chrome/97.0.4692.99 Safari/537.36",xpyriment,legacy,legacy,0,uniform,0,0,0,0,24,24,24,0,0,15,15,15,15,15,0,15,0,,,,,,0,,08-02-22,08-02-22,13:58:14,Tue Mar 08 2022 13:58:14 GMT+0100 (közép-európai téli idő),The main experiment item,yes,0,0,C:/Users/rrics/Documents/!!ResearchBMECOGSCI/gnet,0,0,0,prototype1.png,no,mono,no,18,no,black,no,no,768,1188,3.5.6,legacy,xpyriment,osweb,1.3.13,0,space,space,space,,33047,17931,33047,,2,legacy,1040,1920,24,1080,24,0,0,1920,1646744337823,1024,2,48000,-16,experiment,prototype1.png,0,even,Win32,2839,132576,129566,2839,2839,269946,271450,264949,134095,264949,2839,,,,,,visual_patterns,0,0,0,yes,1366
undefined,undefined,undefined,undefined,white,no,Mozilla,Netscape,"5.0 (Windows NT 10.0; Win64; x64) AppleWebKit/537.36 (KHTML, like Gecko) Chrome/97.0.4692.99 Safari/537.36",xpyriment,legacy,legacy,0,uniform,0,0,0,0,24,24,24,0,0,16,16,16,16,16,0,16,0,,,,,,0,,08-02-22,08-02-22,13:58:14,Tue Mar 08 2022 13:58:14 GMT+0100 (közép-európai téli idő),The main experiment item,yes,0,0,C:/Users/rrics/Documents/!!ResearchBMECOGSCI/gnet,0,0,0,prototype1.png,no,mono,no,18,no,black,no,no,768,1188,3.5.6,legacy,xpyriment,osweb,1.3.13,0,space,space,space,,33047,17931,33047,,2,legacy,1040,1920,24,1080,24,0,0,1920,1646744337823,1024,2,48000,-16,experiment,p2sarr2.png,0,even,Win32,2839,132576,129566,2839,2839,276470,277981,271482,134095,271482,2839,,,,,,visual_patterns,0,0,0,yes,1366
undefined,undefined,undefined,undefined,white,no,Mozilla,Netscape,"5.0 (Windows NT 10.0; Win64; x64) AppleWebKit/537.36 (KHTML, like Gecko) Chrome/97.0.4692.99 Safari/537.36",xpyriment,legacy,legacy,0,uniform,0,0,0,0,24,24,24,0,0,17,17,17,17,17,0,17,0,,,,,,0,,08-02-22,08-02-22,13:58:14,Tue Mar 08 2022 13:58:14 GMT+0100 (közép-európai téli idő),The main experiment item,yes,0,0,C:/Users/rrics/Documents/!!ResearchBMECOGSCI/gnet,0,0,0,prototype1.png,no,mono,no,18,no,black,no,no,768,1188,3.5.6,legacy,xpyriment,osweb,1.3.13,0,space,space,space,,33047,17931,33047,,2,legacy,1040,1920,24,1080,24,0,0,1920,1646744337823,1024,2,48000,-16,experiment,p3sarrsha2.png,0,even,Win32,2839,132576,129566,2839,2839,282995,284498,278004,134095,278004,2839,,,,,,visual_patterns,0,0,0,yes,1366
undefined,undefined,undefined,undefined,white,no,Mozilla,Netscape,"5.0 (Windows NT 10.0; Win64; x64) AppleWebKit/537.36 (KHTML, like Gecko) Chrome/97.0.4692.99 Safari/537.36",xpyriment,legacy,legacy,0,uniform,0,0,0,0,24,24,24,0,0,18,18,18,18,18,0,18,0,,,,,,0,,08-02-22,08-02-22,13:58:14,Tue Mar 08 2022 13:58:14 GMT+0100 (közép-európai téli idő),The main experiment item,yes,0,0,C:/Users/rrics/Documents/!!ResearchBMECOGSCI/gnet,0,0,0,prototype1.png,no,mono,no,18,no,black,no,no,768,1188,3.5.6,legacy,xpyriment,osweb,1.3.13,0,space,space,space,,33047,17931,33047,,2,legacy,1040,1920,24,1080,24,0,0,1920,1646744337823,1024,2,48000,-16,experiment,prototype4.png,0,even,Win32,2839,132576,129566,2839,2839,289504,291012,284506,134095,284506,2839,,,,,,visual_patterns,0,0,0,yes,1366
undefined,undefined,undefined,undefined,white,no,Mozilla,Netscape,"5.0 (Windows NT 10.0; Win64; x64) AppleWebKit/537.36 (KHTML, like Gecko) Chrome/97.0.4692.99 Safari/537.36",xpyriment,legacy,legacy,0,uniform,0,0,0,0,24,24,24,0,0,19,19,19,19,19,0,19,0,,,,,,0,,08-02-22,08-02-22,13:58:14,Tue Mar 08 2022 13:58:14 GMT+0100 (közép-európai téli idő),The main experiment item,yes,0,0,C:/Users/rrics/Documents/!!ResearchBMECOGSCI/gnet,0,0,0,prototype1.png,no,mono,no,18,no,black,no,no,768,1188,3.5.6,legacy,xpyriment,osweb,1.3.13,0,space,space,space,,33047,17931,33047,,2,legacy,1040,1920,24,1080,24,0,0,1920,1646744337823,1024,2,48000,-16,experiment,p3sarrsha1.png,0,even,Win32,2839,132576,129566,2839,2839,296022,297529,291024,134095,291024,2839,,,,,,visual_patterns,0,0,0,yes,1366
undefined,undefined,undefined,undefined,white,no,Mozilla,Netscape,"5.0 (Windows NT 10.0; Win64; x64) AppleWebKit/537.36 (KHTML, like Gecko) Chrome/97.0.4692.99 Safari/537.36",xpyriment,legacy,legacy,0,uniform,0,0,0,0,24,24,24,0,0,20,20,20,20,20,0,20,0,,,,,,0,,08-02-22,08-02-22,13:58:14,Tue Mar 08 2022 13:58:14 GMT+0100 (közép-európai téli idő),The main experiment item,yes,0,0,C:/Users/rrics/Documents/!!ResearchBMECOGSCI/gnet,0,0,0,prototype1.png,no,mono,no,18,no,black,no,no,768,1188,3.5.6,legacy,xpyriment,osweb,1.3.13,0,space,space,space,,33047,17931,33047,,2,legacy,1040,1920,24,1080,24,0,0,1920,1646744337823,1024,2,48000,-16,experiment,prototype2.png,0,even,Win32,2839,132576,129566,2839,2839,302535,304043,297537,134095,297537,2839,,,,,,visual_patterns,0,0,0,yes,1366
undefined,undefined,undefined,undefined,white,no,Mozilla,Netscape,"5.0 (Windows NT 10.0; Win64; x64) AppleWebKit/537.36 (KHTML, like Gecko) Chrome/97.0.4692.99 Safari/537.36",xpyriment,legacy,legacy,0,uniform,0,0,0,0,24,24,24,0,0,21,21,21,21,21,0,21,0,,,,,,0,,08-02-22,08-02-22,13:58:14,Tue Mar 08 2022 13:58:14 GMT+0100 (közép-európai téli idő),The main experiment item,yes,0,0,C:/Users/rrics/Documents/!!ResearchBMECOGSCI/gnet,0,0,0,prototype1.png,no,mono,no,18,no,black,no,no,768,1188,3.5.6,legacy,xpyriment,osweb,1.3.13,0,space,space,space,,33047,17931,33047,,2,legacy,1040,1920,24,1080,24,0,0,1920,1646744337823,1024,2,48000,-16,experiment,p4sarrcol2.png,0,even,Win32,2839,132576,129566,2839,2839,309065,310576,304069,134095,304069,2839,,,,,,visual_patterns,0,0,0,yes,1366
undefined,undefined,undefined,undefined,white,no,Mozilla,Netscape,"5.0 (Windows NT 10.0; Win64; x64) AppleWebKit/537.36 (KHTML, like Gecko) Chrome/97.0.4692.99 Safari/537.36",xpyriment,legacy,legacy,0,uniform,0,0,0,0,24,24,24,0,0,22,22,22,22,22,0,22,0,,,,,,0,,08-02-22,08-02-22,13:58:14,Tue Mar 08 2022 13:58:14 GMT+0100 (közép-európai téli idő),The main experiment item,yes,0,0,C:/Users/rrics/Documents/!!ResearchBMECOGSCI/gnet,0,0,0,prototype1.png,no,mono,no,18,no,black,no,no,768,1188,3.5.6,legacy,xpyriment,osweb,1.3.13,0,space,space,space,,33047,17931,33047,,2,legacy,1040,1920,24,1080,24,0,0,1920,1646744337823,1024,2,48000,-16,experiment,p5sarrshacol1.png,0,even,Win32,2839,132576,129566,2839,2839,315584,317091,310587,134095,310587,2839,,,,,,visual_patterns,0,0,0,yes,1366
undefined,undefined,undefined,undefined,white,no,Mozilla,Netscape,"5.0 (Windows NT 10.0; Win64; x64) AppleWebKit/537.36 (KHTML, like Gecko) Chrome/97.0.4692.99 Safari/537.36",xpyriment,legacy,legacy,0,uniform,0,0,0,0,24,24,24,0,0,23,23,23,23,23,0,23,0,,,,,,0,,08-02-22,08-02-22,13:58:14,Tue Mar 08 2022 13:58:14 GMT+0100 (közép-európai téli idő),The main experiment item,yes,0,0,C:/Users/rrics/Documents/!!ResearchBMECOGSCI/gnet,0,0,0,prototype1.png,no,mono,no,18,no,black,no,no,768,1188,3.5.6,legacy,xpyriment,osweb,1.3.13,0,space,space,space,,33047,17931,33047,,2,legacy,1040,1920,24,1080,24,0,0,1920,1646744337823,1024,2,48000,-16,experiment,prototype2.png,0,even,Win32,2839,132576,129566,2839,2839,322105,323607,317107,134095,317107,2839,,,,,,visual_patterns,0,0,0,yes,1366
undefined,undefined,undefined,undefined,white,no,Mozilla,Netscape,"5.0 (Windows NT 10.0; Win64; x64) AppleWebKit/537.36 (KHTML, like Gecko) Chrome/97.0.4692.99 Safari/537.36",xpyriment,legacy,legacy,0,uniform,0,0,0,0,24,24,24,0,0,24,24,24,24,24,0,24,0,,,,,,0,,08-02-22,08-02-22,13:58:14,Tue Mar 08 2022 13:58:14 GMT+0100 (közép-európai téli idő),The main experiment item,yes,0,0,C:/Users/rrics/Documents/!!ResearchBMECOGSCI/gnet,0,0,0,prototype1.png,no,mono,no,18,no,black,no,no,768,1188,3.5.6,legacy,xpyriment,osweb,1.3.13,0,space,space,space,,33047,17931,33047,,2,legacy,1040,1920,24,1080,24,0,0,1920,1646744337823,1024,2,48000,-16,experiment,p4sarrsha2.png,0,even,Win32,2839,132576,129566,2839,2839,328616,330123,323618,134095,323618,2839,,,,,,visual_patterns,0,0,0,yes,1366
undefined,undefined,undefined,undefined,white,no,Mozilla,Netscape,"5.0 (Windows NT 10.0; Win64; x64) AppleWebKit/537.36 (KHTML, like Gecko) Chrome/97.0.4692.99 Safari/537.36",xpyriment,legacy,legacy,0,uniform,0,0,0,0,24,24,24,0,0,25,25,25,25,25,0,25,0,,,,,,0,,08-02-22,08-02-22,13:58:14,Tue Mar 08 2022 13:58:14 GMT+0100 (közép-európai téli idő),The main experiment item,yes,0,0,C:/Users/rrics/Documents/!!ResearchBMECOGSCI/gnet,0,0,0,prototype1.png,no,mono,no,18,no,black,no,no,768,1188,3.5.6,legacy,xpyriment,osweb,1.3.13,0,space,space,space,,33047,17931,33047,,2,legacy,1040,1920,24,1080,24,0,0,1920,1646744337823,1024,2,48000,-16,experiment,p9sarr1.png,0,even,Win32,2839,132576,129566,2839,2839,335131,336637,330133,134095,330133,2839,,,,,,visual_patterns,0,0,0,yes,1366
undefined,undefined,undefined,undefined,white,no,Mozilla,Netscape,"5.0 (Windows NT 10.0; Win64; x64) AppleWebKit/537.36 (KHTML, like Gecko) Chrome/97.0.4692.99 Safari/537.36",xpyriment,legacy,legacy,0,uniform,0,0,0,0,24,24,24,0,0,26,26,26,26,26,0,26,0,,,,,,0,,08-02-22,08-02-22,13:58:14,Tue Mar 08 2022 13:58:14 GMT+0100 (közép-európai téli idő),The main experiment item,yes,0,0,C:/Users/rrics/Documents/!!ResearchBMECOGSCI/gnet,0,0,0,prototype1.png,no,mono,no,18,no,black,no,no,768,1188,3.5.6,legacy,xpyriment,osweb,1.3.13,0,space,space,space,,33047,17931,33047,,2,legacy,1040,1920,24,1080,24,0,0,1920,1646744337823,1024,2,48000,-16,experiment,prototype1.png,0,even,Win32,2839,132576,129566,2839,2839,341658,343170,336667,134095,336667,2839,,,,,,visual_patterns,0,0,0,yes,1366
undefined,undefined,undefined,undefined,white,no,Mozilla,Netscape,"5.0 (Windows NT 10.0; Win64; x64) AppleWebKit/537.36 (KHTML, like Gecko) Chrome/97.0.4692.99 Safari/537.36",xpyriment,legacy,legacy,0,uniform,0,0,0,0,24,24,24,0,0,27,27,27,27,27,0,27,0,,,,,,0,,08-02-22,08-02-22,13:58:14,Tue Mar 08 2022 13:58:14 GMT+0100 (közép-európai téli idő),The main experiment item,yes,0,0,C:/Users/rrics/Documents/!!ResearchBMECOGSCI/gnet,0,0,0,prototype1.png,no,mono,no,18,no,black,no,no,768,1188,3.5.6,legacy,xpyriment,osweb,1.3.13,0,space,space,space,,33047,17931,33047,,2,legacy,1040,1920,24,1080,24,0,0,1920,1646744337823,1024,2,48000,-16,experiment,p4sarrcol1.png,0,even,Win32,2839,132576,129566,2839,2839,348178,349684,343181,134095,343181,2839,,,,,,visual_patterns,0,0,0,yes,1366
undefined,undefined,undefined,undefined,white,no,Mozilla,Netscape,"5.0 (Windows NT 10.0; Win64; x64) AppleWebKit/537.36 (KHTML, like Gecko) Chrome/97.0.4692.99 Safari/537.36",xpyriment,legacy,legacy,0,uniform,0,0,0,0,24,24,24,0,0,28,28,28,28,28,0,28,0,,,,,,0,,08-02-22,08-02-22,13:58:14,Tue Mar 08 2022 13:58:14 GMT+0100 (közép-európai téli idő),The main experiment item,yes,0,0,C:/Users/rrics/Documents/!!ResearchBMECOGSCI/gnet,0,0,0,prototype1.png,no,mono,no,18,no,black,no,no,768,1188,3.5.6,legacy,xpyriment,osweb,1.3.13,0,space,space,space,,33047,17931,33047,,2,legacy,1040,1920,24,1080,24,0,0,1920,1646744337823,1024,2,48000,-16,experiment,prototype4.png,0,even,Win32,2839,132576,129566,2839,2839,354710,356215,349714,134095,349714,2839,,,,,,visual_patterns,0,0,0,yes,1366
undefined,undefined,undefined,undefined,white,no,Mozilla,Netscape,"5.0 (Windows NT 10.0; Win64; x64) AppleWebKit/537.36 (KHTML, like Gecko) Chrome/97.0.4692.99 Safari/537.36",xpyriment,legacy,legacy,0,uniform,0,0,0,0,24,24,24,0,0,29,29,29,29,29,0,29,0,,,,,,0,,08-02-22,08-02-22,13:58:14,Tue Mar 08 2022 13:58:14 GMT+0100 (közép-európai téli idő),The main experiment item,yes,0,0,C:/Users/rrics/Documents/!!ResearchBMECOGSCI/gnet,0,0,0,prototype1.png,no,mono,no,18,no,black,no,no,768,1188,3.5.6,legacy,xpyriment,osweb,1.3.13,0,space,space,space,,33047,17931,33047,,2,legacy,1040,1920,24,1080,24,0,0,1920,1646744337823,1024,2,48000,-16,experiment,prototype5.png,0,even,Win32,2839,132576,129566,2839,2839,361221,362732,356224,134095,356224,2839,,,,,,visual_patterns,0,0,0,yes,1366
undefined,undefined,undefined,undefined,white,no,Mozilla,Netscape,"5.0 (Windows NT 10.0; Win64; x64) AppleWebKit/537.36 (KHTML, like Gecko) Chrome/97.0.4692.99 Safari/537.36",xpyriment,legacy,legacy,0,uniform,0,0,0,0,24,24,24,0,0,30,30,30,30,30,0,30,0,,,,,,0,,08-02-22,08-02-22,13:58:14,Tue Mar 08 2022 13:58:14 GMT+0100 (közép-európai téli idő),The main experiment item,yes,0,0,C:/Users/rrics/Documents/!!ResearchBMECOGSCI/gnet,0,0,0,prototype1.png,no,mono,no,18,no,black,no,no,768,1188,3.5.6,legacy,xpyriment,osweb,1.3.13,0,space,space,space,,33047,17931,33047,,2,legacy,1040,1920,24,1080,24,0,0,1920,1646744337823,1024,2,48000,-16,experiment,p5sarrcol2.png,0,even,Win32,2839,132576,129566,2839,2839,367739,369247,362746,134095,362746,2839,,,,,,visual_patterns,0,0,0,yes,1366
undefined,undefined,undefined,undefined,white,no,Mozilla,Netscape,"5.0 (Windows NT 10.0; Win64; x64) AppleWebKit/537.36 (KHTML, like Gecko) Chrome/97.0.4692.99 Safari/537.36",xpyriment,legacy,legacy,0,uniform,0,0,0,0,24,24,24,0,0,31,31,31,31,31,0,31,0,,,,,,0,,08-02-22,08-02-22,13:58:14,Tue Mar 08 2022 13:58:14 GMT+0100 (közép-európai téli idő),The main experiment item,yes,0,0,C:/Users/rrics/Documents/!!ResearchBMECOGSCI/gnet,0,0,0,prototype1.png,no,mono,no,18,no,black,no,no,768,1188,3.5.6,legacy,xpyriment,osweb,1.3.13,0,space,space,space,,33047,17931,33047,,2,legacy,1040,1920,24,1080,24,0,0,1920,1646744337823,1024,2,48000,-16,experiment,p2sarrsha2.png,0,even,Win32,2839,132576,129566,2839,2839,374268,375778,369275,134095,369275,2839,,,,,,visual_patterns,0,0,0,yes,1366
undefined,undefined,undefined,undefined,white,no,Mozilla,Netscape,"5.0 (Windows NT 10.0; Win64; x64) AppleWebKit/537.36 (KHTML, like Gecko) Chrome/97.0.4692.99 Safari/537.36",xpyriment,legacy,legacy,0,uniform,0,0,0,0,24,24,24,0,0,32,32,32,32,32,0,32,0,,,,,,0,,08-02-22,08-02-22,13:58:14,Tue Mar 08 2022 13:58:14 GMT+0100 (közép-európai téli idő),The main experiment item,yes,0,0,C:/Users/rrics/Documents/!!ResearchBMECOGSCI/gnet,0,0,0,prototype1.png,no,mono,no,18,no,black,no,no,768,1188,3.5.6,legacy,xpyriment,osweb,1.3.13,0,space,space,space,,33047,17931,33047,,2,legacy,1040,1920,24,1080,24,0,0,1920,1646744337823,1024,2,48000,-16,experiment,p5sarr1.png,0,even,Win32,2839,132576,129566,2839,2839,380788,382294,375789,134095,375789,2839,,,,,,visual_patterns,0,0,0,yes,1366
undefined,undefined,undefined,undefined,white,no,Mozilla,Netscape,"5.0 (Windows NT 10.0; Win64; x64) AppleWebKit/537.36 (KHTML, like Gecko) Chrome/97.0.4692.99 Safari/537.36",xpyriment,legacy,legacy,0,uniform,0,0,0,0,24,24,24,0,0,33,33,33,33,33,0,33,0,,,,,,0,,08-02-22,08-02-22,13:58:14,Tue Mar 08 2022 13:58:14 GMT+0100 (közép-európai téli idő),The main experiment item,yes,0,0,C:/Users/rrics/Documents/!!ResearchBMECOGSCI/gnet,0,0,0,prototype1.png,no,mono,no,18,no,black,no,no,768,1188,3.5.6,legacy,xpyriment,osweb,1.3.13,0,space,space,space,,33047,17931,33047,,2,legacy,1040,1920,24,1080,24,0,0,1920,1646744337823,1024,2,48000,-16,experiment,p3sarrshacol1.png,0,even,Win32,2839,132576,129566,2839,2839,387305,388810,382308,134095,382308,2839,,,,,,visual_patterns,0,0,0,yes,1366
undefined,undefined,undefined,undefined,white,no,Mozilla,Netscape,"5.0 (Windows NT 10.0; Win64; x64) AppleWebKit/537.36 (KHTML, like Gecko) Chrome/97.0.4692.99 Safari/537.36",xpyriment,legacy,legacy,0,uniform,0,0,0,0,24,24,24,0,0,34,34,34,34,34,0,34,0,,,,,,0,,08-02-22,08-02-22,13:58:14,Tue Mar 08 2022 13:58:14 GMT+0100 (közép-európai téli idő),The main experiment item,yes,0,0,C:/Users/rrics/Documents/!!ResearchBMECOGSCI/gnet,0,0,0,prototype1.png,no,mono,no,18,no,black,no,no,768,1188,3.5.6,legacy,xpyriment,osweb,1.3.13,0,space,space,space,,33047,17931,33047,,2,legacy,1040,1920,24,1080,24,0,0,1920,1646744337823,1024,2,48000,-16,experiment,prototype1.png,0,even,Win32,2839,132576,129566,2839,2839,393819,395324,388820,134095,388820,2839,,,,,,visual_patterns,0,0,0,yes,1366
undefined,undefined,undefined,undefined,white,no,Mozilla,Netscape,"5.0 (Windows NT 10.0; Win64; x64) AppleWebKit/537.36 (KHTML, like Gecko) Chrome/97.0.4692.99 Safari/537.36",xpyriment,legacy,legacy,0,uniform,0,0,0,0,24,24,24,0,0,35,35,35,35,35,0,35,0,,,,,,0,,08-02-22,08-02-22,13:58:14,Tue Mar 08 2022 13:58:14 GMT+0100 (közép-európai téli idő),The main experiment item,yes,0,0,C:/Users/rrics/Documents/!!ResearchBMECOGSCI/gnet,0,0,0,prototype1.png,no,mono,no,18,no,black,no,no,768,1188,3.5.6,legacy,xpyriment,osweb,1.3.13,0,space,space,space,,33047,17931,33047,,2,legacy,1040,1920,24,1080,24,0,0,1920,1646744337823,1024,2,48000,-16,experiment,p4sarrshacol1.png,0,even,Win32,2839,132576,129566,2839,2839,400334,401841,395338,134095,395338,2839,,,,,,visual_patterns,0,0,0,yes,1366
undefined,undefined,undefined,undefined,white,no,Mozilla,Netscape,"5.0 (Windows NT 10.0; Win64; x64) AppleWebKit/537.36 (KHTML, like Gecko) Chrome/97.0.4692.99 Safari/537.36",xpyriment,legacy,legacy,0,uniform,0,0,0,0,24,24,24,0,0,36,36,36,36,36,0,36,0,,,,,,0,,08-02-22,08-02-22,13:58:14,Tue Mar 08 2022 13:58:14 GMT+0100 (közép-európai téli idő),The main experiment item,yes,0,0,C:/Users/rrics/Documents/!!ResearchBMECOGSCI/gnet,0,0,0,prototype1.png,no,mono,no,18,no,black,no,no,768,1188,3.5.6,legacy,xpyriment,osweb,1.3.13,0,space,space,space,,33047,17931,33047,,2,legacy,1040,1920,24,1080,24,0,0,1920,1646744337823,1024,2,48000,-16,experiment,prototype3.png,0,even,Win32,2839,132576,129566,2839,2839,406848,408356,401850,134095,401850,2839,,,,,,visual_patterns,0,0,0,yes,1366
undefined,undefined,undefined,undefined,white,no,Mozilla,Netscape,"5.0 (Windows NT 10.0; Win64; x64) AppleWebKit/537.36 (KHTML, like Gecko) Chrome/97.0.4692.99 Safari/537.36",xpyriment,legacy,legacy,0,uniform,0,0,0,0,24,24,24,0,0,37,37,37,37,37,0,37,0,,,,,,0,,08-02-22,08-02-22,13:58:14,Tue Mar 08 2022 13:58:14 GMT+0100 (közép-európai téli idő),The main experiment item,yes,0,0,C:/Users/rrics/Documents/!!ResearchBMECOGSCI/gnet,0,0,0,prototype1.png,no,mono,no,18,no,black,no,no,768,1188,3.5.6,legacy,xpyriment,osweb,1.3.13,0,space,space,space,,33047,17931,33047,,2,legacy,1040,1920,24,1080,24,0,0,1920,1646744337823,1024,2,48000,-16,experiment,prototype3.png,0,even,Win32,2839,132576,129566,2839,2839,413364,414872,408368,134095,408368,2839,,,,,,visual_patterns,0,0,0,yes,1366
undefined,undefined,undefined,undefined,white,no,Mozilla,Netscape,"5.0 (Windows NT 10.0; Win64; x64) AppleWebKit/537.36 (KHTML, like Gecko) Chrome/97.0.4692.99 Safari/537.36",xpyriment,legacy,legacy,0,uniform,0,0,0,0,24,24,24,0,0,38,38,38,38,38,0,38,0,,,,,,0,,08-02-22,08-02-22,13:58:14,Tue Mar 08 2022 13:58:14 GMT+0100 (közép-európai téli idő),The main experiment item,yes,0,0,C:/Users/rrics/Documents/!!ResearchBMECOGSCI/gnet,0,0,0,prototype1.png,no,mono,no,18,no,black,no,no,768,1188,3.5.6,legacy,xpyriment,osweb,1.3.13,0,space,space,space,,33047,17931,33047,,2,legacy,1040,1920,24,1080,24,0,0,1920,1646744337823,1024,2,48000,-16,experiment,p7sarr1.png,0,even,Win32,2839,132576,129566,2839,2839,419891,421403,414899,134095,414899,2839,,,,,,visual_patterns,0,0,0,yes,1366
undefined,undefined,undefined,undefined,white,no,Mozilla,Netscape,"5.0 (Windows NT 10.0; Win64; x64) AppleWebKit/537.36 (KHTML, like Gecko) Chrome/97.0.4692.99 Safari/537.36",xpyriment,legacy,legacy,0,uniform,0,0,0,0,24,24,24,0,0,39,39,39,39,39,0,39,0,,,,,,0,,08-02-22,08-02-22,13:58:14,Tue Mar 08 2022 13:58:14 GMT+0100 (közép-európai téli idő),The main experiment item,yes,0,0,C:/Users/rrics/Documents/!!ResearchBMECOGSCI/gnet,0,0,0,prototype1.png,no,mono,no,18,no,black,no,no,768,1188,3.5.6,legacy,xpyriment,osweb,1.3.13,0,space,space,space,,33047,17931,33047,,2,legacy,1040,1920,24,1080,24,0,0,1920,1646744337823,1024,2,48000,-16,experiment,p1sarrsha1.png,0,even,Win32,2839,132576,129566,2839,2839,426424,427935,421431,134095,421431,2839,,,,,,visual_patterns,0,0,0,yes,1366
undefined,undefined,undefined,undefined,white,no,Mozilla,Netscape,"5.0 (Windows NT 10.0; Win64; x64) AppleWebKit/537.36 (KHTML, like Gecko) Chrome/97.0.4692.99 Safari/537.36",xpyriment,legacy,legacy,0,uniform,0,0,0,0,24,24,24,0,0,40,40,40,40,40,0,40,0,,,,,,0,,08-02-22,08-02-22,13:58:14,Tue Mar 08 2022 13:58:14 GMT+0100 (közép-európai téli idő),The main experiment item,yes,0,0,C:/Users/rrics/Documents/!!ResearchBMECOGSCI/gnet,0,0,0,prototype1.png,no,mono,no,18,no,black,no,no,768,1188,3.5.6,legacy,xpyriment,osweb,1.3.13,0,space,space,space,,33047,17931,33047,,2,legacy,1040,1920,24,1080,24,0,0,1920,1646744337823,1024,2,48000,-16,experiment,prototype5.png,0,even,Win32,2839,132576,129566,2839,2839,432944,434451,427944,134095,427944,2839,,,,,,visual_patterns,0,0,0,yes,1366
undefined,undefined,undefined,undefined,white,no,Mozilla,Netscape,"5.0 (Windows NT 10.0; Win64; x64) AppleWebKit/537.36 (KHTML, like Gecko) Chrome/97.0.4692.99 Safari/537.36",xpyriment,legacy,legacy,0,uniform,0,0,0,0,24,24,24,0,0,41,41,41,41,41,0,41,0,,,,,,0,,08-02-22,08-02-22,13:58:14,Tue Mar 08 2022 13:58:14 GMT+0100 (közép-európai téli idő),The main experiment item,yes,0,0,C:/Users/rrics/Documents/!!ResearchBMECOGSCI/gnet,0,0,0,prototype1.png,no,mono,no,18,no,black,no,no,768,1188,3.5.6,legacy,xpyriment,osweb,1.3.13,0,space,space,space,,33047,17931,33047,,2,legacy,1040,1920,24,1080,24,0,0,1920,1646744337823,1024,2,48000,-16,experiment,p3sarrshacol2.png,0,even,Win32,2839,132576,129566,2839,2839,439459,440966,434462,134095,434462,2839,,,,,,visual_patterns,0,0,0,yes,1366
undefined,undefined,undefined,undefined,white,no,Mozilla,Netscape,"5.0 (Windows NT 10.0; Win64; x64) AppleWebKit/537.36 (KHTML, like Gecko) Chrome/97.0.4692.99 Safari/537.36",xpyriment,legacy,legacy,0,uniform,0,0,0,0,24,24,24,0,0,42,42,42,42,42,0,42,0,,,,,,0,,08-02-22,08-02-22,13:58:14,Tue Mar 08 2022 13:58:14 GMT+0100 (közép-európai téli idő),The main experiment item,yes,0,0,C:/Users/rrics/Documents/!!ResearchBMECOGSCI/gnet,0,0,0,prototype1.png,no,mono,no,18,no,black,no,no,768,1188,3.5.6,legacy,xpyriment,osweb,1.3.13,0,space,space,space,,33047,17931,33047,,2,legacy,1040,1920,24,1080,24,0,0,1920,1646744337823,1024,2,48000,-16,experiment,p3sarrcol2.png,0,even,Win32,2839,132576,129566,2839,2839,445983,447497,440992,134095,440992,2839,,,,,,visual_patterns,0,0,0,yes,1366
undefined,undefined,undefined,undefined,white,no,Mozilla,Netscape,"5.0 (Windows NT 10.0; Win64; x64) AppleWebKit/537.36 (KHTML, like Gecko) Chrome/97.0.4692.99 Safari/537.36",xpyriment,legacy,legacy,0,uniform,0,0,0,0,24,24,24,0,0,43,43,43,43,43,0,43,0,,,,,,0,,08-02-22,08-02-22,13:58:14,Tue Mar 08 2022 13:58:14 GMT+0100 (közép-európai téli idő),The main experiment item,yes,0,0,C:/Users/rrics/Documents/!!ResearchBMECOGSCI/gnet,0,0,0,prototype1.png,no,mono,no,18,no,black,no,no,768,1188,3.5.6,legacy,xpyriment,osweb,1.3.13,0,space,space,space,,33047,17931,33047,,2,legacy,1040,1920,24,1080,24,0,0,1920,1646744337823,1024,2,48000,-16,experiment,p3sarr2.png,0,even,Win32,2839,132576,129566,2839,2839,452502,454013,447507,134095,447507,2839,,,,,,visual_patterns,0,0,0,yes,1366
undefined,undefined,undefined,undefined,white,no,Mozilla,Netscape,"5.0 (Windows NT 10.0; Win64; x64) AppleWebKit/537.36 (KHTML, like Gecko) Chrome/97.0.4692.99 Safari/537.36",xpyriment,legacy,legacy,0,uniform,0,0,0,0,24,24,24,0,0,44,44,44,44,44,0,44,0,,,,,,0,,08-02-22,08-02-22,13:58:14,Tue Mar 08 2022 13:58:14 GMT+0100 (közép-európai téli idő),The main experiment item,yes,0,0,C:/Users/rrics/Documents/!!ResearchBMECOGSCI/gnet,0,0,0,prototype1.png,no,mono,no,18,no,black,no,no,768,1188,3.5.6,legacy,xpyriment,osweb,1.3.13,0,space,space,space,,33047,17931,33047,,2,legacy,1040,1920,24,1080,24,0,0,1920,1646744337823,1024,2,48000,-16,experiment,p2sarrsha1.png,0,even,Win32,2839,132576,129566,2839,2839,459033,460544,454041,134095,454041,2839,,,,,,visual_patterns,0,0,0,yes,1366
undefined,undefined,undefined,undefined,white,no,Mozilla,Netscape,"5.0 (Windows NT 10.0; Win64; x64) AppleWebKit/537.36 (KHTML, like Gecko) Chrome/97.0.4692.99 Safari/537.36",xpyriment,legacy,legacy,0,uniform,0,0,0,0,24,24,24,0,0,45,45,45,45,45,0,45,0,,,,,,0,,08-02-22,08-02-22,13:58:14,Tue Mar 08 2022 13:58:14 GMT+0100 (közép-európai téli idő),The main experiment item,yes,0,0,C:/Users/rrics/Documents/!!ResearchBMECOGSCI/gnet,0,0,0,prototype1.png,no,mono,no,18,no,black,no,no,768,1188,3.5.6,legacy,xpyriment,osweb,1.3.13,0,space,space,space,,33047,17931,33047,,2,legacy,1040,1920,24,1080,24,0,0,1920,1646744337823,1024,2,48000,-16,experiment,p4sarrsha1.png,0,even,Win32,2839,132576,129566,2839,2839,465552,467060,460555,134095,460555,2839,,,,,,visual_patterns,0,0,0,yes,1366
undefined,undefined,undefined,undefined,white,no,Mozilla,Netscape,"5.0 (Windows NT 10.0; Win64; x64) AppleWebKit/537.36 (KHTML, like Gecko) Chrome/97.0.4692.99 Safari/537.36",xpyriment,legacy,legacy,0,uniform,0,0,0,0,24,24,24,0,0,46,46,46,46,46,0,46,0,,,,,,0,,08-02-22,08-02-22,13:58:14,Tue Mar 08 2022 13:58:14 GMT+0100 (közép-európai téli idő),The main experiment item,yes,0,0,C:/Users/rrics/Documents/!!ResearchBMECOGSCI/gnet,0,0,0,prototype1.png,no,mono,no,18,no,black,no,no,768,1188,3.5.6,legacy,xpyriment,osweb,1.3.13,0,space,space,space,,33047,17931,33047,,2,legacy,1040,1920,24,1080,24,0,0,1920,1646744337823,1024,2,48000,-16,experiment,p1sarrcol1.png,0,even,Win32,2839,132576,129566,2839,2839,472068,473575,467070,134095,467070,2839,,,,,,visual_patterns,0,0,0,yes,1366
undefined,undefined,undefined,undefined,white,no,Mozilla,Netscape,"5.0 (Windows NT 10.0; Win64; x64) AppleWebKit/537.36 (KHTML, like Gecko) Chrome/97.0.4692.99 Safari/537.36",xpyriment,legacy,legacy,0,uniform,0,0,0,0,24,24,24,0,0,47,47,47,47,47,0,47,0,,,,,,0,,08-02-22,08-02-22,13:58:14,Tue Mar 08 2022 13:58:14 GMT+0100 (közép-európai téli idő),The main experiment item,yes,0,0,C:/Users/rrics/Documents/!!ResearchBMECOGSCI/gnet,0,0,0,prototype1.png,no,mono,no,18,no,black,no,no,768,1188,3.5.6,legacy,xpyriment,osweb,1.3.13,0,space,space,space,,33047,17931,33047,,2,legacy,1040,1920,24,1080,24,0,0,1920,1646744337823,1024,2,48000,-16,experiment,p1sarrsha2.png,0,even,Win32,2839,132576,129566,2839,2839,478583,480091,473585,134095,473585,2839,,,,,,visual_patterns,0,0,0,yes,1366
undefined,undefined,undefined,undefined,white,no,Mozilla,Netscape,"5.0 (Windows NT 10.0; Win64; x64) AppleWebKit/537.36 (KHTML, like Gecko) Chrome/97.0.4692.99 Safari/537.36",xpyriment,legacy,legacy,0,uniform,0,0,0,0,24,24,24,0,0,48,48,48,48,48,0,48,0,,,,,,0,,08-02-22,08-02-22,13:58:14,Tue Mar 08 2022 13:58:14 GMT+0100 (közép-európai téli idő),The main experiment item,yes,0,0,C:/Users/rrics/Documents/!!ResearchBMECOGSCI/gnet,0,0,0,prototype1.png,no,mono,no,18,no,black,no,no,768,1188,3.5.6,legacy,xpyriment,osweb,1.3.13,0,space,space,space,,33047,17931,33047,,2,legacy,1040,1920,24,1080,24,0,0,1920,1646744337823,1024,2,48000,-16,experiment,p7sarr2.png,0,even,Win32,2839,132576,129566,2839,2839,485808,487310,480811,134095,480811,2839,,,,,,visual_patterns,0,0,0,yes,1366
undefined,undefined,undefined,undefined,white,no,Mozilla,Netscape,"5.0 (Windows NT 10.0; Win64; x64) AppleWebKit/537.36 (KHTML, like Gecko) Chrome/97.0.4692.99 Safari/537.36",xpyriment,legacy,legacy,0,uniform,0,0,0,0,24,24,24,0,0,49,49,49,49,49,0,49,0,,,,,,0,,08-02-22,08-02-22,13:58:14,Tue Mar 08 2022 13:58:14 GMT+0100 (közép-európai téli idő),The main experiment item,yes,0,0,C:/Users/rrics/Documents/!!ResearchBMECOGSCI/gnet,0,0,0,prototype1.png,no,mono,no,18,no,black,no,no,768,1188,3.5.6,legacy,xpyriment,osweb,1.3.13,0,space,space,space,,33047,17931,33047,,2,legacy,1040,1920,24,1080,24,0,0,1920,1646744337823,1024,2,48000,-16,experiment,p4sarr1.png,0,even,Win32,2839,132576,129566,2839,2839,492320,493825,487321,134095,487321,2839,,,,,,visual_patterns,0,0,0,yes,1366
undefined,undefined,undefined,undefined,white,no,Mozilla,Netscape,"5.0 (Windows NT 10.0; Win64; x64) AppleWebKit/537.36 (KHTML, like Gecko) Chrome/97.0.4692.99 Safari/537.36",xpyriment,legacy,legacy,0,uniform,0,0,0,0,24,24,24,0,0,50,50,50,50,50,0,50,0,,,,,,0,,08-02-22,08-02-22,13:58:14,Tue Mar 08 2022 13:58:14 GMT+0100 (közép-európai téli idő),The main experiment item,yes,0,0,C:/Users/rrics/Documents/!!ResearchBMECOGSCI/gnet,0,0,0,prototype1.png,no,mono,no,18,no,black,no,no,768,1188,3.5.6,legacy,xpyriment,osweb,1.3.13,0,space,space,space,,33047,17931,33047,,2,legacy,1040,1920,24,1080,24,0,0,1920,1646744337823,1024,2,48000,-16,experiment,p10sarr1.png,0,even,Win32,2839,132576,129566,2839,2839,498832,500340,493835,134095,493835,2839,,,,,,visual_patterns,0,0,0,yes,1366
undefined,undefined,undefined,undefined,white,no,Mozilla,Netscape,"5.0 (Windows NT 10.0; Win64; x64) AppleWebKit/537.36 (KHTML, like Gecko) Chrome/97.0.4692.99 Safari/537.36",xpyriment,legacy,legacy,0,uniform,0,0,0,0,24,24,24,0,0,51,51,51,51,51,0,51,0,,,,,,0,,08-02-22,08-02-22,13:58:14,Tue Mar 08 2022 13:58:14 GMT+0100 (közép-európai téli idő),The main experiment item,yes,0,0,C:/Users/rrics/Documents/!!ResearchBMECOGSCI/gnet,0,0,0,prototype1.png,no,mono,no,18,no,black,no,no,768,1188,3.5.6,legacy,xpyriment,osweb,1.3.13,0,space,space,space,,33047,17931,33047,,2,legacy,1040,1920,24,1080,24,0,0,1920,1646744337823,1024,2,48000,-16,experiment,prototype3.png,0,even,Win32,2839,132576,129566,2839,2839,505360,506872,500369,134095,500369,2839,,,,,,visual_patterns,0,0,0,yes,1366
undefined,undefined,undefined,undefined,white,no,Mozilla,Netscape,"5.0 (Windows NT 10.0; Win64; x64) AppleWebKit/537.36 (KHTML, like Gecko) Chrome/97.0.4692.99 Safari/537.36",xpyriment,legacy,legacy,0,uniform,0,0,0,0,24,24,24,0,0,52,52,52,52,52,0,52,0,,,,,,0,,08-02-22,08-02-22,13:58:14,Tue Mar 08 2022 13:58:14 GMT+0100 (közép-európai téli idő),The main experiment item,yes,0,0,C:/Users/rrics/Documents/!!ResearchBMECOGSCI/gnet,0,0,0,prototype1.png,no,mono,no,18,no,black,no,no,768,1188,3.5.6,legacy,xpyriment,osweb,1.3.13,0,space,space,space,,33047,17931,33047,,2,legacy,1040,1920,24,1080,24,0,0,1920,1646744337823,1024,2,48000,-16,experiment,p1sarr1.png,0,even,Win32,2839,132576,129566,2839,2839,511883,513388,506884,134095,506884,2839,,,,,,visual_patterns,0,0,0,yes,1366
undefined,undefined,undefined,undefined,white,no,Mozilla,Netscape,"5.0 (Windows NT 10.0; Win64; x64) AppleWebKit/537.36 (KHTML, like Gecko) Chrome/97.0.4692.99 Safari/537.36",xpyriment,legacy,legacy,0,uniform,0,0,0,0,24,24,24,0,0,53,53,53,53,53,0,53,0,,,,,,0,,08-02-22,08-02-22,13:58:14,Tue Mar 08 2022 13:58:14 GMT+0100 (közép-európai téli idő),The main experiment item,yes,0,0,C:/Users/rrics/Documents/!!ResearchBMECOGSCI/gnet,0,0,0,prototype1.png,no,mono,no,18,no,black,no,no,768,1188,3.5.6,legacy,xpyriment,osweb,1.3.13,0,space,space,space,,33047,17931,33047,,2,legacy,1040,1920,24,1080,24,0,0,1920,1646744337823,1024,2,48000,-16,experiment,p1sarrcol2.png,0,even,Win32,2839,132576,129566,2839,2839,518396,519903,513399,134095,513399,2839,,,,,,visual_patterns,0,0,0,yes,1366
undefined,undefined,undefined,undefined,white,no,Mozilla,Netscape,"5.0 (Windows NT 10.0; Win64; x64) AppleWebKit/537.36 (KHTML, like Gecko) Chrome/97.0.4692.99 Safari/537.36",xpyriment,legacy,legacy,0,uniform,0,0,0,0,24,24,24,0,0,54,54,54,54,54,0,54,0,,,,,,0,,08-02-22,08-02-22,13:58:14,Tue Mar 08 2022 13:58:14 GMT+0100 (közép-európai téli idő),The main experiment item,yes,0,0,C:/Users/rrics/Documents/!!ResearchBMECOGSCI/gnet,0,0,0,prototype1.png,no,mono,no,18,no,black,no,no,768,1188,3.5.6,legacy,xpyriment,osweb,1.3.13,0,space,space,space,,33047,17931,33047,,2,legacy,1040,1920,24,1080,24,0,0,1920,1646744337823,1024,2,48000,-16,experiment,p2sarrcol2.png,0,even,Win32,2839,132576,129566,2839,2839,524913,526418,519913,134095,519913,2839,,,,,,visual_patterns,0,0,0,yes,1366
undefined,undefined,undefined,undefined,white,no,Mozilla,Netscape,"5.0 (Windows NT 10.0; Win64; x64) AppleWebKit/537.36 (KHTML, like Gecko) Chrome/97.0.4692.99 Safari/537.36",xpyriment,legacy,legacy,0,uniform,0,0,0,0,24,24,24,0,0,55,55,55,55,55,0,55,0,,,,,,0,,08-02-22,08-02-22,13:58:14,Tue Mar 08 2022 13:58:14 GMT+0100 (közép-európai téli idő),The main experiment item,yes,0,0,C:/Users/rrics/Documents/!!ResearchBMECOGSCI/gnet,0,0,0,prototype1.png,no,mono,no,18,no,black,no,no,768,1188,3.5.6,legacy,xpyriment,osweb,1.3.13,0,space,space,space,,33047,17931,33047,,2,legacy,1040,1920,24,1080,24,0,0,1920,1646744337823,1024,2,48000,-16,experiment,prototype4.png,0,even,Win32,2839,132576,129566,2839,2839,531438,532951,526440,134095,526440,2839,,,,,,visual_patterns,0,0,0,yes,1366
undefined,undefined,undefined,undefined,white,no,Mozilla,Netscape,"5.0 (Windows NT 10.0; Win64; x64) AppleWebKit/537.36 (KHTML, like Gecko) Chrome/97.0.4692.99 Safari/537.36",xpyriment,legacy,legacy,0,uniform,0,0,0,0,24,24,24,0,0,56,56,56,56,56,0,56,0,,,,,,0,,08-02-22,08-02-22,13:58:14,Tue Mar 08 2022 13:58:14 GMT+0100 (közép-európai téli idő),The main experiment item,yes,0,0,C:/Users/rrics/Documents/!!ResearchBMECOGSCI/gnet,0,0,0,prototype1.png,no,mono,no,18,no,black,no,no,768,1188,3.5.6,legacy,xpyriment,osweb,1.3.13,0,space,space,space,,33047,17931,33047,,2,legacy,1040,1920,24,1080,24,0,0,1920,1646744337823,1024,2,48000,-16,experiment,p2sarrshacol1.png,0,even,Win32,2839,132576,129566,2839,2839,537958,539466,532961,134095,532961,2839,,,,,,visual_patterns,0,0,0,yes,1366
undefined,undefined,undefined,undefined,white,no,Mozilla,Netscape,"5.0 (Windows NT 10.0; Win64; x64) AppleWebKit/537.36 (KHTML, like Gecko) Chrome/97.0.4692.99 Safari/537.36",xpyriment,legacy,legacy,0,uniform,0,0,0,0,24,24,24,0,0,57,57,57,57,57,0,57,0,,,,,,0,,08-02-22,08-02-22,13:58:14,Tue Mar 08 2022 13:58:14 GMT+0100 (közép-európai téli idő),The main experiment item,yes,0,0,C:/Users/rrics/Documents/!!ResearchBMECOGSCI/gnet,0,0,0,prototype1.png,no,mono,no,18,no,black,no,no,768,1188,3.5.6,legacy,xpyriment,osweb,1.3.13,0,space,space,space,,33047,17931,33047,,2,legacy,1040,1920,24,1080,24,0,0,1920,1646744337823,1024,2,48000,-16,experiment,prototype5.png,0,even,Win32,2839,132576,129566,2839,2839,544475,545981,539477,134095,539477,2839,,,,,,visual_patterns,0,0,0,yes,1366
undefined,undefined,undefined,undefined,white,no,Mozilla,Netscape,"5.0 (Windows NT 10.0; Win64; x64) AppleWebKit/537.36 (KHTML, like Gecko) Chrome/97.0.4692.99 Safari/537.36",xpyriment,legacy,legacy,0,uniform,0,0,0,0,24,24,24,0,0,58,58,58,58,58,0,58,0,,,,,,0,,08-02-22,08-02-22,13:58:14,Tue Mar 08 2022 13:58:14 GMT+0100 (közép-európai téli idő),The main experiment item,yes,0,0,C:/Users/rrics/Documents/!!ResearchBMECOGSCI/gnet,0,0,0,prototype1.png,no,mono,no,18,no,black,no,no,768,1188,3.5.6,legacy,xpyriment,osweb,1.3.13,0,space,space,space,,33047,17931,33047,,2,legacy,1040,1920,24,1080,24,0,0,1920,1646744337823,1024,2,48000,-16,experiment,prototype2.png,0,even,Win32,2839,132576,129566,2839,2839,550993,552497,545994,134095,545994,2839,,,,,,visual_patterns,0,0,0,yes,1366
undefined,undefined,undefined,undefined,white,no,Mozilla,Netscape,"5.0 (Windows NT 10.0; Win64; x64) AppleWebKit/537.36 (KHTML, like Gecko) Chrome/97.0.4692.99 Safari/537.36",xpyriment,legacy,legacy,0,uniform,0,0,0,0,24,24,24,0,0,59,59,59,59,59,0,59,0,,,,,,0,,08-02-22,08-02-22,13:58:14,Tue Mar 08 2022 13:58:14 GMT+0100 (közép-európai téli idő),The main experiment item,yes,0,0,C:/Users/rrics/Documents/!!ResearchBMECOGSCI/gnet,0,0,0,prototype1.png,no,mono,no,18,no,black,no,no,768,1188,3.5.6,legacy,xpyriment,osweb,1.3.13,0,space,space,space,,33047,17931,33047,,2,legacy,1040,1920,24,1080,24,0,0,1920,1646744337823,1024,2,48000,-16,experiment,prototype5.png,0,even,Win32,2839,132576,129566,2839,2839,557507,559013,552506,134095,552506,2839,,,,,,visual_patterns,0,0,0,yes,1366
undefined,undefined,undefined,undefined,white,no,Mozilla,Netscape,"5.0 (Windows NT 10.0; Win64; x64) AppleWebKit/537.36 (KHTML, like Gecko) Chrome/97.0.4692.99 Safari/537.36",xpyriment,legacy,legacy,0,uniform,0,0,0,0,24,24,24,0,0,60,60,60,60,60,0,60,0,,,,,,0,,08-02-22,08-02-22,13:58:14,Tue Mar 08 2022 13:58:14 GMT+0100 (közép-európai téli idő),The main experiment item,yes,0,0,C:/Users/rrics/Documents/!!ResearchBMECOGSCI/gnet,0,0,0,prototype1.png,no,mono,no,18,no,black,no,no,768,1188,3.5.6,legacy,xpyriment,osweb,1.3.13,0,space,space,space,,33047,17931,33047,,2,legacy,1040,1920,24,1080,24,0,0,1920,1646744337823,1024,2,48000,-16,experiment,p1sarrshacol2.png,0,even,Win32,2839,132576,129566,2839,2839,564038,565544,559045,134095,559045,2839,,,,,,visual_patterns,0,0,0,yes,1366
undefined,undefined,undefined,undefined,white,no,Mozilla,Netscape,"5.0 (Windows NT 10.0; Win64; x64) AppleWebKit/537.36 (KHTML, like Gecko) Chrome/97.0.4692.99 Safari/537.36",xpyriment,legacy,legacy,0,uniform,0,0,0,0,24,24,24,0,0,61,61,61,61,61,0,61,0,,,,,,0,,08-02-22,08-02-22,13:58:14,Tue Mar 08 2022 13:58:14 GMT+0100 (közép-európai téli idő),The main experiment item,yes,0,0,C:/Users/rrics/Documents/!!ResearchBMECOGSCI/gnet,0,0,0,prototype1.png,no,mono,no,18,no,black,no,no,768,1188,3.5.6,legacy,xpyriment,osweb,1.3.13,0,space,space,space,,33047,17931,33047,,2,legacy,1040,1920,24,1080,24,0,0,1920,1646744337823,1024,2,48000,-16,experiment,p2sarrcol1.png,0,even,Win32,2839,132576,129566,2839,2839,570554,572060,565554,134095,565554,2839,,,,,,visual_patterns,0,0,0,yes,1366
undefined,undefined,undefined,undefined,white,no,Mozilla,Netscape,"5.0 (Windows NT 10.0; Win64; x64) AppleWebKit/537.36 (KHTML, like Gecko) Chrome/97.0.4692.99 Safari/537.36",xpyriment,legacy,legacy,0,uniform,0,0,0,0,24,24,24,0,0,62,62,62,62,62,0,62,0,,,,,,0,,08-02-22,08-02-22,13:58:14,Tue Mar 08 2022 13:58:14 GMT+0100 (közép-európai téli idő),The main experiment item,yes,0,0,C:/Users/rrics/Documents/!!ResearchBMECOGSCI/gnet,0,0,0,prototype1.png,no,mono,no,18,no,black,no,no,768,1188,3.5.6,legacy,xpyriment,osweb,1.3.13,0,space,space,space,,33047,17931,33047,,2,legacy,1040,1920,24,1080,24,0,0,1920,1646744337823,1024,2,48000,-16,experiment,p5sarr2.png,0,even,Win32,2839,132576,129566,2839,2839,577068,578576,572071,134095,572071,2839,,,,,,visual_patterns,0,0,0,yes,1366
undefined,undefined,undefined,undefined,white,no,Mozilla,Netscape,"5.0 (Windows NT 10.0; Win64; x64) AppleWebKit/537.36 (KHTML, like Gecko) Chrome/97.0.4692.99 Safari/537.36",xpyriment,legacy,legacy,0,uniform,0,0,0,0,24,24,24,0,0,63,63,63,63,63,0,63,0,,,,,,0,,08-02-22,08-02-22,13:58:14,Tue Mar 08 2022 13:58:14 GMT+0100 (közép-európai téli idő),The main experiment item,yes,0,0,C:/Users/rrics/Documents/!!ResearchBMECOGSCI/gnet,0,0,0,prototype1.png,no,mono,no,18,no,black,no,no,768,1188,3.5.6,legacy,xpyriment,osweb,1.3.13,0,space,space,space,,33047,17931,33047,,2,legacy,1040,1920,24,1080,24,0,0,1920,1646744337823,1024,2,48000,-16,experiment,p10sarr2.png,0,even,Win32,2839,132576,129566,2839,2839,583584,585092,578589,134095,578589,2839,,,,,,visual_patterns,0,0,0,yes,1366
undefined,undefined,undefined,undefined,white,no,Mozilla,Netscape,"5.0 (Windows NT 10.0; Win64; x64) AppleWebKit/537.36 (KHTML, like Gecko) Chrome/97.0.4692.99 Safari/537.36",xpyriment,legacy,legacy,0,uniform,0,0,0,0,24,24,24,0,0,64,64,64,64,64,0,64,0,,,,,,0,,08-02-22,08-02-22,13:58:14,Tue Mar 08 2022 13:58:14 GMT+0100 (közép-európai téli idő),The main experiment item,yes,0,0,C:/Users/rrics/Documents/!!ResearchBMECOGSCI/gnet,0,0,0,prototype1.png,no,mono,no,18,no,black,no,no,768,1188,3.5.6,legacy,xpyriment,osweb,1.3.13,0,space,space,space,,33047,17931,33047,,2,legacy,1040,1920,24,1080,24,0,0,1920,1646744337823,1024,2,48000,-16,experiment,prototype1.png,0,even,Win32,2839,132576,129566,2839,2839,590111,591622,585114,134095,585113,2839,,,,,,visual_patterns,0,0,0,yes,1366
undefined,undefined,undefined,undefined,white,no,Mozilla,Netscape,"5.0 (Windows NT 10.0; Win64; x64) AppleWebKit/537.36 (KHTML, like Gecko) Chrome/97.0.4692.99 Safari/537.36",xpyriment,legacy,legacy,0,uniform,0,0,0,0,24,24,24,0,0,65,65,65,65,65,0,65,0,,,,,,0,,08-02-22,08-02-22,13:58:14,Tue Mar 08 2022 13:58:14 GMT+0100 (közép-európai téli idő),The main experiment item,yes,0,0,C:/Users/rrics/Documents/!!ResearchBMECOGSCI/gnet,0,0,0,prototype1.png,no,mono,no,18,no,black,no,no,768,1188,3.5.6,legacy,xpyriment,osweb,1.3.13,0,space,space,space,,33047,17931,33047,,2,legacy,1040,1920,24,1080,24,0,0,1920,1646744337823,1024,2,48000,-16,experiment,prototype4.png,0,even,Win32,2839,132576,129566,2839,2839,596644,598153,591646,134095,591646,2839,,,,,,visual_patterns,0,0,0,yes,1366
undefined,undefined,undefined,undefined,white,no,Mozilla,Netscape,"5.0 (Windows NT 10.0; Win64; x64) AppleWebKit/537.36 (KHTML, like Gecko) Chrome/97.0.4692.99 Safari/537.36",xpyriment,legacy,legacy,0,uniform,0,0,0,0,24,24,24,0,0,66,66,66,66,66,0,66,0,,,,,,0,,08-02-22,08-02-22,13:58:14,Tue Mar 08 2022 13:58:14 GMT+0100 (közép-európai téli idő),The main experiment item,yes,0,0,C:/Users/rrics/Documents/!!ResearchBMECOGSCI/gnet,0,0,0,prototype1.png,no,mono,no,18,no,black,no,no,768,1188,3.5.6,legacy,xpyriment,osweb,1.3.13,0,space,space,space,,33047,17931,33047,,2,legacy,1040,1920,24,1080,24,0,0,1920,1646744337823,1024,2,48000,-16,experiment,p2sarrshacol2.png,0,even,Win32,2839,132576,129566,2839,2839,603162,604669,598164,134095,598164,2839,,,,,,visual_patterns,0,0,0,yes,1366
undefined,undefined,undefined,undefined,white,no,Mozilla,Netscape,"5.0 (Windows NT 10.0; Win64; x64) AppleWebKit/537.36 (KHTML, like Gecko) Chrome/97.0.4692.99 Safari/537.36",xpyriment,legacy,legacy,0,uniform,0,0,0,0,24,24,24,0,0,67,67,67,67,67,0,67,0,,,,,,0,,08-02-22,08-02-22,13:58:14,Tue Mar 08 2022 13:58:14 GMT+0100 (közép-európai téli idő),The main experiment item,yes,0,0,C:/Users/rrics/Documents/!!ResearchBMECOGSCI/gnet,0,0,0,prototype1.png,no,mono,no,18,no,black,no,no,768,1188,3.5.6,legacy,xpyriment,osweb,1.3.13,0,space,space,space,,33047,17931,33047,,2,legacy,1040,1920,24,1080,24,0,0,1920,1646744337823,1024,2,48000,-16,experiment,p1sarr2.png,0,even,Win32,2839,132576,129566,2839,2839,609691,611201,604698,134095,604698,2839,,,,,,visual_patterns,0,0,0,yes,1366
undefined,undefined,undefined,undefined,white,no,Mozilla,Netscape,"5.0 (Windows NT 10.0; Win64; x64) AppleWebKit/537.36 (KHTML, like Gecko) Chrome/97.0.4692.99 Safari/537.36",xpyriment,legacy,legacy,0,uniform,0,0,0,0,24,24,24,0,0,68,68,68,68,68,0,68,0,,,,,,0,,08-02-22,08-02-22,13:58:14,Tue Mar 08 2022 13:58:14 GMT+0100 (közép-európai téli idő),The main experiment item,yes,0,0,C:/Users/rrics/Documents/!!ResearchBMECOGSCI/gnet,0,0,0,prototype1.png,no,mono,no,18,no,black,no,no,768,1188,3.5.6,legacy,xpyriment,osweb,1.3.13,0,space,space,space,,33047,17931,33047,,2,legacy,1040,1920,24,1080,24,0,0,1920,1646744337823,1024,2,48000,-16,experiment,p6sarr2.png,0,even,Win32,2839,132576,129566,2839,2839,616207,617715,611211,134095,611211,2839,,,,,,visual_patterns,0,0,0,yes,1366
undefined,undefined,undefined,undefined,white,no,Mozilla,Netscape,"5.0 (Windows NT 10.0; Win64; x64) AppleWebKit/537.36 (KHTML, like Gecko) Chrome/97.0.4692.99 Safari/537.36",xpyriment,legacy,legacy,0,uniform,0,0,0,0,24,24,24,0,0,69,69,69,69,69,0,69,0,,,,,,0,,08-02-22,08-02-22,13:58:14,Tue Mar 08 2022 13:58:14 GMT+0100 (közép-európai téli idő),The main experiment item,yes,0,0,C:/Users/rrics/Documents/!!ResearchBMECOGSCI/gnet,0,0,0,prototype1.png,no,mono,no,18,no,black,no,no,768,1188,3.5.6,legacy,xpyriment,osweb,1.3.13,0,space,space,space,,33047,17931,33047,,2,legacy,1040,1920,24,1080,24,0,0,1920,1646744337823,1024,2,48000,-16,experiment,prototype2.png,0,even,Win32,2839,132576,129566,2839,2839,622727,624232,617727,134095,617727,2839,,,,,,visual_patterns,0,0,0,yes,1366
undefined,undefined,undefined,undefined,white,no,Mozilla,Netscape,"5.0 (Windows NT 10.0; Win64; x64) AppleWebKit/537.36 (KHTML, like Gecko) Chrome/97.0.4692.99 Safari/537.36",xpyriment,legacy,legacy,0,uniform,0,0,0,0,24,24,24,0,0,70,70,70,70,70,0,70,0,,,,,,0,,08-02-22,08-02-22,13:58:14,Tue Mar 08 2022 13:58:14 GMT+0100 (közép-európai téli idő),The main experiment item,yes,0,0,C:/Users/rrics/Documents/!!ResearchBMECOGSCI/gnet,0,0,0,prototype1.png,no,mono,no,18,no,black,no,no,768,1188,3.5.6,legacy,xpyriment,osweb,1.3.13,0,space,space,space,,33047,17931,33047,,2,legacy,1040,1920,24,1080,24,0,0,1920,1646744337823,1024,2,48000,-16,experiment,p1sarrshacol1.png,0,even,Win32,2839,132576,129566,2839,2839,629242,630747,624241,134095,624241,2839,,,,,,visual_patterns,0,0,0,yes,1366
undefined,undefined,undefined,undefined,white,no,Mozilla,Netscape,"5.0 (Windows NT 10.0; Win64; x64) AppleWebKit/537.36 (KHTML, like Gecko) Chrome/97.0.4692.99 Safari/537.36",xpyriment,legacy,legacy,0,uniform,0,0,0,0,24,24,24,0,0,71,71,71,71,71,0,71,0,,,,,,0,,08-02-22,08-02-22,13:58:14,Tue Mar 08 2022 13:58:14 GMT+0100 (közép-európai téli idő),The main experiment item,yes,0,0,C:/Users/rrics/Documents/!!ResearchBMECOGSCI/gnet,0,0,0,prototype1.png,no,mono,no,18,no,black,no,no,768,1188,3.5.6,legacy,xpyriment,osweb,1.3.13,0,space,space,space,,33047,17931,33047,,2,legacy,1040,1920,24,1080,24,0,0,1920,1646744337823,1024,2,48000,-16,experiment,prototype1.png,0,even,Win32,2839,132576,129566,2839,2839,635755,637263,630757,134095,630756,2839,,,,,,visual_patterns,0,0,0,yes,1366
undefined,undefined,undefined,undefined,white,no,Mozilla,Netscape,"5.0 (Windows NT 10.0; Win64; x64) AppleWebKit/537.36 (KHTML, like Gecko) Chrome/97.0.4692.99 Safari/537.36",xpyriment,legacy,legacy,0,uniform,0,0,0,0,24,24,24,0,0,72,72,72,72,72,0,72,0,,,,,,0,,08-02-22,08-02-22,13:58:14,Tue Mar 08 2022 13:58:14 GMT+0100 (közép-európai téli idő),The main experiment item,yes,0,0,C:/Users/rrics/Documents/!!ResearchBMECOGSCI/gnet,0,0,0,prototype1.png,no,mono,no,18,no,black,no,no,768,1188,3.5.6,legacy,xpyriment,osweb,1.3.13,0,space,space,space,,33047,17931,33047,,2,legacy,1040,1920,24,1080,24,0,0,1920,1646744337823,1024,2,48000,-16,experiment,prototype5.png,0,even,Win32,2839,132576,129566,2839,2839,642273,643778,637272,134095,637272,2839,,,,,,visual_patterns,0,0,0,yes,1366
undefined,undefined,undefined,undefined,white,no,Mozilla,Netscape,"5.0 (Windows NT 10.0; Win64; x64) AppleWebKit/537.36 (KHTML, like Gecko) Chrome/97.0.4692.99 Safari/537.36",xpyriment,legacy,legacy,0,uniform,0,0,0,0,24,24,24,0,0,73,73,73,73,73,0,73,0,,,,,,0,,08-02-22,08-02-22,13:58:14,Tue Mar 08 2022 13:58:14 GMT+0100 (közép-európai téli idő),The main experiment item,yes,0,0,C:/Users/rrics/Documents/!!ResearchBMECOGSCI/gnet,0,0,0,prototype1.png,no,mono,no,18,no,black,no,no,768,1188,3.5.6,legacy,xpyriment,osweb,1.3.13,0,space,space,space,,33047,17931,33047,,2,legacy,1040,1920,24,1080,24,0,0,1920,1646744337823,1024,2,48000,-16,experiment,prototype3.png,0,even,Win32,2839,132576,129566,2839,2839,648808,650309,643812,134095,643812,2839,,,,,,visual_patterns,0,0,0,yes,1366
undefined,undefined,undefined,undefined,white,no,Mozilla,Netscape,"5.0 (Windows NT 10.0; Win64; x64) AppleWebKit/537.36 (KHTML, like Gecko) Chrome/97.0.4692.99 Safari/537.36",xpyriment,legacy,legacy,0,uniform,0,0,0,0,24,24,24,0,0,74,74,74,74,74,0,74,0,,,,,,0,,08-02-22,08-02-22,13:58:14,Tue Mar 08 2022 13:58:14 GMT+0100 (közép-európai téli idő),The main experiment item,yes,0,0,C:/Users/rrics/Documents/!!ResearchBMECOGSCI/gnet,0,0,0,prototype1.png,no,mono,no,18,no,black,no,no,768,1188,3.5.6,legacy,xpyriment,osweb,1.3.13,0,space,space,space,,33047,17931,33047,,2,legacy,1040,1920,24,1080,24,0,0,1920,1646744337823,1024,2,48000,-16,experiment,prototype2.png,0,even,Win32,2839,132576,129566,2839,2839,655315,656825,650319,134095,650319,2839,,,,,,visual_patterns,0,0,0,yes,1366
undefined,undefined,undefined,undefined,white,no,Mozilla,Netscape,"5.0 (Windows NT 10.0; Win64; x64) AppleWebKit/537.36 (KHTML, like Gecko) Chrome/97.0.4692.99 Safari/537.36",xpyriment,legacy,legacy,0,uniform,0,0,0,0,24,24,24,0,0,74,74,74,74,74,0,74,0,0,0,0,0,0,0,0,08-02-22,08-02-22,13:58:14,Tue Mar 08 2022 13:58:14 GMT+0100 (közép-európai téli idő),The main experiment item,yes,0,0,C:/Users/rrics/Documents/!!ResearchBMECOGSCI/gnet,0,0,0,prototype1.png,no,mono,no,18,no,black,no,no,768,1188,3.5.6,legacy,xpyriment,osweb,1.3.13,0,right,space,space,right,33923,17931,33047,33923,2,legacy,1040,1920,24,1080,24,0,0,1920,1646744337823,1024,2,48000,-16,experiment,p5sarrsha3.png,0,even,Win32,2839,132576,129566,2839,2839,655315,656825,650319,134095,650319,2839,693778,695294,690779,656828,690779,visual_patterns,0,0,0,yes,1366
undefined,undefined,undefined,undefined,white,no,Mozilla,Netscape,"5.0 (Windows NT 10.0; Win64; x64) AppleWebKit/537.36 (KHTML, like Gecko) Chrome/97.0.4692.99 Safari/537.36",xpyriment,legacy,legacy,0,uniform,0,0,0,0,24,24,24,0,0,74,74,74,74,74,0,74,0,1,1,1,1,1,0,1,08-02-22,08-02-22,13:58:14,Tue Mar 08 2022 13:58:14 GMT+0100 (közép-európai téli idő),The main experiment item,yes,0,0,C:/Users/rrics/Documents/!!ResearchBMECOGSCI/gnet,0,0,0,prototype1.png,no,mono,no,18,no,black,no,no,768,1188,3.5.6,legacy,xpyriment,osweb,1.3.13,0,right,space,space,right,33923,17931,33047,33923,2,legacy,1040,1920,24,1080,24,0,0,1920,1646744337823,1024,2,48000,-16,experiment,p2sarrshacol1.png,0,even,Win32,2839,132576,129566,2839,2839,655315,656825,650319,134095,650319,2839,698303,699810,695305,656828,695305,visual_patterns,0,0,0,yes,1366
undefined,undefined,undefined,undefined,white,no,Mozilla,Netscape,"5.0 (Windows NT 10.0; Win64; x64) AppleWebKit/537.36 (KHTML, like Gecko) Chrome/97.0.4692.99 Safari/537.36",xpyriment,legacy,legacy,0,uniform,0,0,0,0,24,24,24,0,0,74,74,74,74,74,0,74,0,2,2,2,2,2,0,2,08-02-22,08-02-22,13:58:14,Tue Mar 08 2022 13:58:14 GMT+0100 (közép-európai téli idő),The main experiment item,yes,0,0,C:/Users/rrics/Documents/!!ResearchBMECOGSCI/gnet,0,0,0,prototype1.png,no,mono,no,18,no,black,no,no,768,1188,3.5.6,legacy,xpyriment,osweb,1.3.13,0,right,space,space,right,33923,17931,33047,33923,2,legacy,1040,1920,24,1080,24,0,0,1920,1646744337823,1024,2,48000,-16,experiment,p4sarr4.png,0,even,Win32,2839,132576,129566,2839,2839,655315,656825,650319,134095,650319,2839,702817,704325,699820,656828,699820,visual_patterns,0,0,0,yes,1366
undefined,undefined,undefined,undefined,white,no,Mozilla,Netscape,"5.0 (Windows NT 10.0; Win64; x64) AppleWebKit/537.36 (KHTML, like Gecko) Chrome/97.0.4692.99 Safari/537.36",xpyriment,legacy,legacy,0,uniform,0,0,0,0,24,24,24,0,0,74,74,74,74,74,0,74,0,3,3,3,3,3,0,3,08-02-22,08-02-22,13:58:14,Tue Mar 08 2022 13:58:14 GMT+0100 (közép-európai téli idő),The main experiment item,yes,0,0,C:/Users/rrics/Documents/!!ResearchBMECOGSCI/gnet,0,0,0,prototype1.png,no,mono,no,18,no,black,no,no,768,1188,3.5.6,legacy,xpyriment,osweb,1.3.13,0,right,space,space,right,33923,17931,33047,33923,2,legacy,1040,1920,24,1080,24,0,0,1920,1646744337823,1024,2,48000,-16,experiment,p5sarrsha2.png,0,even,Win32,2839,132576,129566,2839,2839,655315,656825,650319,134095,650319,2839,707336,708841,704335,656828,704335,visual_patterns,0,0,0,yes,1366
undefined,undefined,undefined,undefined,white,no,Mozilla,Netscape,"5.0 (Windows NT 10.0; Win64; x64) AppleWebKit/537.36 (KHTML, like Gecko) Chrome/97.0.4692.99 Safari/537.36",xpyriment,legacy,legacy,0,uniform,0,0,0,0,24,24,24,0,0,74,74,74,74,74,0,74,0,4,4,4,4,4,0,4,08-02-22,08-02-22,13:58:14,Tue Mar 08 2022 13:58:14 GMT+0100 (közép-európai téli idő),The main experiment item,yes,0,0,C:/Users/rrics/Documents/!!ResearchBMECOGSCI/gnet,0,0,0,prototype1.png,no,mono,no,18,no,black,no,no,768,1188,3.5.6,legacy,xpyriment,osweb,1.3.13,0,right,space,space,right,33923,17931,33047,33923,2,legacy,1040,1920,24,1080,24,0,0,1920,1646744337823,1024,2,48000,-16,experiment,p7sarr2.png,0,even,Win32,2839,132576,129566,2839,2839,655315,656825,650319,134095,650319,2839,711858,713372,708862,656828,708862,visual_patterns,0,0,0,yes,1366
undefined,undefined,undefined,undefined,white,no,Mozilla,Netscape,"5.0 (Windows NT 10.0; Win64; x64) AppleWebKit/537.36 (KHTML, like Gecko) Chrome/97.0.4692.99 Safari/537.36",xpyriment,legacy,legacy,0,uniform,0,0,0,0,24,24,24,0,0,74,74,74,74,74,0,74,0,5,5,5,5,5,0,5,08-02-22,08-02-22,13:58:14,Tue Mar 08 2022 13:58:14 GMT+0100 (közép-európai téli idő),The main experiment item,yes,0,0,C:/Users/rrics/Documents/!!ResearchBMECOGSCI/gnet,0,0,0,prototype1.png,no,mono,no,18,no,black,no,no,768,1188,3.5.6,legacy,xpyriment,osweb,1.3.13,0,right,space,space,right,33923,17931,33047,33923,2,legacy,1040,1920,24,1080,24,0,0,1920,1646744337823,1024,2,48000,-16,experiment,p1sarrsha4.png,0,even,Win32,2839,132576,129566,2839,2839,655315,656825,650319,134095,650319,2839,716383,717888,713384,656828,713384,visual_patterns,0,0,0,yes,1366
undefined,undefined,undefined,undefined,white,no,Mozilla,Netscape,"5.0 (Windows NT 10.0; Win64; x64) AppleWebKit/537.36 (KHTML, like Gecko) Chrome/97.0.4692.99 Safari/537.36",xpyriment,legacy,legacy,0,uniform,0,0,0,0,24,24,24,0,0,74,74,74,74,74,0,74,0,6,6,6,6,6,0,6,08-02-22,08-02-22,13:58:14,Tue Mar 08 2022 13:58:14 GMT+0100 (közép-európai téli idő),The main experiment item,yes,0,0,C:/Users/rrics/Documents/!!ResearchBMECOGSCI/gnet,0,0,0,prototype1.png,no,mono,no,18,no,black,no,no,768,1188,3.5.6,legacy,xpyriment,osweb,1.3.13,0,right,space,space,right,33923,17931,33047,33923,2,legacy,1040,1920,24,1080,24,0,0,1920,1646744337823,1024,2,48000,-16,experiment,p3sarrcol2.png,0,even,Win32,2839,132576,129566,2839,2839,655315,656825,650319,134095,650319,2839,720897,722404,717899,656828,717899,visual_patterns,0,0,0,yes,1366
undefined,undefined,undefined,undefined,white,no,Mozilla,Netscape,"5.0 (Windows NT 10.0; Win64; x64) AppleWebKit/537.36 (KHTML, like Gecko) Chrome/97.0.4692.99 Safari/537.36",xpyriment,legacy,legacy,0,uniform,0,0,0,0,24,24,24,0,0,74,74,74,74,74,0,74,0,7,7,7,7,7,0,7,08-02-22,08-02-22,13:58:14,Tue Mar 08 2022 13:58:14 GMT+0100 (közép-európai téli idő),The main experiment item,yes,0,0,C:/Users/rrics/Documents/!!ResearchBMECOGSCI/gnet,0,0,0,prototype1.png,no,mono,no,18,no,black,no,no,768,1188,3.5.6,legacy,xpyriment,osweb,1.3.13,0,right,space,space,right,33923,17931,33047,33923,2,legacy,1040,1920,24,1080,24,0,0,1920,1646744337823,1024,2,48000,-16,experiment,p3sarrcol3.png,0,even,Win32,2839,132576,129566,2839,2839,655315,656825,650319,134095,650319,2839,725424,726935,722430,656828,722430,visual_patterns,0,0,0,yes,1366
undefined,undefined,undefined,undefined,white,no,Mozilla,Netscape,"5.0 (Windows NT 10.0; Win64; x64) AppleWebKit/537.36 (KHTML, like Gecko) Chrome/97.0.4692.99 Safari/537.36",xpyriment,legacy,legacy,0,uniform,0,0,0,0,24,24,24,0,0,74,74,74,74,74,0,74,0,8,8,8,8,8,0,8,08-02-22,08-02-22,13:58:14,Tue Mar 08 2022 13:58:14 GMT+0100 (közép-európai téli idő),The main experiment item,yes,0,0,C:/Users/rrics/Documents/!!ResearchBMECOGSCI/gnet,0,0,0,prototype1.png,no,mono,no,18,no,black,no,no,768,1188,3.5.6,legacy,xpyriment,osweb,1.3.13,0,right,space,space,right,33923,17931,33047,33923,2,legacy,1040,1920,24,1080,24,0,0,1920,1646744337823,1024,2,48000,-16,experiment,p1sarrsha1.png,0,even,Win32,2839,132576,129566,2839,2839,655315,656825,650319,134095,650319,2839,729950,731466,726948,656828,726948,visual_patterns,0,0,0,yes,1366
undefined,undefined,undefined,undefined,white,no,Mozilla,Netscape,"5.0 (Windows NT 10.0; Win64; x64) AppleWebKit/537.36 (KHTML, like Gecko) Chrome/97.0.4692.99 Safari/537.36",xpyriment,legacy,legacy,0,uniform,0,0,0,0,24,24,24,0,0,74,74,74,74,74,0,74,0,9,9,9,9,9,0,9,08-02-22,08-02-22,13:58:14,Tue Mar 08 2022 13:58:14 GMT+0100 (közép-európai téli idő),The main experiment item,yes,0,0,C:/Users/rrics/Documents/!!ResearchBMECOGSCI/gnet,0,0,0,prototype1.png,no,mono,no,18,no,black,no,no,768,1188,3.5.6,legacy,xpyriment,osweb,1.3.13,0,right,space,space,right,33923,17931,33047,33923,2,legacy,1040,1920,24,1080,24,0,0,1920,1646744337823,1024,2,48000,-16,experiment,p4sarr1.png,0,even,Win32,2839,132576,129566,2839,2839,655315,656825,650319,134095,650319,2839,734475,735981,731477,656828,731477,visual_patterns,0,0,0,yes,1366
undefined,undefined,undefined,undefined,white,no,Mozilla,Netscape,"5.0 (Windows NT 10.0; Win64; x64) AppleWebKit/537.36 (KHTML, like Gecko) Chrome/97.0.4692.99 Safari/537.36",xpyriment,legacy,legacy,0,uniform,0,0,0,0,24,24,24,0,0,74,74,74,74,74,0,74,0,10,10,10,10,10,0,10,08-02-22,08-02-22,13:58:14,Tue Mar 08 2022 13:58:14 GMT+0100 (közép-európai téli idő),The main experiment item,yes,0,0,C:/Users/rrics/Documents/!!ResearchBMECOGSCI/gnet,0,0,0,prototype1.png,no,mono,no,18,no,black,no,no,768,1188,3.5.6,legacy,xpyriment,osweb,1.3.13,0,right,space,space,right,33923,17931,33047,33923,2,legacy,1040,1920,24,1080,24,0,0,1920,1646744337823,1024,2,48000,-16,experiment,p9sarr2.png,0,even,Win32,2839,132576,129566,2839,2839,655315,656825,650319,134095,650319,2839,738996,740498,736002,656828,736002,visual_patterns,0,0,0,yes,1366
undefined,undefined,undefined,undefined,white,no,Mozilla,Netscape,"5.0 (Windows NT 10.0; Win64; x64) AppleWebKit/537.36 (KHTML, like Gecko) Chrome/97.0.4692.99 Safari/537.36",xpyriment,legacy,legacy,0,uniform,0,0,0,0,24,24,24,0,0,74,74,74,74,74,0,74,0,11,11,11,11,11,0,11,08-02-22,08-02-22,13:58:14,Tue Mar 08 2022 13:58:14 GMT+0100 (közép-európai téli idő),The main experiment item,yes,0,0,C:/Users/rrics/Documents/!!ResearchBMECOGSCI/gnet,0,0,0,prototype1.png,no,mono,no,18,no,black,no,no,768,1188,3.5.6,legacy,xpyriment,osweb,1.3.13,0,right,space,space,right,33923,17931,33047,33923,2,legacy,1040,1920,24,1080,24,0,0,1920,1646744337823,1024,2,48000,-16,experiment,p1sarr2.png,0,even,Win32,2839,132576,129566,2839,2839,655315,656825,650319,134095,650319,2839,743507,745013,740507,656828,740507,visual_patterns,0,0,0,yes,1366
undefined,undefined,undefined,undefined,white,no,Mozilla,Netscape,"5.0 (Windows NT 10.0; Win64; x64) AppleWebKit/537.36 (KHTML, like Gecko) Chrome/97.0.4692.99 Safari/537.36",xpyriment,legacy,legacy,0,uniform,0,0,0,0,24,24,24,0,0,74,74,74,74,74,0,74,0,12,12,12,12,12,0,12,08-02-22,08-02-22,13:58:14,Tue Mar 08 2022 13:58:14 GMT+0100 (közép-európai téli idő),The main experiment item,yes,0,0,C:/Users/rrics/Documents/!!ResearchBMECOGSCI/gnet,0,0,0,prototype1.png,no,mono,no,18,no,black,no,no,768,1188,3.5.6,legacy,xpyriment,osweb,1.3.13,0,right,space,space,right,33923,17931,33047,33923,2,legacy,1040,1920,24,1080,24,0,0,1920,1646744337823,1024,2,48000,-16,experiment,p3sarrcol4.png,0,even,Win32,2839,132576,129566,2839,2839,655315,656825,650319,134095,650319,2839,748021,749528,745026,656828,745026,visual_patterns,0,0,0,yes,1366
undefined,undefined,undefined,undefined,white,no,Mozilla,Netscape,"5.0 (Windows NT 10.0; Win64; x64) AppleWebKit/537.36 (KHTML, like Gecko) Chrome/97.0.4692.99 Safari/537.36",xpyriment,legacy,legacy,0,uniform,0,0,0,0,24,24,24,0,0,74,74,74,74,74,0,74,0,13,13,13,13,13,0,13,08-02-22,08-02-22,13:58:14,Tue Mar 08 2022 13:58:14 GMT+0100 (közép-európai téli idő),The main experiment item,yes,0,0,C:/Users/rrics/Documents/!!ResearchBMECOGSCI/gnet,0,0,0,prototype1.png,no,mono,no,18,no,black,no,no,768,1188,3.5.6,legacy,xpyriment,osweb,1.3.13,0,right,space,space,right,33923,17931,33047,33923,2,legacy,1040,1920,24,1080,24,0,0,1920,1646744337823,1024,2,48000,-16,experiment,p2sarrshacol2.png,0,even,Win32,2839,132576,129566,2839,2839,655315,656825,650319,134095,650319,2839,752622,754137,749624,656828,749624,visual_patterns,0,0,0,yes,1366
undefined,undefined,undefined,undefined,white,no,Mozilla,Netscape,"5.0 (Windows NT 10.0; Win64; x64) AppleWebKit/537.36 (KHTML, like Gecko) Chrome/97.0.4692.99 Safari/537.36",xpyriment,legacy,legacy,0,uniform,0,0,0,0,24,24,24,0,0,74,74,74,74,74,0,74,0,14,14,14,14,14,0,14,08-02-22,08-02-22,13:58:14,Tue Mar 08 2022 13:58:14 GMT+0100 (közép-európai téli idő),The main experiment item,yes,0,0,C:/Users/rrics/Documents/!!ResearchBMECOGSCI/gnet,0,0,0,prototype1.png,no,mono,no,18,no,black,no,no,768,1188,3.5.6,legacy,xpyriment,osweb,1.3.13,0,right,space,space,right,33923,17931,33047,33923,2,legacy,1040,1920,24,1080,24,0,0,1920,1646744337823,1024,2,48000,-16,experiment,p6sarr1.png,0,even,Win32,2839,132576,129566,2839,2839,655315,656825,650319,134095,650319,2839,757148,758654,754151,656828,754151,visual_patterns,0,0,0,yes,1366
undefined,undefined,undefined,undefined,white,no,Mozilla,Netscape,"5.0 (Windows NT 10.0; Win64; x64) AppleWebKit/537.36 (KHTML, like Gecko) Chrome/97.0.4692.99 Safari/537.36",xpyriment,legacy,legacy,0,uniform,0,0,0,0,24,24,24,0,0,74,74,74,74,74,0,74,0,15,15,15,15,15,0,15,08-02-22,08-02-22,13:58:14,Tue Mar 08 2022 13:58:14 GMT+0100 (közép-európai téli idő),The main experiment item,yes,0,0,C:/Users/rrics/Documents/!!ResearchBMECOGSCI/gnet,0,0,0,prototype1.png,no,mono,no,18,no,black,no,no,768,1188,3.5.6,legacy,xpyriment,osweb,1.3.13,0,right,space,space,right,33923,17931,33047,33923,2,legacy,1040,1920,24,1080,24,0,0,1920,1646744337823,1024,2,48000,-16,experiment,p4sarrshacol3.png,0,even,Win32,2839,132576,129566,2839,2839,655315,656825,650319,134095,650319,2839,761664,763169,758665,656828,758665,visual_patterns,0,0,0,yes,1366
undefined,undefined,undefined,undefined,white,no,Mozilla,Netscape,"5.0 (Windows NT 10.0; Win64; x64) AppleWebKit/537.36 (KHTML, like Gecko) Chrome/97.0.4692.99 Safari/537.36",xpyriment,legacy,legacy,0,uniform,0,0,0,0,24,24,24,0,0,74,74,74,74,74,0,74,0,16,16,16,16,16,0,16,08-02-22,08-02-22,13:58:14,Tue Mar 08 2022 13:58:14 GMT+0100 (közép-európai téli idő),The main experiment item,yes,0,0,C:/Users/rrics/Documents/!!ResearchBMECOGSCI/gnet,0,0,0,prototype1.png,no,mono,no,18,no,black,no,no,768,1188,3.5.6,legacy,xpyriment,osweb,1.3.13,0,right,space,space,right,33923,17931,33047,33923,2,legacy,1040,1920,24,1080,24,0,0,1920,1646744337823,1024,2,48000,-16,experiment,p4sarrshacol4.png,0,even,Win32,2839,132576,129566,2839,2839,655315,656825,650319,134095,650319,2839,766178,767685,763181,656828,763181,visual_patterns,0,0,0,yes,1366
undefined,undefined,undefined,undefined,white,no,Mozilla,Netscape,"5.0 (Windows NT 10.0; Win64; x64) AppleWebKit/537.36 (KHTML, like Gecko) Chrome/97.0.4692.99 Safari/537.36",xpyriment,legacy,legacy,0,uniform,0,0,0,0,24,24,24,0,0,74,74,74,74,74,0,74,0,17,17,17,17,17,0,17,08-02-22,08-02-22,13:58:14,Tue Mar 08 2022 13:58:14 GMT+0100 (közép-európai téli idő),The main experiment item,yes,0,0,C:/Users/rrics/Documents/!!ResearchBMECOGSCI/gnet,0,0,0,prototype1.png,no,mono,no,18,no,black,no,no,768,1188,3.5.6,legacy,xpyriment,osweb,1.3.13,0,right,space,space,right,33923,17931,33047,33923,2,legacy,1040,1920,24,1080,24,0,0,1920,1646744337823,1024,2,48000,-16,experiment,p2sarrcol1.png,0,even,Win32,2839,132576,129566,2839,2839,655315,656825,650319,134095,650319,2839,770693,772200,767695,656828,767695,visual_patterns,0,0,0,yes,1366
undefined,undefined,undefined,undefined,white,no,Mozilla,Netscape,"5.0 (Windows NT 10.0; Win64; x64) AppleWebKit/537.36 (KHTML, like Gecko) Chrome/97.0.4692.99 Safari/537.36",xpyriment,legacy,legacy,0,uniform,0,0,0,0,24,24,24,0,0,74,74,74,74,74,0,74,0,18,18,18,18,18,0,18,08-02-22,08-02-22,13:58:14,Tue Mar 08 2022 13:58:14 GMT+0100 (közép-európai téli idő),The main experiment item,yes,0,0,C:/Users/rrics/Documents/!!ResearchBMECOGSCI/gnet,0,0,0,prototype1.png,no,mono,no,18,no,black,no,no,768,1188,3.5.6,legacy,xpyriment,osweb,1.3.13,0,right,space,space,right,33923,17931,33047,33923,2,legacy,1040,1920,24,1080,24,0,0,1920,1646744337823,1024,2,48000,-16,experiment,p1sarr4.png,0,even,Win32,2839,132576,129566,2839,2839,655315,656825,650319,134095,650319,2839,775214,776716,772219,656828,772219,visual_patterns,0,0,0,yes,1366
undefined,undefined,undefined,undefined,white,no,Mozilla,Netscape,"5.0 (Windows NT 10.0; Win64; x64) AppleWebKit/537.36 (KHTML, like Gecko) Chrome/97.0.4692.99 Safari/537.36",xpyriment,legacy,legacy,0,uniform,0,0,0,0,24,24,24,0,0,74,74,74,74,74,0,74,0,19,19,19,19,19,0,19,08-02-22,08-02-22,13:58:14,Tue Mar 08 2022 13:58:14 GMT+0100 (közép-európai téli idő),The main experiment item,yes,0,0,C:/Users/rrics/Documents/!!ResearchBMECOGSCI/gnet,0,0,0,prototype1.png,no,mono,no,18,no,black,no,no,768,1188,3.5.6,legacy,xpyriment,osweb,1.3.13,0,right,space,space,right,33923,17931,33047,33923,2,legacy,1040,1920,24,1080,24,0,0,1920,1646744337823,1024,2,48000,-16,experiment,p10sarr1.png,0,even,Win32,2839,132576,129566,2839,2839,655315,656825,650319,134095,650319,2839,779726,781231,776725,656828,776725,visual_patterns,0,0,0,yes,1366
undefined,undefined,undefined,undefined,white,no,Mozilla,Netscape,"5.0 (Windows NT 10.0; Win64; x64) AppleWebKit/537.36 (KHTML, like Gecko) Chrome/97.0.4692.99 Safari/537.36",xpyriment,legacy,legacy,0,uniform,0,0,0,0,24,24,24,0,0,74,74,74,74,74,0,74,0,20,20,20,20,20,0,20,08-02-22,08-02-22,13:58:14,Tue Mar 08 2022 13:58:14 GMT+0100 (közép-európai téli idő),The main experiment item,yes,0,0,C:/Users/rrics/Documents/!!ResearchBMECOGSCI/gnet,0,0,0,prototype1.png,no,mono,no,18,no,black,no,no,768,1188,3.5.6,legacy,xpyriment,osweb,1.3.13,0,right,space,space,right,33923,17931,33047,33923,2,legacy,1040,1920,24,1080,24,0,0,1920,1646744337823,1024,2,48000,-16,experiment,p8sarr3.png,0,even,Win32,2839,132576,129566,2839,2839,655315,656825,650319,134095,650319,2839,784243,785748,781242,656828,781242,visual_patterns,0,0,0,yes,1366
undefined,undefined,undefined,undefined,white,no,Mozilla,Netscape,"5.0 (Windows NT 10.0; Win64; x64) AppleWebKit/537.36 (KHTML, like Gecko) Chrome/97.0.4692.99 Safari/537.36",xpyriment,legacy,legacy,0,uniform,0,0,0,0,24,24,24,0,0,74,74,74,74,74,0,74,0,21,21,21,21,21,0,21,08-02-22,08-02-22,13:58:14,Tue Mar 08 2022 13:58:14 GMT+0100 (közép-európai téli idő),The main experiment item,yes,0,0,C:/Users/rrics/Documents/!!ResearchBMECOGSCI/gnet,0,0,0,prototype1.png,no,mono,no,18,no,black,no,no,768,1188,3.5.6,legacy,xpyriment,osweb,1.3.13,0,right,space,space,right,33923,17931,33047,33923,2,legacy,1040,1920,24,1080,24,0,0,1920,1646744337823,1024,2,48000,-16,experiment,p9sarr4.png,0,even,Win32,2839,132576,129566,2839,2839,655315,656825,650319,134095,650319,2839,788754,790263,785758,656828,785758,visual_patterns,0,0,0,yes,1366
undefined,undefined,undefined,undefined,white,no,Mozilla,Netscape,"5.0 (Windows NT 10.0; Win64; x64) AppleWebKit/537.36 (KHTML, like Gecko) Chrome/97.0.4692.99 Safari/537.36",xpyriment,legacy,legacy,0,uniform,0,0,0,0,24,24,24,0,0,74,74,74,74,74,0,74,0,22,22,22,22,22,0,22,08-02-22,08-02-22,13:58:14,Tue Mar 08 2022 13:58:14 GMT+0100 (közép-európai téli idő),The main experiment item,yes,0,0,C:/Users/rrics/Documents/!!ResearchBMECOGSCI/gnet,0,0,0,prototype1.png,no,mono,no,18,no,black,no,no,768,1188,3.5.6,legacy,xpyriment,osweb,1.3.13,0,right,space,space,right,33923,17931,33047,33923,2,legacy,1040,1920,24,1080,24,0,0,1920,1646744337823,1024,2,48000,-16,experiment,p5sarrcol2.png,0,even,Win32,2839,132576,129566,2839,2839,655315,656825,650319,134095,650319,2839,793272,794779,790273,656828,790273,visual_patterns,0,0,0,yes,1366
undefined,undefined,undefined,undefined,white,no,Mozilla,Netscape,"5.0 (Windows NT 10.0; Win64; x64) AppleWebKit/537.36 (KHTML, like Gecko) Chrome/97.0.4692.99 Safari/537.36",xpyriment,legacy,legacy,0,uniform,0,0,0,0,24,24,24,0,0,74,74,74,74,74,0,74,0,23,23,23,23,23,0,23,08-02-22,08-02-22,13:58:14,Tue Mar 08 2022 13:58:14 GMT+0100 (közép-európai téli idő),The main experiment item,yes,0,0,C:/Users/rrics/Documents/!!ResearchBMECOGSCI/gnet,0,0,0,prototype1.png,no,mono,no,18,no,black,no,no,768,1188,3.5.6,legacy,xpyriment,osweb,1.3.13,0,right,space,space,right,33923,17931,33047,33923,2,legacy,1040,1920,24,1080,24,0,0,1920,1646744337823,1024,2,48000,-16,experiment,p7sarr4.png,0,even,Win32,2839,132576,129566,2839,2839,655315,656825,650319,134095,650319,2839,797788,799293,794791,656828,794791,visual_patterns,0,0,0,yes,1366
undefined,undefined,undefined,undefined,white,no,Mozilla,Netscape,"5.0 (Windows NT 10.0; Win64; x64) AppleWebKit/537.36 (KHTML, like Gecko) Chrome/97.0.4692.99 Safari/537.36",xpyriment,legacy,legacy,0,uniform,0,0,0,0,24,24,24,0,0,74,74,74,74,74,0,74,0,24,24,24,24,24,0,24,08-02-22,08-02-22,13:58:14,Tue Mar 08 2022 13:58:14 GMT+0100 (közép-európai téli idő),The main experiment item,yes,0,0,C:/Users/rrics/Documents/!!ResearchBMECOGSCI/gnet,0,0,0,prototype1.png,no,mono,no,18,no,black,no,no,768,1188,3.5.6,legacy,xpyriment,osweb,1.3.13,0,right,space,space,right,33923,17931,33047,33923,2,legacy,1040,1920,24,1080,24,0,0,1920,1646744337823,1024,2,48000,-16,experiment,p3sarrsha3.png,0,even,Win32,2839,132576,129566,2839,2839,655315,656825,650319,134095,650319,2839,802305,803810,799307,656828,799307,visual_patterns,0,0,0,yes,1366
undefined,undefined,undefined,undefined,white,no,Mozilla,Netscape,"5.0 (Windows NT 10.0; Win64; x64) AppleWebKit/537.36 (KHTML, like Gecko) Chrome/97.0.4692.99 Safari/537.36",xpyriment,legacy,legacy,0,uniform,0,0,0,0,24,24,24,0,0,74,74,74,74,74,0,74,0,25,25,25,25,25,0,25,08-02-22,08-02-22,13:58:14,Tue Mar 08 2022 13:58:14 GMT+0100 (közép-európai téli idő),The main experiment item,yes,0,0,C:/Users/rrics/Documents/!!ResearchBMECOGSCI/gnet,0,0,0,prototype1.png,no,mono,no,18,no,black,no,no,768,1188,3.5.6,legacy,xpyriment,osweb,1.3.13,0,right,space,space,right,33923,17931,33047,33923,2,legacy,1040,1920,24,1080,24,0,0,1920,1646744337823,1024,2,48000,-16,experiment,p8sarr4.png,0,even,Win32,2839,132576,129566,2839,2839,655315,656825,650319,134095,650319,2839,806820,808325,803820,656828,803820,visual_patterns,0,0,0,yes,1366
undefined,undefined,undefined,undefined,white,no,Mozilla,Netscape,"5.0 (Windows NT 10.0; Win64; x64) AppleWebKit/537.36 (KHTML, like Gecko) Chrome/97.0.4692.99 Safari/537.36",xpyriment,legacy,legacy,0,uniform,0,0,0,0,24,24,24,0,0,74,74,74,74,74,0,74,0,26,26,26,26,26,0,26,08-02-22,08-02-22,13:58:14,Tue Mar 08 2022 13:58:14 GMT+0100 (közép-európai téli idő),The main experiment item,yes,0,0,C:/Users/rrics/Documents/!!ResearchBMECOGSCI/gnet,0,0,0,prototype1.png,no,mono,no,18,no,black,no,no,768,1188,3.5.6,legacy,xpyriment,osweb,1.3.13,0,right,space,space,right,33923,17931,33047,33923,2,legacy,1040,1920,24,1080,24,0,0,1920,1646744337823,1024,2,48000,-16,experiment,p2sarrshacol4.png,0,even,Win32,2839,132576,129566,2839,2839,655315,656825,650319,134095,650319,2839,811335,812841,808337,656828,808337,visual_patterns,0,0,0,yes,1366
undefined,undefined,undefined,undefined,white,no,Mozilla,Netscape,"5.0 (Windows NT 10.0; Win64; x64) AppleWebKit/537.36 (KHTML, like Gecko) Chrome/97.0.4692.99 Safari/537.36",xpyriment,legacy,legacy,0,uniform,0,0,0,0,24,24,24,0,0,74,74,74,74,74,0,74,0,27,27,27,27,27,0,27,08-02-22,08-02-22,13:58:14,Tue Mar 08 2022 13:58:14 GMT+0100 (közép-európai téli idő),The main experiment item,yes,0,0,C:/Users/rrics/Documents/!!ResearchBMECOGSCI/gnet,0,0,0,prototype1.png,no,mono,no,18,no,black,no,no,768,1188,3.5.6,legacy,xpyriment,osweb,1.3.13,0,right,space,space,right,33923,17931,33047,33923,2,legacy,1040,1920,24,1080,24,0,0,1920,1646744337823,1024,2,48000,-16,experiment,p4sarrshacol1.png,0,even,Win32,2839,132576,129566,2839,2839,655315,656825,650319,134095,650319,2839,815864,817372,812866,656828,812866,visual_patterns,0,0,0,yes,1366
undefined,undefined,undefined,undefined,white,no,Mozilla,Netscape,"5.0 (Windows NT 10.0; Win64; x64) AppleWebKit/537.36 (KHTML, like Gecko) Chrome/97.0.4692.99 Safari/537.36",xpyriment,legacy,legacy,0,uniform,0,0,0,0,24,24,24,0,0,74,74,74,74,74,0,74,0,28,28,28,28,28,0,28,08-02-22,08-02-22,13:58:14,Tue Mar 08 2022 13:58:14 GMT+0100 (közép-európai téli idő),The main experiment item,yes,0,0,C:/Users/rrics/Documents/!!ResearchBMECOGSCI/gnet,0,0,0,prototype1.png,no,mono,no,18,no,black,no,no,768,1188,3.5.6,legacy,xpyriment,osweb,1.3.13,0,right,space,space,right,33923,17931,33047,33923,2,legacy,1040,1920,24,1080,24,0,0,1920,1646744337823,1024,2,48000,-16,experiment,p1sarrshacol3.png,0,even,Win32,2839,132576,129566,2839,2839,655315,656825,650319,134095,650319,2839,820379,821888,817383,656828,817383,visual_patterns,0,0,0,yes,1366
undefined,undefined,undefined,undefined,white,no,Mozilla,Netscape,"5.0 (Windows NT 10.0; Win64; x64) AppleWebKit/537.36 (KHTML, like Gecko) Chrome/97.0.4692.99 Safari/537.36",xpyriment,legacy,legacy,0,uniform,0,0,0,0,24,24,24,0,0,74,74,74,74,74,0,74,0,29,29,29,29,29,0,29,08-02-22,08-02-22,13:58:14,Tue Mar 08 2022 13:58:14 GMT+0100 (közép-európai téli idő),The main experiment item,yes,0,0,C:/Users/rrics/Documents/!!ResearchBMECOGSCI/gnet,0,0,0,prototype1.png,no,mono,no,18,no,black,no,no,768,1188,3.5.6,legacy,xpyriment,osweb,1.3.13,0,right,space,space,right,33923,17931,33047,33923,2,legacy,1040,1920,24,1080,24,0,0,1920,1646744337823,1024,2,48000,-16,experiment,p2sarrsha1.png,0,even,Win32,2839,132576,129566,2839,2839,655315,656825,650319,134095,650319,2839,824896,826403,821900,656828,821900,visual_patterns,0,0,0,yes,1366
undefined,undefined,undefined,undefined,white,no,Mozilla,Netscape,"5.0 (Windows NT 10.0; Win64; x64) AppleWebKit/537.36 (KHTML, like Gecko) Chrome/97.0.4692.99 Safari/537.36",xpyriment,legacy,legacy,0,uniform,0,0,0,0,24,24,24,0,0,74,74,74,74,74,0,74,0,30,30,30,30,30,0,30,08-02-22,08-02-22,13:58:14,Tue Mar 08 2022 13:58:14 GMT+0100 (közép-európai téli idő),The main experiment item,yes,0,0,C:/Users/rrics/Documents/!!ResearchBMECOGSCI/gnet,0,0,0,prototype1.png,no,mono,no,18,no,black,no,no,768,1188,3.5.6,legacy,xpyriment,osweb,1.3.13,0,right,space,space,right,33923,17931,33047,33923,2,legacy,1040,1920,24,1080,24,0,0,1920,1646744337823,1024,2,48000,-16,experiment,p3sarr2.png,0,even,Win32,2839,132576,129566,2839,2839,655315,656825,650319,134095,650319,2839,829413,830919,826414,656828,826414,visual_patterns,0,0,0,yes,1366
undefined,undefined,undefined,undefined,white,no,Mozilla,Netscape,"5.0 (Windows NT 10.0; Win64; x64) AppleWebKit/537.36 (KHTML, like Gecko) Chrome/97.0.4692.99 Safari/537.36",xpyriment,legacy,legacy,0,uniform,0,0,0,0,24,24,24,0,0,74,74,74,74,74,0,74,0,31,31,31,31,31,0,31,08-02-22,08-02-22,13:58:14,Tue Mar 08 2022 13:58:14 GMT+0100 (közép-európai téli idő),The main experiment item,yes,0,0,C:/Users/rrics/Documents/!!ResearchBMECOGSCI/gnet,0,0,0,prototype1.png,no,mono,no,18,no,black,no,no,768,1188,3.5.6,legacy,xpyriment,osweb,1.3.13,0,right,space,space,right,33923,17931,33047,33923,2,legacy,1040,1920,24,1080,24,0,0,1920,1646744337823,1024,2,48000,-16,experiment,p3sarrshacol3.png,0,even,Win32,2839,132576,129566,2839,2839,655315,656825,650319,134095,650319,2839,833929,835434,830931,656828,830931,visual_patterns,0,0,0,yes,1366
undefined,undefined,undefined,undefined,white,no,Mozilla,Netscape,"5.0 (Windows NT 10.0; Win64; x64) AppleWebKit/537.36 (KHTML, like Gecko) Chrome/97.0.4692.99 Safari/537.36",xpyriment,legacy,legacy,0,uniform,0,0,0,0,24,24,24,0,0,74,74,74,74,74,0,74,0,32,32,32,32,32,0,32,08-02-22,08-02-22,13:58:14,Tue Mar 08 2022 13:58:14 GMT+0100 (közép-európai téli idő),The main experiment item,yes,0,0,C:/Users/rrics/Documents/!!ResearchBMECOGSCI/gnet,0,0,0,prototype1.png,no,mono,no,18,no,black,no,no,768,1188,3.5.6,legacy,xpyriment,osweb,1.3.13,0,right,space,space,right,33923,17931,33047,33923,2,legacy,1040,1920,24,1080,24,0,0,1920,1646744337823,1024,2,48000,-16,experiment,p2sarrcol4.png,0,even,Win32,2839,132576,129566,2839,2839,655315,656825,650319,134095,650319,2839,838449,839950,835456,656828,835456,visual_patterns,0,0,0,yes,1366
undefined,undefined,undefined,undefined,white,no,Mozilla,Netscape,"5.0 (Windows NT 10.0; Win64; x64) AppleWebKit/537.36 (KHTML, like Gecko) Chrome/97.0.4692.99 Safari/537.36",xpyriment,legacy,legacy,0,uniform,0,0,0,0,24,24,24,0,0,74,74,74,74,74,0,74,0,33,33,33,33,33,0,33,08-02-22,08-02-22,13:58:14,Tue Mar 08 2022 13:58:14 GMT+0100 (közép-európai téli idő),The main experiment item,yes,0,0,C:/Users/rrics/Documents/!!ResearchBMECOGSCI/gnet,0,0,0,prototype1.png,no,mono,no,18,no,black,no,no,768,1188,3.5.6,legacy,xpyriment,osweb,1.3.13,0,right,space,space,right,33923,17931,33047,33923,2,legacy,1040,1920,24,1080,24,0,0,1920,1646744337823,1024,2,48000,-16,experiment,p5sarrcol1.png,0,even,Win32,2839,132576,129566,2839,2839,655315,656825,650319,134095,650319,2839,842958,844466,839962,656828,839962,visual_patterns,0,0,0,yes,1366
undefined,undefined,undefined,undefined,white,no,Mozilla,Netscape,"5.0 (Windows NT 10.0; Win64; x64) AppleWebKit/537.36 (KHTML, like Gecko) Chrome/97.0.4692.99 Safari/537.36",xpyriment,legacy,legacy,0,uniform,0,0,0,0,24,24,24,0,0,74,74,74,74,74,0,74,0,34,34,34,34,34,0,34,08-02-22,08-02-22,13:58:14,Tue Mar 08 2022 13:58:14 GMT+0100 (közép-európai téli idő),The main experiment item,yes,0,0,C:/Users/rrics/Documents/!!ResearchBMECOGSCI/gnet,0,0,0,prototype1.png,no,mono,no,18,no,black,no,no,768,1188,3.5.6,legacy,xpyriment,osweb,1.3.13,0,right,space,space,right,33923,17931,33047,33923,2,legacy,1040,1920,24,1080,24,0,0,1920,1646744337823,1024,2,48000,-16,experiment,p8sarr2.png,0,even,Win32,2839,132576,129566,2839,2839,655315,656825,650319,134095,650319,2839,847474,848982,844477,656828,844477,visual_patterns,0,0,0,yes,1366
undefined,undefined,undefined,undefined,white,no,Mozilla,Netscape,"5.0 (Windows NT 10.0; Win64; x64) AppleWebKit/537.36 (KHTML, like Gecko) Chrome/97.0.4692.99 Safari/537.36",xpyriment,legacy,legacy,0,uniform,0,0,0,0,24,24,24,0,0,74,74,74,74,74,0,74,0,35,35,35,35,35,0,35,08-02-22,08-02-22,13:58:14,Tue Mar 08 2022 13:58:14 GMT+0100 (közép-európai téli idő),The main experiment item,yes,0,0,C:/Users/rrics/Documents/!!ResearchBMECOGSCI/gnet,0,0,0,prototype1.png,no,mono,no,18,no,black,no,no,768,1188,3.5.6,legacy,xpyriment,osweb,1.3.13,0,right,space,space,right,33923,17931,33047,33923,2,legacy,1040,1920,24,1080,24,0,0,1920,1646744337823,1024,2,48000,-16,experiment,p5sarr3.png,0,even,Win32,2839,132576,129566,2839,2839,655315,656825,650319,134095,650319,2839,851993,853497,848994,656828,848994,visual_patterns,0,0,0,yes,1366
undefined,undefined,undefined,undefined,white,no,Mozilla,Netscape,"5.0 (Windows NT 10.0; Win64; x64) AppleWebKit/537.36 (KHTML, like Gecko) Chrome/97.0.4692.99 Safari/537.36",xpyriment,legacy,legacy,0,uniform,0,0,0,0,24,24,24,0,0,74,74,74,74,74,0,74,0,36,36,36,36,36,0,36,08-02-22,08-02-22,13:58:14,Tue Mar 08 2022 13:58:14 GMT+0100 (közép-európai téli idő),The main experiment item,yes,0,0,C:/Users/rrics/Documents/!!ResearchBMECOGSCI/gnet,0,0,0,prototype1.png,no,mono,no,18,no,black,no,no,768,1188,3.5.6,legacy,xpyriment,osweb,1.3.13,0,right,space,space,right,33923,17931,33047,33923,2,legacy,1040,1920,24,1080,24,0,0,1920,1646744337823,1024,2,48000,-16,experiment,p7sarr1.png,0,even,Win32,2839,132576,129566,2839,2839,655315,656825,650319,134095,650319,2839,856522,858028,853527,656828,853527,visual_patterns,0,0,0,yes,1366
undefined,undefined,undefined,undefined,white,no,Mozilla,Netscape,"5.0 (Windows NT 10.0; Win64; x64) AppleWebKit/537.36 (KHTML, like Gecko) Chrome/97.0.4692.99 Safari/537.36",xpyriment,legacy,legacy,0,uniform,0,0,0,0,24,24,24,0,0,74,74,74,74,74,0,74,0,37,37,37,37,37,0,37,08-02-22,08-02-22,13:58:14,Tue Mar 08 2022 13:58:14 GMT+0100 (közép-európai téli idő),The main experiment item,yes,0,0,C:/Users/rrics/Documents/!!ResearchBMECOGSCI/gnet,0,0,0,prototype1.png,no,mono,no,18,no,black,no,no,768,1188,3.5.6,legacy,xpyriment,osweb,1.3.13,0,right,space,space,right,33923,17931,33047,33923,2,legacy,1040,1920,24,1080,24,0,0,1920,1646744337823,1024,2,48000,-16,experiment,p1sarrcol4.png,0,even,Win32,2839,132576,129566,2839,2839,655315,656825,650319,134095,650319,2839,861037,862544,858041,656828,858041,visual_patterns,0,0,0,yes,1366
undefined,undefined,undefined,undefined,white,no,Mozilla,Netscape,"5.0 (Windows NT 10.0; Win64; x64) AppleWebKit/537.36 (KHTML, like Gecko) Chrome/97.0.4692.99 Safari/537.36",xpyriment,legacy,legacy,0,uniform,0,0,0,0,24,24,24,0,0,74,74,74,74,74,0,74,0,38,38,38,38,38,0,38,08-02-22,08-02-22,13:58:14,Tue Mar 08 2022 13:58:14 GMT+0100 (közép-európai téli idő),The main experiment item,yes,0,0,C:/Users/rrics/Documents/!!ResearchBMECOGSCI/gnet,0,0,0,prototype1.png,no,mono,no,18,no,black,no,no,768,1188,3.5.6,legacy,xpyriment,osweb,1.3.13,0,right,space,space,right,33923,17931,33047,33923,2,legacy,1040,1920,24,1080,24,0,0,1920,1646744337823,1024,2,48000,-16,experiment,p3sarrsha4.png,0,even,Win32,2839,132576,129566,2839,2839,655315,656825,650319,134095,650319,2839,865552,867059,862555,656828,862555,visual_patterns,0,0,0,yes,1366
undefined,undefined,undefined,undefined,white,no,Mozilla,Netscape,"5.0 (Windows NT 10.0; Win64; x64) AppleWebKit/537.36 (KHTML, like Gecko) Chrome/97.0.4692.99 Safari/537.36",xpyriment,legacy,legacy,0,uniform,0,0,0,0,24,24,24,0,0,74,74,74,74,74,0,74,0,39,39,39,39,39,0,39,08-02-22,08-02-22,13:58:14,Tue Mar 08 2022 13:58:14 GMT+0100 (közép-európai téli idő),The main experiment item,yes,0,0,C:/Users/rrics/Documents/!!ResearchBMECOGSCI/gnet,0,0,0,prototype1.png,no,mono,no,18,no,black,no,no,768,1188,3.5.6,legacy,xpyriment,osweb,1.3.13,0,right,space,space,right,33923,17931,33047,33923,2,legacy,1040,1920,24,1080,24,0,0,1920,1646744337823,1024,2,48000,-16,experiment,p3sarr1.png,0,even,Win32,2839,132576,129566,2839,2839,655315,656825,650319,134095,650319,2839,870080,871591,867094,656828,867094,visual_patterns,0,0,0,yes,1366
undefined,undefined,undefined,undefined,white,no,Mozilla,Netscape,"5.0 (Windows NT 10.0; Win64; x64) AppleWebKit/537.36 (KHTML, like Gecko) Chrome/97.0.4692.99 Safari/537.36",xpyriment,legacy,legacy,0,uniform,0,0,0,0,24,24,24,0,0,74,74,74,74,74,0,74,0,40,40,40,40,40,0,40,08-02-22,08-02-22,13:58:14,Tue Mar 08 2022 13:58:14 GMT+0100 (közép-európai téli idő),The main experiment item,yes,0,0,C:/Users/rrics/Documents/!!ResearchBMECOGSCI/gnet,0,0,0,prototype1.png,no,mono,no,18,no,black,no,no,768,1188,3.5.6,legacy,xpyriment,osweb,1.3.13,0,right,space,space,right,33923,17931,33047,33923,2,legacy,1040,1920,24,1080,24,0,0,1920,1646744337823,1024,2,48000,-16,experiment,p2sarrsha3.png,0,even,Win32,2839,132576,129566,2839,2839,655315,656825,650319,134095,650319,2839,874603,876106,871604,656828,871604,visual_patterns,0,0,0,yes,1366
undefined,undefined,undefined,undefined,white,no,Mozilla,Netscape,"5.0 (Windows NT 10.0; Win64; x64) AppleWebKit/537.36 (KHTML, like Gecko) Chrome/97.0.4692.99 Safari/537.36",xpyriment,legacy,legacy,0,uniform,0,0,0,0,24,24,24,0,0,74,74,74,74,74,0,74,0,41,41,41,41,41,0,41,08-02-22,08-02-22,13:58:14,Tue Mar 08 2022 13:58:14 GMT+0100 (közép-európai téli idő),The main experiment item,yes,0,0,C:/Users/rrics/Documents/!!ResearchBMECOGSCI/gnet,0,0,0,prototype1.png,no,mono,no,18,no,black,no,no,768,1188,3.5.6,legacy,xpyriment,osweb,1.3.13,0,right,space,space,right,33923,17931,33047,33923,2,legacy,1040,1920,24,1080,24,0,0,1920,1646744337823,1024,2,48000,-16,experiment,p9sarr3.png,0,even,Win32,2839,132576,129566,2839,2839,655315,656825,650319,134095,650319,2839,879119,880622,876120,656828,876120,visual_patterns,0,0,0,yes,1366
undefined,undefined,undefined,undefined,white,no,Mozilla,Netscape,"5.0 (Windows NT 10.0; Win64; x64) AppleWebKit/537.36 (KHTML, like Gecko) Chrome/97.0.4692.99 Safari/537.36",xpyriment,legacy,legacy,0,uniform,0,0,0,0,24,24,24,0,0,74,74,74,74,74,0,74,0,42,42,42,42,42,0,42,08-02-22,08-02-22,13:58:14,Tue Mar 08 2022 13:58:14 GMT+0100 (közép-európai téli idő),The main experiment item,yes,0,0,C:/Users/rrics/Documents/!!ResearchBMECOGSCI/gnet,0,0,0,prototype1.png,no,mono,no,18,no,black,no,no,768,1188,3.5.6,legacy,xpyriment,osweb,1.3.13,0,right,space,space,right,33923,17931,33047,33923,2,legacy,1040,1920,24,1080,24,0,0,1920,1646744337823,1024,2,48000,-16,experiment,p10sarr4.png,0,even,Win32,2839,132576,129566,2839,2839,655315,656825,650319,134095,650319,2839,883634,885138,880637,656828,880637,visual_patterns,0,0,0,yes,1366
undefined,undefined,undefined,undefined,white,no,Mozilla,Netscape,"5.0 (Windows NT 10.0; Win64; x64) AppleWebKit/537.36 (KHTML, like Gecko) Chrome/97.0.4692.99 Safari/537.36",xpyriment,legacy,legacy,0,uniform,0,0,0,0,24,24,24,0,0,74,74,74,74,74,0,74,0,43,43,43,43,43,0,43,08-02-22,08-02-22,13:58:14,Tue Mar 08 2022 13:58:14 GMT+0100 (közép-európai téli idő),The main experiment item,yes,0,0,C:/Users/rrics/Documents/!!ResearchBMECOGSCI/gnet,0,0,0,prototype1.png,no,mono,no,18,no,black,no,no,768,1188,3.5.6,legacy,xpyriment,osweb,1.3.13,0,right,space,space,right,33923,17931,33047,33923,2,legacy,1040,1920,24,1080,24,0,0,1920,1646744337823,1024,2,48000,-16,experiment,p4sarrcol1.png,0,even,Win32,2839,132576,129566,2839,2839,655315,656825,650319,134095,650319,2839,888148,889654,885149,656828,885149,visual_patterns,0,0,0,yes,1366
undefined,undefined,undefined,undefined,white,no,Mozilla,Netscape,"5.0 (Windows NT 10.0; Win64; x64) AppleWebKit/537.36 (KHTML, like Gecko) Chrome/97.0.4692.99 Safari/537.36",xpyriment,legacy,legacy,0,uniform,0,0,0,0,24,24,24,0,0,74,74,74,74,74,0,74,0,44,44,44,44,44,0,44,08-02-22,08-02-22,13:58:14,Tue Mar 08 2022 13:58:14 GMT+0100 (közép-európai téli idő),The main experiment item,yes,0,0,C:/Users/rrics/Documents/!!ResearchBMECOGSCI/gnet,0,0,0,prototype1.png,no,mono,no,18,no,black,no,no,768,1188,3.5.6,legacy,xpyriment,osweb,1.3.13,0,right,space,space,right,33923,17931,33047,33923,2,legacy,1040,1920,24,1080,24,0,0,1920,1646744337823,1024,2,48000,-16,experiment,p5sarrshacol4.png,0,even,Win32,2839,132576,129566,2839,2839,655315,656825,650319,134095,650319,2839,892663,894170,889668,656828,889668,visual_patterns,0,0,0,yes,1366
undefined,undefined,undefined,undefined,white,no,Mozilla,Netscape,"5.0 (Windows NT 10.0; Win64; x64) AppleWebKit/537.36 (KHTML, like Gecko) Chrome/97.0.4692.99 Safari/537.36",xpyriment,legacy,legacy,0,uniform,0,0,0,0,24,24,24,0,0,74,74,74,74,74,0,74,0,45,45,45,45,45,0,45,08-02-22,08-02-22,13:58:14,Tue Mar 08 2022 13:58:14 GMT+0100 (közép-európai téli idő),The main experiment item,yes,0,0,C:/Users/rrics/Documents/!!ResearchBMECOGSCI/gnet,0,0,0,prototype1.png,no,mono,no,18,no,black,no,no,768,1188,3.5.6,legacy,xpyriment,osweb,1.3.13,0,right,space,space,right,33923,17931,33047,33923,2,legacy,1040,1920,24,1080,24,0,0,1920,1646744337823,1024,2,48000,-16,experiment,p3sarr3.png,0,even,Win32,2839,132576,129566,2839,2839,655315,656825,650319,134095,650319,2839,897177,898685,894180,656828,894180,visual_patterns,0,0,0,yes,1366
undefined,undefined,undefined,undefined,white,no,Mozilla,Netscape,"5.0 (Windows NT 10.0; Win64; x64) AppleWebKit/537.36 (KHTML, like Gecko) Chrome/97.0.4692.99 Safari/537.36",xpyriment,legacy,legacy,0,uniform,0,0,0,0,24,24,24,0,0,74,74,74,74,74,0,74,0,46,46,46,46,46,0,46,08-02-22,08-02-22,13:58:14,Tue Mar 08 2022 13:58:14 GMT+0100 (közép-európai téli idő),The main experiment item,yes,0,0,C:/Users/rrics/Documents/!!ResearchBMECOGSCI/gnet,0,0,0,prototype1.png,no,mono,no,18,no,black,no,no,768,1188,3.5.6,legacy,xpyriment,osweb,1.3.13,0,right,space,space,right,33923,17931,33047,33923,2,legacy,1040,1920,24,1080,24,0,0,1920,1646744337823,1024,2,48000,-16,experiment,p2sarr3.png,0,even,Win32,2839,132576,129566,2839,2839,655315,656825,650319,134095,650319,2839,901709,903215,898714,656828,898714,visual_patterns,0,0,0,yes,1366
undefined,undefined,undefined,undefined,white,no,Mozilla,Netscape,"5.0 (Windows NT 10.0; Win64; x64) AppleWebKit/537.36 (KHTML, like Gecko) Chrome/97.0.4692.99 Safari/537.36",xpyriment,legacy,legacy,0,uniform,0,0,0,0,24,24,24,0,0,74,74,74,74,74,0,74,0,47,47,47,47,47,0,47,08-02-22,08-02-22,13:58:14,Tue Mar 08 2022 13:58:14 GMT+0100 (közép-európai téli idő),The main experiment item,yes,0,0,C:/Users/rrics/Documents/!!ResearchBMECOGSCI/gnet,0,0,0,prototype1.png,no,mono,no,18,no,black,no,no,768,1188,3.5.6,legacy,xpyriment,osweb,1.3.13,0,right,space,space,right,33923,17931,33047,33923,2,legacy,1040,1920,24,1080,24,0,0,1920,1646744337823,1024,2,48000,-16,experiment,p4sarr2.png,0,even,Win32,2839,132576,129566,2839,2839,655315,656825,650319,134095,650319,2839,906224,907731,903228,656828,903228,visual_patterns,0,0,0,yes,1366
