acc,accuracy,average_response_time,avg_rt,background,bidi,browser_codename,browser_name,browser_version,canvas_backend,clock_backend,color_backend,compensation,coordinates,count_end,count_experiment,count_osweb,count_prestudy,count_prestudy_isi,count_prestudy_sequence,count_prestudy_stimpres,count_start,count_study,count_study_coroutines,count_study_isi,count_study_logger,count_study_response,count_study_sequence,count_study_start,count_study_stimpres,count_test,count_test_coroutines,count_test_isi,count_test_logger,count_test_response,count_test_sequence,count_test_start,count_test_stimpres,date_startdate,date_startdateUTC,date_starttime,datetime,description,disable_garbage_collection,experiment_debug,experiment_parameters,experiment_path,experiment_pilot,experiment_taskname,experiment_taskversion,fampict,font_bold,font_family,font_italic,font_size,font_underline,foreground,form_clicks,fullscreen,height,jatosStudyResultId,jatosVersion,keyboard_backend,mouse_backend,opensesame_codename,opensesame_version,repeat_cycle,response,response_start,response_study_start,response_test_start,response_time,response_time_start,response_time_study_start,response_time_test_start,round_decimals,sampler_backend,screen_availableHeight,screen_availableWidth,screen_colorDepth,screen_height,screen_pixelDepth,screen_screenX,screen_screenY,screen_width,sessionid,sound_buf_size,sound_channels,sound_freq,sound_sample_size,start,stim,subject_nr,subject_parity,system_os,time_prestudy,time_prestudy_isi,time_prestudy_stimpres,time_start,time_study,time_study_isi,time_study_logger,time_study_response,time_study_start,time_study_stimpres,time_test,time_test_isi,time_test_logger,time_test_response,time_test_start,time_test_stimpres,title,total_correct,total_response_time,total_responses,uniform_coordinates,width
undefined,undefined,undefined,undefined,white,no,Mozilla,Netscape,"5.0 (Windows NT 10.0; Win64; x64) AppleWebKit/537.36 (KHTML, like Gecko) Chrome/98.0.4758.102 Safari/537.36 OPR/84.0.4316.21 (Edition utorrent)",xpyriment,legacy,legacy,0,uniform,0,0,0,0,24,24,24,0,0,0,0,0,0,0,0,0,0,,,,,,0,,09-02-22,09-02-22,07:41:54,Wed Mar 09 2022 07:41:54 GMT+0100 (közép-európai téli idő),The main experiment item,yes,0,0,C:/Users/rrics/Documents/!!ResearchBMECOGSCI/gnet,0,0,0,prototype4.png,no,mono,no,18,no,black,no,no,768,1189,3.5.6,legacy,xpyriment,osweb,1.3.13,0,enter,right,enter,,38971,24882,38971,,2,legacy,824,1536,24,864,24,0,0,1536,1646808145002,1024,2,48000,-16,experiment,p6sarr1.png,1,odd,Win32,130,136329,133324,130,130,181825,183326,176826,137836,176825,130,,,,,,visual_patterns,0,0,0,yes,1366
undefined,undefined,undefined,undefined,white,no,Mozilla,Netscape,"5.0 (Windows NT 10.0; Win64; x64) AppleWebKit/537.36 (KHTML, like Gecko) Chrome/98.0.4758.102 Safari/537.36 OPR/84.0.4316.21 (Edition utorrent)",xpyriment,legacy,legacy,0,uniform,0,0,0,0,24,24,24,0,0,1,1,1,1,1,0,1,0,,,,,,0,,09-02-22,09-02-22,07:41:54,Wed Mar 09 2022 07:41:54 GMT+0100 (közép-európai téli idő),The main experiment item,yes,0,0,C:/Users/rrics/Documents/!!ResearchBMECOGSCI/gnet,0,0,0,prototype4.png,no,mono,no,18,no,black,no,no,768,1189,3.5.6,legacy,xpyriment,osweb,1.3.13,0,enter,right,enter,,38971,24882,38971,,2,legacy,824,1536,24,864,24,0,0,1536,1646808145002,1024,2,48000,-16,experiment,prototype3.png,1,odd,Win32,130,136329,133324,130,130,188334,189837,183332,137836,183332,130,,,,,,visual_patterns,0,0,0,yes,1366
undefined,undefined,undefined,undefined,white,no,Mozilla,Netscape,"5.0 (Windows NT 10.0; Win64; x64) AppleWebKit/537.36 (KHTML, like Gecko) Chrome/98.0.4758.102 Safari/537.36 OPR/84.0.4316.21 (Edition utorrent)",xpyriment,legacy,legacy,0,uniform,0,0,0,0,24,24,24,0,0,2,2,2,2,2,0,2,0,,,,,,0,,09-02-22,09-02-22,07:41:54,Wed Mar 09 2022 07:41:54 GMT+0100 (közép-európai téli idő),The main experiment item,yes,0,0,C:/Users/rrics/Documents/!!ResearchBMECOGSCI/gnet,0,0,0,prototype4.png,no,mono,no,18,no,black,no,no,768,1189,3.5.6,legacy,xpyriment,osweb,1.3.13,0,enter,right,enter,,38971,24882,38971,,2,legacy,824,1536,24,864,24,0,0,1536,1646808145002,1024,2,48000,-16,experiment,p3sarr1.png,1,odd,Win32,130,136329,133324,130,130,194843,196347,189842,137836,189842,130,,,,,,visual_patterns,0,0,0,yes,1366
undefined,undefined,undefined,undefined,white,no,Mozilla,Netscape,"5.0 (Windows NT 10.0; Win64; x64) AppleWebKit/537.36 (KHTML, like Gecko) Chrome/98.0.4758.102 Safari/537.36 OPR/84.0.4316.21 (Edition utorrent)",xpyriment,legacy,legacy,0,uniform,0,0,0,0,24,24,24,0,0,3,3,3,3,3,0,3,0,,,,,,0,,09-02-22,09-02-22,07:41:54,Wed Mar 09 2022 07:41:54 GMT+0100 (közép-európai téli idő),The main experiment item,yes,0,0,C:/Users/rrics/Documents/!!ResearchBMECOGSCI/gnet,0,0,0,prototype4.png,no,mono,no,18,no,black,no,no,768,1189,3.5.6,legacy,xpyriment,osweb,1.3.13,0,enter,right,enter,,38971,24882,38971,,2,legacy,824,1536,24,864,24,0,0,1536,1646808145002,1024,2,48000,-16,experiment,p9sarr2.png,1,odd,Win32,130,136329,133324,130,130,201363,202866,196359,137836,196359,130,,,,,,visual_patterns,0,0,0,yes,1366
undefined,undefined,undefined,undefined,white,no,Mozilla,Netscape,"5.0 (Windows NT 10.0; Win64; x64) AppleWebKit/537.36 (KHTML, like Gecko) Chrome/98.0.4758.102 Safari/537.36 OPR/84.0.4316.21 (Edition utorrent)",xpyriment,legacy,legacy,0,uniform,0,0,0,0,24,24,24,0,0,4,4,4,4,4,0,4,0,,,,,,0,,09-02-22,09-02-22,07:41:54,Wed Mar 09 2022 07:41:54 GMT+0100 (közép-európai téli idő),The main experiment item,yes,0,0,C:/Users/rrics/Documents/!!ResearchBMECOGSCI/gnet,0,0,0,prototype4.png,no,mono,no,18,no,black,no,no,768,1189,3.5.6,legacy,xpyriment,osweb,1.3.13,0,enter,right,enter,,38971,24882,38971,,2,legacy,824,1536,24,864,24,0,0,1536,1646808145002,1024,2,48000,-16,experiment,p4sarr2.png,1,odd,Win32,130,136329,133324,130,130,207873,209377,202872,137836,202872,130,,,,,,visual_patterns,0,0,0,yes,1366
undefined,undefined,undefined,undefined,white,no,Mozilla,Netscape,"5.0 (Windows NT 10.0; Win64; x64) AppleWebKit/537.36 (KHTML, like Gecko) Chrome/98.0.4758.102 Safari/537.36 OPR/84.0.4316.21 (Edition utorrent)",xpyriment,legacy,legacy,0,uniform,0,0,0,0,24,24,24,0,0,5,5,5,5,5,0,5,0,,,,,,0,,09-02-22,09-02-22,07:41:54,Wed Mar 09 2022 07:41:54 GMT+0100 (közép-európai téli idő),The main experiment item,yes,0,0,C:/Users/rrics/Documents/!!ResearchBMECOGSCI/gnet,0,0,0,prototype4.png,no,mono,no,18,no,black,no,no,768,1189,3.5.6,legacy,xpyriment,osweb,1.3.13,0,enter,right,enter,,38971,24882,38971,,2,legacy,824,1536,24,864,24,0,0,1536,1646808145002,1024,2,48000,-16,experiment,p4sarrshacol2.png,1,odd,Win32,130,136329,133324,130,130,214386,215887,209382,137836,209382,130,,,,,,visual_patterns,0,0,0,yes,1366
undefined,undefined,undefined,undefined,white,no,Mozilla,Netscape,"5.0 (Windows NT 10.0; Win64; x64) AppleWebKit/537.36 (KHTML, like Gecko) Chrome/98.0.4758.102 Safari/537.36 OPR/84.0.4316.21 (Edition utorrent)",xpyriment,legacy,legacy,0,uniform,0,0,0,0,24,24,24,0,0,6,6,6,6,6,0,6,0,,,,,,0,,09-02-22,09-02-22,07:41:54,Wed Mar 09 2022 07:41:54 GMT+0100 (közép-európai téli idő),The main experiment item,yes,0,0,C:/Users/rrics/Documents/!!ResearchBMECOGSCI/gnet,0,0,0,prototype4.png,no,mono,no,18,no,black,no,no,768,1189,3.5.6,legacy,xpyriment,osweb,1.3.13,0,enter,right,enter,,38971,24882,38971,,2,legacy,824,1536,24,864,24,0,0,1536,1646808145002,1024,2,48000,-16,experiment,p5sarrsha2.png,1,odd,Win32,130,136329,133324,130,130,220896,222399,215893,137836,215893,130,,,,,,visual_patterns,0,0,0,yes,1366
undefined,undefined,undefined,undefined,white,no,Mozilla,Netscape,"5.0 (Windows NT 10.0; Win64; x64) AppleWebKit/537.36 (KHTML, like Gecko) Chrome/98.0.4758.102 Safari/537.36 OPR/84.0.4316.21 (Edition utorrent)",xpyriment,legacy,legacy,0,uniform,0,0,0,0,24,24,24,0,0,7,7,7,7,7,0,7,0,,,,,,0,,09-02-22,09-02-22,07:41:54,Wed Mar 09 2022 07:41:54 GMT+0100 (közép-európai téli idő),The main experiment item,yes,0,0,C:/Users/rrics/Documents/!!ResearchBMECOGSCI/gnet,0,0,0,prototype4.png,no,mono,no,18,no,black,no,no,768,1189,3.5.6,legacy,xpyriment,osweb,1.3.13,0,enter,right,enter,,38971,24882,38971,,2,legacy,824,1536,24,864,24,0,0,1536,1646808145002,1024,2,48000,-16,experiment,p2sarr1.png,1,odd,Win32,130,136329,133324,130,130,227406,228908,222405,137836,222405,130,,,,,,visual_patterns,0,0,0,yes,1366
undefined,undefined,undefined,undefined,white,no,Mozilla,Netscape,"5.0 (Windows NT 10.0; Win64; x64) AppleWebKit/537.36 (KHTML, like Gecko) Chrome/98.0.4758.102 Safari/537.36 OPR/84.0.4316.21 (Edition utorrent)",xpyriment,legacy,legacy,0,uniform,0,0,0,0,24,24,24,0,0,8,8,8,8,8,0,8,0,,,,,,0,,09-02-22,09-02-22,07:41:54,Wed Mar 09 2022 07:41:54 GMT+0100 (közép-európai téli idő),The main experiment item,yes,0,0,C:/Users/rrics/Documents/!!ResearchBMECOGSCI/gnet,0,0,0,prototype4.png,no,mono,no,18,no,black,no,no,768,1189,3.5.6,legacy,xpyriment,osweb,1.3.13,0,enter,right,enter,,38971,24882,38971,,2,legacy,824,1536,24,864,24,0,0,1536,1646808145002,1024,2,48000,-16,experiment,prototype4.png,1,odd,Win32,130,136329,133324,130,130,233916,235419,228913,137836,228913,130,,,,,,visual_patterns,0,0,0,yes,1366
undefined,undefined,undefined,undefined,white,no,Mozilla,Netscape,"5.0 (Windows NT 10.0; Win64; x64) AppleWebKit/537.36 (KHTML, like Gecko) Chrome/98.0.4758.102 Safari/537.36 OPR/84.0.4316.21 (Edition utorrent)",xpyriment,legacy,legacy,0,uniform,0,0,0,0,24,24,24,0,0,9,9,9,9,9,0,9,0,,,,,,0,,09-02-22,09-02-22,07:41:54,Wed Mar 09 2022 07:41:54 GMT+0100 (közép-európai téli idő),The main experiment item,yes,0,0,C:/Users/rrics/Documents/!!ResearchBMECOGSCI/gnet,0,0,0,prototype4.png,no,mono,no,18,no,black,no,no,768,1189,3.5.6,legacy,xpyriment,osweb,1.3.13,0,enter,right,enter,,38971,24882,38971,,2,legacy,824,1536,24,864,24,0,0,1536,1646808145002,1024,2,48000,-16,experiment,p5sarrsha1.png,1,odd,Win32,130,136329,133324,130,130,240424,241929,235425,137836,235425,130,,,,,,visual_patterns,0,0,0,yes,1366
undefined,undefined,undefined,undefined,white,no,Mozilla,Netscape,"5.0 (Windows NT 10.0; Win64; x64) AppleWebKit/537.36 (KHTML, like Gecko) Chrome/98.0.4758.102 Safari/537.36 OPR/84.0.4316.21 (Edition utorrent)",xpyriment,legacy,legacy,0,uniform,0,0,0,0,24,24,24,0,0,10,10,10,10,10,0,10,0,,,,,,0,,09-02-22,09-02-22,07:41:54,Wed Mar 09 2022 07:41:54 GMT+0100 (közép-európai téli idő),The main experiment item,yes,0,0,C:/Users/rrics/Documents/!!ResearchBMECOGSCI/gnet,0,0,0,prototype4.png,no,mono,no,18,no,black,no,no,768,1189,3.5.6,legacy,xpyriment,osweb,1.3.13,0,enter,right,enter,,38971,24882,38971,,2,legacy,824,1536,24,864,24,0,0,1536,1646808145002,1024,2,48000,-16,experiment,p5sarrcol1.png,1,odd,Win32,130,136329,133324,130,130,246935,248441,241935,137836,241935,130,,,,,,visual_patterns,0,0,0,yes,1366
undefined,undefined,undefined,undefined,white,no,Mozilla,Netscape,"5.0 (Windows NT 10.0; Win64; x64) AppleWebKit/537.36 (KHTML, like Gecko) Chrome/98.0.4758.102 Safari/537.36 OPR/84.0.4316.21 (Edition utorrent)",xpyriment,legacy,legacy,0,uniform,0,0,0,0,24,24,24,0,0,11,11,11,11,11,0,11,0,,,,,,0,,09-02-22,09-02-22,07:41:54,Wed Mar 09 2022 07:41:54 GMT+0100 (közép-európai téli idő),The main experiment item,yes,0,0,C:/Users/rrics/Documents/!!ResearchBMECOGSCI/gnet,0,0,0,prototype4.png,no,mono,no,18,no,black,no,no,768,1189,3.5.6,legacy,xpyriment,osweb,1.3.13,0,enter,right,enter,,38971,24882,38971,,2,legacy,824,1536,24,864,24,0,0,1536,1646808145002,1024,2,48000,-16,experiment,p8sarr2.png,1,odd,Win32,130,136329,133324,130,130,253445,254951,248446,137836,248446,130,,,,,,visual_patterns,0,0,0,yes,1366
undefined,undefined,undefined,undefined,white,no,Mozilla,Netscape,"5.0 (Windows NT 10.0; Win64; x64) AppleWebKit/537.36 (KHTML, like Gecko) Chrome/98.0.4758.102 Safari/537.36 OPR/84.0.4316.21 (Edition utorrent)",xpyriment,legacy,legacy,0,uniform,0,0,0,0,24,24,24,0,0,12,12,12,12,12,0,12,0,,,,,,0,,09-02-22,09-02-22,07:41:54,Wed Mar 09 2022 07:41:54 GMT+0100 (közép-európai téli idő),The main experiment item,yes,0,0,C:/Users/rrics/Documents/!!ResearchBMECOGSCI/gnet,0,0,0,prototype4.png,no,mono,no,18,no,black,no,no,768,1189,3.5.6,legacy,xpyriment,osweb,1.3.13,0,enter,right,enter,,38971,24882,38971,,2,legacy,824,1536,24,864,24,0,0,1536,1646808145002,1024,2,48000,-16,experiment,p5sarrshacol2.png,1,odd,Win32,130,136329,133324,130,130,259959,261463,254957,137836,254957,130,,,,,,visual_patterns,0,0,0,yes,1366
undefined,undefined,undefined,undefined,white,no,Mozilla,Netscape,"5.0 (Windows NT 10.0; Win64; x64) AppleWebKit/537.36 (KHTML, like Gecko) Chrome/98.0.4758.102 Safari/537.36 OPR/84.0.4316.21 (Edition utorrent)",xpyriment,legacy,legacy,0,uniform,0,0,0,0,24,24,24,0,0,13,13,13,13,13,0,13,0,,,,,,0,,09-02-22,09-02-22,07:41:54,Wed Mar 09 2022 07:41:54 GMT+0100 (közép-európai téli idő),The main experiment item,yes,0,0,C:/Users/rrics/Documents/!!ResearchBMECOGSCI/gnet,0,0,0,prototype4.png,no,mono,no,18,no,black,no,no,768,1189,3.5.6,legacy,xpyriment,osweb,1.3.13,0,enter,right,enter,,38971,24882,38971,,2,legacy,824,1536,24,864,24,0,0,1536,1646808145002,1024,2,48000,-16,experiment,p8sarr1.png,1,odd,Win32,130,136329,133324,130,130,266470,267972,261468,137836,261468,130,,,,,,visual_patterns,0,0,0,yes,1366
undefined,undefined,undefined,undefined,white,no,Mozilla,Netscape,"5.0 (Windows NT 10.0; Win64; x64) AppleWebKit/537.36 (KHTML, like Gecko) Chrome/98.0.4758.102 Safari/537.36 OPR/84.0.4316.21 (Edition utorrent)",xpyriment,legacy,legacy,0,uniform,0,0,0,0,24,24,24,0,0,14,14,14,14,14,0,14,0,,,,,,0,,09-02-22,09-02-22,07:41:54,Wed Mar 09 2022 07:41:54 GMT+0100 (közép-európai téli idő),The main experiment item,yes,0,0,C:/Users/rrics/Documents/!!ResearchBMECOGSCI/gnet,0,0,0,prototype4.png,no,mono,no,18,no,black,no,no,768,1189,3.5.6,legacy,xpyriment,osweb,1.3.13,0,enter,right,enter,,38971,24882,38971,,2,legacy,824,1536,24,864,24,0,0,1536,1646808145002,1024,2,48000,-16,experiment,p3sarrcol1.png,1,odd,Win32,130,136329,133324,130,130,272980,274483,267977,137836,267977,130,,,,,,visual_patterns,0,0,0,yes,1366
undefined,undefined,undefined,undefined,white,no,Mozilla,Netscape,"5.0 (Windows NT 10.0; Win64; x64) AppleWebKit/537.36 (KHTML, like Gecko) Chrome/98.0.4758.102 Safari/537.36 OPR/84.0.4316.21 (Edition utorrent)",xpyriment,legacy,legacy,0,uniform,0,0,0,0,24,24,24,0,0,15,15,15,15,15,0,15,0,,,,,,0,,09-02-22,09-02-22,07:41:54,Wed Mar 09 2022 07:41:54 GMT+0100 (közép-európai téli idő),The main experiment item,yes,0,0,C:/Users/rrics/Documents/!!ResearchBMECOGSCI/gnet,0,0,0,prototype4.png,no,mono,no,18,no,black,no,no,768,1189,3.5.6,legacy,xpyriment,osweb,1.3.13,0,enter,right,enter,,38971,24882,38971,,2,legacy,824,1536,24,864,24,0,0,1536,1646808145002,1024,2,48000,-16,experiment,prototype1.png,1,odd,Win32,130,136329,133324,130,130,279487,280993,274487,137836,274487,130,,,,,,visual_patterns,0,0,0,yes,1366
undefined,undefined,undefined,undefined,white,no,Mozilla,Netscape,"5.0 (Windows NT 10.0; Win64; x64) AppleWebKit/537.36 (KHTML, like Gecko) Chrome/98.0.4758.102 Safari/537.36 OPR/84.0.4316.21 (Edition utorrent)",xpyriment,legacy,legacy,0,uniform,0,0,0,0,24,24,24,0,0,16,16,16,16,16,0,16,0,,,,,,0,,09-02-22,09-02-22,07:41:54,Wed Mar 09 2022 07:41:54 GMT+0100 (közép-európai téli idő),The main experiment item,yes,0,0,C:/Users/rrics/Documents/!!ResearchBMECOGSCI/gnet,0,0,0,prototype4.png,no,mono,no,18,no,black,no,no,768,1189,3.5.6,legacy,xpyriment,osweb,1.3.13,0,enter,right,enter,,38971,24882,38971,,2,legacy,824,1536,24,864,24,0,0,1536,1646808145002,1024,2,48000,-16,experiment,p2sarr2.png,1,odd,Win32,130,136329,133324,130,130,285999,287504,281000,137836,281000,130,,,,,,visual_patterns,0,0,0,yes,1366
undefined,undefined,undefined,undefined,white,no,Mozilla,Netscape,"5.0 (Windows NT 10.0; Win64; x64) AppleWebKit/537.36 (KHTML, like Gecko) Chrome/98.0.4758.102 Safari/537.36 OPR/84.0.4316.21 (Edition utorrent)",xpyriment,legacy,legacy,0,uniform,0,0,0,0,24,24,24,0,0,17,17,17,17,17,0,17,0,,,,,,0,,09-02-22,09-02-22,07:41:54,Wed Mar 09 2022 07:41:54 GMT+0100 (közép-európai téli idő),The main experiment item,yes,0,0,C:/Users/rrics/Documents/!!ResearchBMECOGSCI/gnet,0,0,0,prototype4.png,no,mono,no,18,no,black,no,no,768,1189,3.5.6,legacy,xpyriment,osweb,1.3.13,0,enter,right,enter,,38971,24882,38971,,2,legacy,824,1536,24,864,24,0,0,1536,1646808145002,1024,2,48000,-16,experiment,p3sarrsha2.png,1,odd,Win32,130,136329,133324,130,130,292511,294015,287509,137836,287509,130,,,,,,visual_patterns,0,0,0,yes,1366
undefined,undefined,undefined,undefined,white,no,Mozilla,Netscape,"5.0 (Windows NT 10.0; Win64; x64) AppleWebKit/537.36 (KHTML, like Gecko) Chrome/98.0.4758.102 Safari/537.36 OPR/84.0.4316.21 (Edition utorrent)",xpyriment,legacy,legacy,0,uniform,0,0,0,0,24,24,24,0,0,18,18,18,18,18,0,18,0,,,,,,0,,09-02-22,09-02-22,07:41:54,Wed Mar 09 2022 07:41:54 GMT+0100 (közép-európai téli idő),The main experiment item,yes,0,0,C:/Users/rrics/Documents/!!ResearchBMECOGSCI/gnet,0,0,0,prototype4.png,no,mono,no,18,no,black,no,no,768,1189,3.5.6,legacy,xpyriment,osweb,1.3.13,0,enter,right,enter,,38971,24882,38971,,2,legacy,824,1536,24,864,24,0,0,1536,1646808145002,1024,2,48000,-16,experiment,prototype4.png,1,odd,Win32,130,136329,133324,130,130,299022,300526,294019,137836,294019,130,,,,,,visual_patterns,0,0,0,yes,1366
undefined,undefined,undefined,undefined,white,no,Mozilla,Netscape,"5.0 (Windows NT 10.0; Win64; x64) AppleWebKit/537.36 (KHTML, like Gecko) Chrome/98.0.4758.102 Safari/537.36 OPR/84.0.4316.21 (Edition utorrent)",xpyriment,legacy,legacy,0,uniform,0,0,0,0,24,24,24,0,0,19,19,19,19,19,0,19,0,,,,,,0,,09-02-22,09-02-22,07:41:54,Wed Mar 09 2022 07:41:54 GMT+0100 (közép-európai téli idő),The main experiment item,yes,0,0,C:/Users/rrics/Documents/!!ResearchBMECOGSCI/gnet,0,0,0,prototype4.png,no,mono,no,18,no,black,no,no,768,1189,3.5.6,legacy,xpyriment,osweb,1.3.13,0,enter,right,enter,,38971,24882,38971,,2,legacy,824,1536,24,864,24,0,0,1536,1646808145002,1024,2,48000,-16,experiment,p3sarrsha1.png,1,odd,Win32,130,136329,133324,130,130,305533,307035,300532,137836,300532,130,,,,,,visual_patterns,0,0,0,yes,1366
undefined,undefined,undefined,undefined,white,no,Mozilla,Netscape,"5.0 (Windows NT 10.0; Win64; x64) AppleWebKit/537.36 (KHTML, like Gecko) Chrome/98.0.4758.102 Safari/537.36 OPR/84.0.4316.21 (Edition utorrent)",xpyriment,legacy,legacy,0,uniform,0,0,0,0,24,24,24,0,0,20,20,20,20,20,0,20,0,,,,,,0,,09-02-22,09-02-22,07:41:54,Wed Mar 09 2022 07:41:54 GMT+0100 (közép-európai téli idő),The main experiment item,yes,0,0,C:/Users/rrics/Documents/!!ResearchBMECOGSCI/gnet,0,0,0,prototype4.png,no,mono,no,18,no,black,no,no,768,1189,3.5.6,legacy,xpyriment,osweb,1.3.13,0,enter,right,enter,,38971,24882,38971,,2,legacy,824,1536,24,864,24,0,0,1536,1646808145002,1024,2,48000,-16,experiment,prototype2.png,1,odd,Win32,130,136329,133324,130,130,312039,313546,307039,137836,307039,130,,,,,,visual_patterns,0,0,0,yes,1366
undefined,undefined,undefined,undefined,white,no,Mozilla,Netscape,"5.0 (Windows NT 10.0; Win64; x64) AppleWebKit/537.36 (KHTML, like Gecko) Chrome/98.0.4758.102 Safari/537.36 OPR/84.0.4316.21 (Edition utorrent)",xpyriment,legacy,legacy,0,uniform,0,0,0,0,24,24,24,0,0,21,21,21,21,21,0,21,0,,,,,,0,,09-02-22,09-02-22,07:41:54,Wed Mar 09 2022 07:41:54 GMT+0100 (közép-európai téli idő),The main experiment item,yes,0,0,C:/Users/rrics/Documents/!!ResearchBMECOGSCI/gnet,0,0,0,prototype4.png,no,mono,no,18,no,black,no,no,768,1189,3.5.6,legacy,xpyriment,osweb,1.3.13,0,enter,right,enter,,38971,24882,38971,,2,legacy,824,1536,24,864,24,0,0,1536,1646808145002,1024,2,48000,-16,experiment,p4sarrcol2.png,1,odd,Win32,130,136329,133324,130,130,318552,320056,313551,137836,313551,130,,,,,,visual_patterns,0,0,0,yes,1366
undefined,undefined,undefined,undefined,white,no,Mozilla,Netscape,"5.0 (Windows NT 10.0; Win64; x64) AppleWebKit/537.36 (KHTML, like Gecko) Chrome/98.0.4758.102 Safari/537.36 OPR/84.0.4316.21 (Edition utorrent)",xpyriment,legacy,legacy,0,uniform,0,0,0,0,24,24,24,0,0,22,22,22,22,22,0,22,0,,,,,,0,,09-02-22,09-02-22,07:41:54,Wed Mar 09 2022 07:41:54 GMT+0100 (közép-európai téli idő),The main experiment item,yes,0,0,C:/Users/rrics/Documents/!!ResearchBMECOGSCI/gnet,0,0,0,prototype4.png,no,mono,no,18,no,black,no,no,768,1189,3.5.6,legacy,xpyriment,osweb,1.3.13,0,enter,right,enter,,38971,24882,38971,,2,legacy,824,1536,24,864,24,0,0,1536,1646808145002,1024,2,48000,-16,experiment,p5sarrshacol1.png,1,odd,Win32,130,136329,133324,130,130,325065,326567,320063,137836,320063,130,,,,,,visual_patterns,0,0,0,yes,1366
undefined,undefined,undefined,undefined,white,no,Mozilla,Netscape,"5.0 (Windows NT 10.0; Win64; x64) AppleWebKit/537.36 (KHTML, like Gecko) Chrome/98.0.4758.102 Safari/537.36 OPR/84.0.4316.21 (Edition utorrent)",xpyriment,legacy,legacy,0,uniform,0,0,0,0,24,24,24,0,0,23,23,23,23,23,0,23,0,,,,,,0,,09-02-22,09-02-22,07:41:54,Wed Mar 09 2022 07:41:54 GMT+0100 (közép-európai téli idő),The main experiment item,yes,0,0,C:/Users/rrics/Documents/!!ResearchBMECOGSCI/gnet,0,0,0,prototype4.png,no,mono,no,18,no,black,no,no,768,1189,3.5.6,legacy,xpyriment,osweb,1.3.13,0,enter,right,enter,,38971,24882,38971,,2,legacy,824,1536,24,864,24,0,0,1536,1646808145002,1024,2,48000,-16,experiment,prototype2.png,1,odd,Win32,130,136329,133324,130,130,331582,333086,326578,137836,326578,130,,,,,,visual_patterns,0,0,0,yes,1366
undefined,undefined,undefined,undefined,white,no,Mozilla,Netscape,"5.0 (Windows NT 10.0; Win64; x64) AppleWebKit/537.36 (KHTML, like Gecko) Chrome/98.0.4758.102 Safari/537.36 OPR/84.0.4316.21 (Edition utorrent)",xpyriment,legacy,legacy,0,uniform,0,0,0,0,24,24,24,0,0,24,24,24,24,24,0,24,0,,,,,,0,,09-02-22,09-02-22,07:41:54,Wed Mar 09 2022 07:41:54 GMT+0100 (közép-európai téli idő),The main experiment item,yes,0,0,C:/Users/rrics/Documents/!!ResearchBMECOGSCI/gnet,0,0,0,prototype4.png,no,mono,no,18,no,black,no,no,768,1189,3.5.6,legacy,xpyriment,osweb,1.3.13,0,enter,right,enter,,38971,24882,38971,,2,legacy,824,1536,24,864,24,0,0,1536,1646808145002,1024,2,48000,-16,experiment,p4sarrsha2.png,1,odd,Win32,130,136329,133324,130,130,338094,339597,333091,137836,333091,130,,,,,,visual_patterns,0,0,0,yes,1366
undefined,undefined,undefined,undefined,white,no,Mozilla,Netscape,"5.0 (Windows NT 10.0; Win64; x64) AppleWebKit/537.36 (KHTML, like Gecko) Chrome/98.0.4758.102 Safari/537.36 OPR/84.0.4316.21 (Edition utorrent)",xpyriment,legacy,legacy,0,uniform,0,0,0,0,24,24,24,0,0,25,25,25,25,25,0,25,0,,,,,,0,,09-02-22,09-02-22,07:41:54,Wed Mar 09 2022 07:41:54 GMT+0100 (közép-európai téli idő),The main experiment item,yes,0,0,C:/Users/rrics/Documents/!!ResearchBMECOGSCI/gnet,0,0,0,prototype4.png,no,mono,no,18,no,black,no,no,768,1189,3.5.6,legacy,xpyriment,osweb,1.3.13,0,enter,right,enter,,38971,24882,38971,,2,legacy,824,1536,24,864,24,0,0,1536,1646808145002,1024,2,48000,-16,experiment,p9sarr1.png,1,odd,Win32,130,136329,133324,130,130,344602,346108,339602,137836,339602,130,,,,,,visual_patterns,0,0,0,yes,1366
undefined,undefined,undefined,undefined,white,no,Mozilla,Netscape,"5.0 (Windows NT 10.0; Win64; x64) AppleWebKit/537.36 (KHTML, like Gecko) Chrome/98.0.4758.102 Safari/537.36 OPR/84.0.4316.21 (Edition utorrent)",xpyriment,legacy,legacy,0,uniform,0,0,0,0,24,24,24,0,0,26,26,26,26,26,0,26,0,,,,,,0,,09-02-22,09-02-22,07:41:54,Wed Mar 09 2022 07:41:54 GMT+0100 (közép-európai téli idő),The main experiment item,yes,0,0,C:/Users/rrics/Documents/!!ResearchBMECOGSCI/gnet,0,0,0,prototype4.png,no,mono,no,18,no,black,no,no,768,1189,3.5.6,legacy,xpyriment,osweb,1.3.13,0,enter,right,enter,,38971,24882,38971,,2,legacy,824,1536,24,864,24,0,0,1536,1646808145002,1024,2,48000,-16,experiment,prototype1.png,1,odd,Win32,130,136329,133324,130,130,351112,352617,346112,137836,346112,130,,,,,,visual_patterns,0,0,0,yes,1366
undefined,undefined,undefined,undefined,white,no,Mozilla,Netscape,"5.0 (Windows NT 10.0; Win64; x64) AppleWebKit/537.36 (KHTML, like Gecko) Chrome/98.0.4758.102 Safari/537.36 OPR/84.0.4316.21 (Edition utorrent)",xpyriment,legacy,legacy,0,uniform,0,0,0,0,24,24,24,0,0,27,27,27,27,27,0,27,0,,,,,,0,,09-02-22,09-02-22,07:41:54,Wed Mar 09 2022 07:41:54 GMT+0100 (közép-európai téli idő),The main experiment item,yes,0,0,C:/Users/rrics/Documents/!!ResearchBMECOGSCI/gnet,0,0,0,prototype4.png,no,mono,no,18,no,black,no,no,768,1189,3.5.6,legacy,xpyriment,osweb,1.3.13,0,enter,right,enter,,38971,24882,38971,,2,legacy,824,1536,24,864,24,0,0,1536,1646808145002,1024,2,48000,-16,experiment,p4sarrcol1.png,1,odd,Win32,130,136329,133324,130,130,357623,359129,352625,137836,352625,130,,,,,,visual_patterns,0,0,0,yes,1366
undefined,undefined,undefined,undefined,white,no,Mozilla,Netscape,"5.0 (Windows NT 10.0; Win64; x64) AppleWebKit/537.36 (KHTML, like Gecko) Chrome/98.0.4758.102 Safari/537.36 OPR/84.0.4316.21 (Edition utorrent)",xpyriment,legacy,legacy,0,uniform,0,0,0,0,24,24,24,0,0,28,28,28,28,28,0,28,0,,,,,,0,,09-02-22,09-02-22,07:41:54,Wed Mar 09 2022 07:41:54 GMT+0100 (közép-európai téli idő),The main experiment item,yes,0,0,C:/Users/rrics/Documents/!!ResearchBMECOGSCI/gnet,0,0,0,prototype4.png,no,mono,no,18,no,black,no,no,768,1189,3.5.6,legacy,xpyriment,osweb,1.3.13,0,enter,right,enter,,38971,24882,38971,,2,legacy,824,1536,24,864,24,0,0,1536,1646808145002,1024,2,48000,-16,experiment,prototype4.png,1,odd,Win32,130,136329,133324,130,130,364143,365647,359142,137836,359142,130,,,,,,visual_patterns,0,0,0,yes,1366
undefined,undefined,undefined,undefined,white,no,Mozilla,Netscape,"5.0 (Windows NT 10.0; Win64; x64) AppleWebKit/537.36 (KHTML, like Gecko) Chrome/98.0.4758.102 Safari/537.36 OPR/84.0.4316.21 (Edition utorrent)",xpyriment,legacy,legacy,0,uniform,0,0,0,0,24,24,24,0,0,29,29,29,29,29,0,29,0,,,,,,0,,09-02-22,09-02-22,07:41:54,Wed Mar 09 2022 07:41:54 GMT+0100 (közép-európai téli idő),The main experiment item,yes,0,0,C:/Users/rrics/Documents/!!ResearchBMECOGSCI/gnet,0,0,0,prototype4.png,no,mono,no,18,no,black,no,no,768,1189,3.5.6,legacy,xpyriment,osweb,1.3.13,0,enter,right,enter,,38971,24882,38971,,2,legacy,824,1536,24,864,24,0,0,1536,1646808145002,1024,2,48000,-16,experiment,prototype5.png,1,odd,Win32,130,136329,133324,130,130,370654,372158,365652,137836,365652,130,,,,,,visual_patterns,0,0,0,yes,1366
undefined,undefined,undefined,undefined,white,no,Mozilla,Netscape,"5.0 (Windows NT 10.0; Win64; x64) AppleWebKit/537.36 (KHTML, like Gecko) Chrome/98.0.4758.102 Safari/537.36 OPR/84.0.4316.21 (Edition utorrent)",xpyriment,legacy,legacy,0,uniform,0,0,0,0,24,24,24,0,0,30,30,30,30,30,0,30,0,,,,,,0,,09-02-22,09-02-22,07:41:54,Wed Mar 09 2022 07:41:54 GMT+0100 (közép-európai téli idő),The main experiment item,yes,0,0,C:/Users/rrics/Documents/!!ResearchBMECOGSCI/gnet,0,0,0,prototype4.png,no,mono,no,18,no,black,no,no,768,1189,3.5.6,legacy,xpyriment,osweb,1.3.13,0,enter,right,enter,,38971,24882,38971,,2,legacy,824,1536,24,864,24,0,0,1536,1646808145002,1024,2,48000,-16,experiment,p5sarrcol2.png,1,odd,Win32,130,136329,133324,130,130,377163,378669,372164,137836,372164,130,,,,,,visual_patterns,0,0,0,yes,1366
undefined,undefined,undefined,undefined,white,no,Mozilla,Netscape,"5.0 (Windows NT 10.0; Win64; x64) AppleWebKit/537.36 (KHTML, like Gecko) Chrome/98.0.4758.102 Safari/537.36 OPR/84.0.4316.21 (Edition utorrent)",xpyriment,legacy,legacy,0,uniform,0,0,0,0,24,24,24,0,0,31,31,31,31,31,0,31,0,,,,,,0,,09-02-22,09-02-22,07:41:54,Wed Mar 09 2022 07:41:54 GMT+0100 (közép-európai téli idő),The main experiment item,yes,0,0,C:/Users/rrics/Documents/!!ResearchBMECOGSCI/gnet,0,0,0,prototype4.png,no,mono,no,18,no,black,no,no,768,1189,3.5.6,legacy,xpyriment,osweb,1.3.13,0,enter,right,enter,,38971,24882,38971,,2,legacy,824,1536,24,864,24,0,0,1536,1646808145002,1024,2,48000,-16,experiment,p2sarrsha2.png,1,odd,Win32,130,136329,133324,130,130,383673,385179,378674,137836,378674,130,,,,,,visual_patterns,0,0,0,yes,1366
undefined,undefined,undefined,undefined,white,no,Mozilla,Netscape,"5.0 (Windows NT 10.0; Win64; x64) AppleWebKit/537.36 (KHTML, like Gecko) Chrome/98.0.4758.102 Safari/537.36 OPR/84.0.4316.21 (Edition utorrent)",xpyriment,legacy,legacy,0,uniform,0,0,0,0,24,24,24,0,0,32,32,32,32,32,0,32,0,,,,,,0,,09-02-22,09-02-22,07:41:54,Wed Mar 09 2022 07:41:54 GMT+0100 (közép-európai téli idő),The main experiment item,yes,0,0,C:/Users/rrics/Documents/!!ResearchBMECOGSCI/gnet,0,0,0,prototype4.png,no,mono,no,18,no,black,no,no,768,1189,3.5.6,legacy,xpyriment,osweb,1.3.13,0,enter,right,enter,,38971,24882,38971,,2,legacy,824,1536,24,864,24,0,0,1536,1646808145002,1024,2,48000,-16,experiment,p5sarr1.png,1,odd,Win32,130,136329,133324,130,130,390186,391689,385184,137836,385184,130,,,,,,visual_patterns,0,0,0,yes,1366
undefined,undefined,undefined,undefined,white,no,Mozilla,Netscape,"5.0 (Windows NT 10.0; Win64; x64) AppleWebKit/537.36 (KHTML, like Gecko) Chrome/98.0.4758.102 Safari/537.36 OPR/84.0.4316.21 (Edition utorrent)",xpyriment,legacy,legacy,0,uniform,0,0,0,0,24,24,24,0,0,33,33,33,33,33,0,33,0,,,,,,0,,09-02-22,09-02-22,07:41:54,Wed Mar 09 2022 07:41:54 GMT+0100 (közép-európai téli idő),The main experiment item,yes,0,0,C:/Users/rrics/Documents/!!ResearchBMECOGSCI/gnet,0,0,0,prototype4.png,no,mono,no,18,no,black,no,no,768,1189,3.5.6,legacy,xpyriment,osweb,1.3.13,0,enter,right,enter,,38971,24882,38971,,2,legacy,824,1536,24,864,24,0,0,1536,1646808145002,1024,2,48000,-16,experiment,p3sarrshacol1.png,1,odd,Win32,130,136329,133324,130,130,396702,398209,391701,137836,391701,130,,,,,,visual_patterns,0,0,0,yes,1366
undefined,undefined,undefined,undefined,white,no,Mozilla,Netscape,"5.0 (Windows NT 10.0; Win64; x64) AppleWebKit/537.36 (KHTML, like Gecko) Chrome/98.0.4758.102 Safari/537.36 OPR/84.0.4316.21 (Edition utorrent)",xpyriment,legacy,legacy,0,uniform,0,0,0,0,24,24,24,0,0,34,34,34,34,34,0,34,0,,,,,,0,,09-02-22,09-02-22,07:41:54,Wed Mar 09 2022 07:41:54 GMT+0100 (közép-európai téli idő),The main experiment item,yes,0,0,C:/Users/rrics/Documents/!!ResearchBMECOGSCI/gnet,0,0,0,prototype4.png,no,mono,no,18,no,black,no,no,768,1189,3.5.6,legacy,xpyriment,osweb,1.3.13,0,enter,right,enter,,38971,24882,38971,,2,legacy,824,1536,24,864,24,0,0,1536,1646808145002,1024,2,48000,-16,experiment,prototype1.png,1,odd,Win32,130,136329,133324,130,130,403213,404719,398213,137836,398213,130,,,,,,visual_patterns,0,0,0,yes,1366
undefined,undefined,undefined,undefined,white,no,Mozilla,Netscape,"5.0 (Windows NT 10.0; Win64; x64) AppleWebKit/537.36 (KHTML, like Gecko) Chrome/98.0.4758.102 Safari/537.36 OPR/84.0.4316.21 (Edition utorrent)",xpyriment,legacy,legacy,0,uniform,0,0,0,0,24,24,24,0,0,35,35,35,35,35,0,35,0,,,,,,0,,09-02-22,09-02-22,07:41:54,Wed Mar 09 2022 07:41:54 GMT+0100 (közép-európai téli idő),The main experiment item,yes,0,0,C:/Users/rrics/Documents/!!ResearchBMECOGSCI/gnet,0,0,0,prototype4.png,no,mono,no,18,no,black,no,no,768,1189,3.5.6,legacy,xpyriment,osweb,1.3.13,0,enter,right,enter,,38971,24882,38971,,2,legacy,824,1536,24,864,24,0,0,1536,1646808145002,1024,2,48000,-16,experiment,p4sarrshacol1.png,1,odd,Win32,130,136329,133324,130,130,409723,411229,404724,137836,404724,130,,,,,,visual_patterns,0,0,0,yes,1366
undefined,undefined,undefined,undefined,white,no,Mozilla,Netscape,"5.0 (Windows NT 10.0; Win64; x64) AppleWebKit/537.36 (KHTML, like Gecko) Chrome/98.0.4758.102 Safari/537.36 OPR/84.0.4316.21 (Edition utorrent)",xpyriment,legacy,legacy,0,uniform,0,0,0,0,24,24,24,0,0,36,36,36,36,36,0,36,0,,,,,,0,,09-02-22,09-02-22,07:41:54,Wed Mar 09 2022 07:41:54 GMT+0100 (közép-európai téli idő),The main experiment item,yes,0,0,C:/Users/rrics/Documents/!!ResearchBMECOGSCI/gnet,0,0,0,prototype4.png,no,mono,no,18,no,black,no,no,768,1189,3.5.6,legacy,xpyriment,osweb,1.3.13,0,enter,right,enter,,38971,24882,38971,,2,legacy,824,1536,24,864,24,0,0,1536,1646808145002,1024,2,48000,-16,experiment,prototype3.png,1,odd,Win32,130,136329,133324,130,130,416234,417740,411233,137836,411233,130,,,,,,visual_patterns,0,0,0,yes,1366
undefined,undefined,undefined,undefined,white,no,Mozilla,Netscape,"5.0 (Windows NT 10.0; Win64; x64) AppleWebKit/537.36 (KHTML, like Gecko) Chrome/98.0.4758.102 Safari/537.36 OPR/84.0.4316.21 (Edition utorrent)",xpyriment,legacy,legacy,0,uniform,0,0,0,0,24,24,24,0,0,37,37,37,37,37,0,37,0,,,,,,0,,09-02-22,09-02-22,07:41:54,Wed Mar 09 2022 07:41:54 GMT+0100 (közép-európai téli idő),The main experiment item,yes,0,0,C:/Users/rrics/Documents/!!ResearchBMECOGSCI/gnet,0,0,0,prototype4.png,no,mono,no,18,no,black,no,no,768,1189,3.5.6,legacy,xpyriment,osweb,1.3.13,0,enter,right,enter,,38971,24882,38971,,2,legacy,824,1536,24,864,24,0,0,1536,1646808145002,1024,2,48000,-16,experiment,prototype3.png,1,odd,Win32,130,136329,133324,130,130,422748,424251,417746,137836,417746,130,,,,,,visual_patterns,0,0,0,yes,1366
undefined,undefined,undefined,undefined,white,no,Mozilla,Netscape,"5.0 (Windows NT 10.0; Win64; x64) AppleWebKit/537.36 (KHTML, like Gecko) Chrome/98.0.4758.102 Safari/537.36 OPR/84.0.4316.21 (Edition utorrent)",xpyriment,legacy,legacy,0,uniform,0,0,0,0,24,24,24,0,0,38,38,38,38,38,0,38,0,,,,,,0,,09-02-22,09-02-22,07:41:54,Wed Mar 09 2022 07:41:54 GMT+0100 (közép-európai téli idő),The main experiment item,yes,0,0,C:/Users/rrics/Documents/!!ResearchBMECOGSCI/gnet,0,0,0,prototype4.png,no,mono,no,18,no,black,no,no,768,1189,3.5.6,legacy,xpyriment,osweb,1.3.13,0,enter,right,enter,,38971,24882,38971,,2,legacy,824,1536,24,864,24,0,0,1536,1646808145002,1024,2,48000,-16,experiment,p7sarr1.png,1,odd,Win32,130,136329,133324,130,130,429263,430770,424264,137836,424263,130,,,,,,visual_patterns,0,0,0,yes,1366
undefined,undefined,undefined,undefined,white,no,Mozilla,Netscape,"5.0 (Windows NT 10.0; Win64; x64) AppleWebKit/537.36 (KHTML, like Gecko) Chrome/98.0.4758.102 Safari/537.36 OPR/84.0.4316.21 (Edition utorrent)",xpyriment,legacy,legacy,0,uniform,0,0,0,0,24,24,24,0,0,39,39,39,39,39,0,39,0,,,,,,0,,09-02-22,09-02-22,07:41:54,Wed Mar 09 2022 07:41:54 GMT+0100 (közép-európai téli idő),The main experiment item,yes,0,0,C:/Users/rrics/Documents/!!ResearchBMECOGSCI/gnet,0,0,0,prototype4.png,no,mono,no,18,no,black,no,no,768,1189,3.5.6,legacy,xpyriment,osweb,1.3.13,0,enter,right,enter,,38971,24882,38971,,2,legacy,824,1536,24,864,24,0,0,1536,1646808145002,1024,2,48000,-16,experiment,p1sarrsha1.png,1,odd,Win32,130,136329,133324,130,130,435777,437280,430777,137836,430777,130,,,,,,visual_patterns,0,0,0,yes,1366
undefined,undefined,undefined,undefined,white,no,Mozilla,Netscape,"5.0 (Windows NT 10.0; Win64; x64) AppleWebKit/537.36 (KHTML, like Gecko) Chrome/98.0.4758.102 Safari/537.36 OPR/84.0.4316.21 (Edition utorrent)",xpyriment,legacy,legacy,0,uniform,0,0,0,0,24,24,24,0,0,40,40,40,40,40,0,40,0,,,,,,0,,09-02-22,09-02-22,07:41:54,Wed Mar 09 2022 07:41:54 GMT+0100 (közép-európai téli idő),The main experiment item,yes,0,0,C:/Users/rrics/Documents/!!ResearchBMECOGSCI/gnet,0,0,0,prototype4.png,no,mono,no,18,no,black,no,no,768,1189,3.5.6,legacy,xpyriment,osweb,1.3.13,0,enter,right,enter,,38971,24882,38971,,2,legacy,824,1536,24,864,24,0,0,1536,1646808145002,1024,2,48000,-16,experiment,prototype5.png,1,odd,Win32,130,136329,133324,130,130,442284,443791,437284,137836,437284,130,,,,,,visual_patterns,0,0,0,yes,1366
undefined,undefined,undefined,undefined,white,no,Mozilla,Netscape,"5.0 (Windows NT 10.0; Win64; x64) AppleWebKit/537.36 (KHTML, like Gecko) Chrome/98.0.4758.102 Safari/537.36 OPR/84.0.4316.21 (Edition utorrent)",xpyriment,legacy,legacy,0,uniform,0,0,0,0,24,24,24,0,0,41,41,41,41,41,0,41,0,,,,,,0,,09-02-22,09-02-22,07:41:54,Wed Mar 09 2022 07:41:54 GMT+0100 (közép-európai téli idő),The main experiment item,yes,0,0,C:/Users/rrics/Documents/!!ResearchBMECOGSCI/gnet,0,0,0,prototype4.png,no,mono,no,18,no,black,no,no,768,1189,3.5.6,legacy,xpyriment,osweb,1.3.13,0,enter,right,enter,,38971,24882,38971,,2,legacy,824,1536,24,864,24,0,0,1536,1646808145002,1024,2,48000,-16,experiment,p3sarrshacol2.png,1,odd,Win32,130,136329,133324,130,130,448800,450302,443797,137836,443797,130,,,,,,visual_patterns,0,0,0,yes,1366
undefined,undefined,undefined,undefined,white,no,Mozilla,Netscape,"5.0 (Windows NT 10.0; Win64; x64) AppleWebKit/537.36 (KHTML, like Gecko) Chrome/98.0.4758.102 Safari/537.36 OPR/84.0.4316.21 (Edition utorrent)",xpyriment,legacy,legacy,0,uniform,0,0,0,0,24,24,24,0,0,42,42,42,42,42,0,42,0,,,,,,0,,09-02-22,09-02-22,07:41:54,Wed Mar 09 2022 07:41:54 GMT+0100 (közép-európai téli idő),The main experiment item,yes,0,0,C:/Users/rrics/Documents/!!ResearchBMECOGSCI/gnet,0,0,0,prototype4.png,no,mono,no,18,no,black,no,no,768,1189,3.5.6,legacy,xpyriment,osweb,1.3.13,0,enter,right,enter,,38971,24882,38971,,2,legacy,824,1536,24,864,24,0,0,1536,1646808145002,1024,2,48000,-16,experiment,p3sarrcol2.png,1,odd,Win32,130,136329,133324,130,130,455306,456813,450307,137836,450307,130,,,,,,visual_patterns,0,0,0,yes,1366
undefined,undefined,undefined,undefined,white,no,Mozilla,Netscape,"5.0 (Windows NT 10.0; Win64; x64) AppleWebKit/537.36 (KHTML, like Gecko) Chrome/98.0.4758.102 Safari/537.36 OPR/84.0.4316.21 (Edition utorrent)",xpyriment,legacy,legacy,0,uniform,0,0,0,0,24,24,24,0,0,43,43,43,43,43,0,43,0,,,,,,0,,09-02-22,09-02-22,07:41:54,Wed Mar 09 2022 07:41:54 GMT+0100 (közép-európai téli idő),The main experiment item,yes,0,0,C:/Users/rrics/Documents/!!ResearchBMECOGSCI/gnet,0,0,0,prototype4.png,no,mono,no,18,no,black,no,no,768,1189,3.5.6,legacy,xpyriment,osweb,1.3.13,0,enter,right,enter,,38971,24882,38971,,2,legacy,824,1536,24,864,24,0,0,1536,1646808145002,1024,2,48000,-16,experiment,p3sarr2.png,1,odd,Win32,130,136329,133324,130,130,461825,463331,456825,137836,456825,130,,,,,,visual_patterns,0,0,0,yes,1366
undefined,undefined,undefined,undefined,white,no,Mozilla,Netscape,"5.0 (Windows NT 10.0; Win64; x64) AppleWebKit/537.36 (KHTML, like Gecko) Chrome/98.0.4758.102 Safari/537.36 OPR/84.0.4316.21 (Edition utorrent)",xpyriment,legacy,legacy,0,uniform,0,0,0,0,24,24,24,0,0,44,44,44,44,44,0,44,0,,,,,,0,,09-02-22,09-02-22,07:41:54,Wed Mar 09 2022 07:41:54 GMT+0100 (közép-európai téli idő),The main experiment item,yes,0,0,C:/Users/rrics/Documents/!!ResearchBMECOGSCI/gnet,0,0,0,prototype4.png,no,mono,no,18,no,black,no,no,768,1189,3.5.6,legacy,xpyriment,osweb,1.3.13,0,enter,right,enter,,38971,24882,38971,,2,legacy,824,1536,24,864,24,0,0,1536,1646808145002,1024,2,48000,-16,experiment,p2sarrsha1.png,1,odd,Win32,130,136329,133324,130,130,468336,469841,463336,137836,463336,130,,,,,,visual_patterns,0,0,0,yes,1366
undefined,undefined,undefined,undefined,white,no,Mozilla,Netscape,"5.0 (Windows NT 10.0; Win64; x64) AppleWebKit/537.36 (KHTML, like Gecko) Chrome/98.0.4758.102 Safari/537.36 OPR/84.0.4316.21 (Edition utorrent)",xpyriment,legacy,legacy,0,uniform,0,0,0,0,24,24,24,0,0,45,45,45,45,45,0,45,0,,,,,,0,,09-02-22,09-02-22,07:41:54,Wed Mar 09 2022 07:41:54 GMT+0100 (közép-európai téli idő),The main experiment item,yes,0,0,C:/Users/rrics/Documents/!!ResearchBMECOGSCI/gnet,0,0,0,prototype4.png,no,mono,no,18,no,black,no,no,768,1189,3.5.6,legacy,xpyriment,osweb,1.3.13,0,enter,right,enter,,38971,24882,38971,,2,legacy,824,1536,24,864,24,0,0,1536,1646808145002,1024,2,48000,-16,experiment,p4sarrsha1.png,1,odd,Win32,130,136329,133324,130,130,474849,476352,469847,137836,469847,130,,,,,,visual_patterns,0,0,0,yes,1366
undefined,undefined,undefined,undefined,white,no,Mozilla,Netscape,"5.0 (Windows NT 10.0; Win64; x64) AppleWebKit/537.36 (KHTML, like Gecko) Chrome/98.0.4758.102 Safari/537.36 OPR/84.0.4316.21 (Edition utorrent)",xpyriment,legacy,legacy,0,uniform,0,0,0,0,24,24,24,0,0,46,46,46,46,46,0,46,0,,,,,,0,,09-02-22,09-02-22,07:41:54,Wed Mar 09 2022 07:41:54 GMT+0100 (közép-európai téli idő),The main experiment item,yes,0,0,C:/Users/rrics/Documents/!!ResearchBMECOGSCI/gnet,0,0,0,prototype4.png,no,mono,no,18,no,black,no,no,768,1189,3.5.6,legacy,xpyriment,osweb,1.3.13,0,enter,right,enter,,38971,24882,38971,,2,legacy,824,1536,24,864,24,0,0,1536,1646808145002,1024,2,48000,-16,experiment,p1sarrcol1.png,1,odd,Win32,130,136329,133324,130,130,481362,482871,476357,137836,476357,130,,,,,,visual_patterns,0,0,0,yes,1366
undefined,undefined,undefined,undefined,white,no,Mozilla,Netscape,"5.0 (Windows NT 10.0; Win64; x64) AppleWebKit/537.36 (KHTML, like Gecko) Chrome/98.0.4758.102 Safari/537.36 OPR/84.0.4316.21 (Edition utorrent)",xpyriment,legacy,legacy,0,uniform,0,0,0,0,24,24,24,0,0,47,47,47,47,47,0,47,0,,,,,,0,,09-02-22,09-02-22,07:41:54,Wed Mar 09 2022 07:41:54 GMT+0100 (közép-európai téli idő),The main experiment item,yes,0,0,C:/Users/rrics/Documents/!!ResearchBMECOGSCI/gnet,0,0,0,prototype4.png,no,mono,no,18,no,black,no,no,768,1189,3.5.6,legacy,xpyriment,osweb,1.3.13,0,enter,right,enter,,38971,24882,38971,,2,legacy,824,1536,24,864,24,0,0,1536,1646808145002,1024,2,48000,-16,experiment,p1sarrsha2.png,1,odd,Win32,130,136329,133324,130,130,487875,489382,482876,137836,482876,130,,,,,,visual_patterns,0,0,0,yes,1366
undefined,undefined,undefined,undefined,white,no,Mozilla,Netscape,"5.0 (Windows NT 10.0; Win64; x64) AppleWebKit/537.36 (KHTML, like Gecko) Chrome/98.0.4758.102 Safari/537.36 OPR/84.0.4316.21 (Edition utorrent)",xpyriment,legacy,legacy,0,uniform,0,0,0,0,24,24,24,0,0,48,48,48,48,48,0,48,0,,,,,,0,,09-02-22,09-02-22,07:41:54,Wed Mar 09 2022 07:41:54 GMT+0100 (közép-európai téli idő),The main experiment item,yes,0,0,C:/Users/rrics/Documents/!!ResearchBMECOGSCI/gnet,0,0,0,prototype4.png,no,mono,no,18,no,black,no,no,768,1189,3.5.6,legacy,xpyriment,osweb,1.3.13,0,enter,right,enter,,38971,24882,38971,,2,legacy,824,1536,24,864,24,0,0,1536,1646808145002,1024,2,48000,-16,experiment,p7sarr2.png,1,odd,Win32,130,136329,133324,130,130,494392,495901,489394,137836,489394,130,,,,,,visual_patterns,0,0,0,yes,1366
undefined,undefined,undefined,undefined,white,no,Mozilla,Netscape,"5.0 (Windows NT 10.0; Win64; x64) AppleWebKit/537.36 (KHTML, like Gecko) Chrome/98.0.4758.102 Safari/537.36 OPR/84.0.4316.21 (Edition utorrent)",xpyriment,legacy,legacy,0,uniform,0,0,0,0,24,24,24,0,0,49,49,49,49,49,0,49,0,,,,,,0,,09-02-22,09-02-22,07:41:54,Wed Mar 09 2022 07:41:54 GMT+0100 (közép-európai téli idő),The main experiment item,yes,0,0,C:/Users/rrics/Documents/!!ResearchBMECOGSCI/gnet,0,0,0,prototype4.png,no,mono,no,18,no,black,no,no,768,1189,3.5.6,legacy,xpyriment,osweb,1.3.13,0,enter,right,enter,,38971,24882,38971,,2,legacy,824,1536,24,864,24,0,0,1536,1646808145002,1024,2,48000,-16,experiment,p4sarr1.png,1,odd,Win32,130,136329,133324,130,130,500907,502412,495907,137836,495907,130,,,,,,visual_patterns,0,0,0,yes,1366
undefined,undefined,undefined,undefined,white,no,Mozilla,Netscape,"5.0 (Windows NT 10.0; Win64; x64) AppleWebKit/537.36 (KHTML, like Gecko) Chrome/98.0.4758.102 Safari/537.36 OPR/84.0.4316.21 (Edition utorrent)",xpyriment,legacy,legacy,0,uniform,0,0,0,0,24,24,24,0,0,50,50,50,50,50,0,50,0,,,,,,0,,09-02-22,09-02-22,07:41:54,Wed Mar 09 2022 07:41:54 GMT+0100 (közép-európai téli idő),The main experiment item,yes,0,0,C:/Users/rrics/Documents/!!ResearchBMECOGSCI/gnet,0,0,0,prototype4.png,no,mono,no,18,no,black,no,no,768,1189,3.5.6,legacy,xpyriment,osweb,1.3.13,0,enter,right,enter,,38971,24882,38971,,2,legacy,824,1536,24,864,24,0,0,1536,1646808145002,1024,2,48000,-16,experiment,p10sarr1.png,1,odd,Win32,130,136329,133324,130,130,507418,508922,502417,137836,502417,130,,,,,,visual_patterns,0,0,0,yes,1366
undefined,undefined,undefined,undefined,white,no,Mozilla,Netscape,"5.0 (Windows NT 10.0; Win64; x64) AppleWebKit/537.36 (KHTML, like Gecko) Chrome/98.0.4758.102 Safari/537.36 OPR/84.0.4316.21 (Edition utorrent)",xpyriment,legacy,legacy,0,uniform,0,0,0,0,24,24,24,0,0,51,51,51,51,51,0,51,0,,,,,,0,,09-02-22,09-02-22,07:41:54,Wed Mar 09 2022 07:41:54 GMT+0100 (közép-európai téli idő),The main experiment item,yes,0,0,C:/Users/rrics/Documents/!!ResearchBMECOGSCI/gnet,0,0,0,prototype4.png,no,mono,no,18,no,black,no,no,768,1189,3.5.6,legacy,xpyriment,osweb,1.3.13,0,enter,right,enter,,38971,24882,38971,,2,legacy,824,1536,24,864,24,0,0,1536,1646808145002,1024,2,48000,-16,experiment,prototype3.png,1,odd,Win32,130,136329,133324,130,130,513926,515434,508926,137836,508926,130,,,,,,visual_patterns,0,0,0,yes,1366
undefined,undefined,undefined,undefined,white,no,Mozilla,Netscape,"5.0 (Windows NT 10.0; Win64; x64) AppleWebKit/537.36 (KHTML, like Gecko) Chrome/98.0.4758.102 Safari/537.36 OPR/84.0.4316.21 (Edition utorrent)",xpyriment,legacy,legacy,0,uniform,0,0,0,0,24,24,24,0,0,52,52,52,52,52,0,52,0,,,,,,0,,09-02-22,09-02-22,07:41:54,Wed Mar 09 2022 07:41:54 GMT+0100 (közép-európai téli idő),The main experiment item,yes,0,0,C:/Users/rrics/Documents/!!ResearchBMECOGSCI/gnet,0,0,0,prototype4.png,no,mono,no,18,no,black,no,no,768,1189,3.5.6,legacy,xpyriment,osweb,1.3.13,0,enter,right,enter,,38971,24882,38971,,2,legacy,824,1536,24,864,24,0,0,1536,1646808145002,1024,2,48000,-16,experiment,p1sarr1.png,1,odd,Win32,130,136329,133324,130,130,520441,521943,515439,137836,515439,130,,,,,,visual_patterns,0,0,0,yes,1366
undefined,undefined,undefined,undefined,white,no,Mozilla,Netscape,"5.0 (Windows NT 10.0; Win64; x64) AppleWebKit/537.36 (KHTML, like Gecko) Chrome/98.0.4758.102 Safari/537.36 OPR/84.0.4316.21 (Edition utorrent)",xpyriment,legacy,legacy,0,uniform,0,0,0,0,24,24,24,0,0,53,53,53,53,53,0,53,0,,,,,,0,,09-02-22,09-02-22,07:41:54,Wed Mar 09 2022 07:41:54 GMT+0100 (közép-európai téli idő),The main experiment item,yes,0,0,C:/Users/rrics/Documents/!!ResearchBMECOGSCI/gnet,0,0,0,prototype4.png,no,mono,no,18,no,black,no,no,768,1189,3.5.6,legacy,xpyriment,osweb,1.3.13,0,enter,right,enter,,38971,24882,38971,,2,legacy,824,1536,24,864,24,0,0,1536,1646808145002,1024,2,48000,-16,experiment,p1sarrcol2.png,1,odd,Win32,130,136329,133324,130,130,526955,528462,521955,137836,521955,130,,,,,,visual_patterns,0,0,0,yes,1366
undefined,undefined,undefined,undefined,white,no,Mozilla,Netscape,"5.0 (Windows NT 10.0; Win64; x64) AppleWebKit/537.36 (KHTML, like Gecko) Chrome/98.0.4758.102 Safari/537.36 OPR/84.0.4316.21 (Edition utorrent)",xpyriment,legacy,legacy,0,uniform,0,0,0,0,24,24,24,0,0,54,54,54,54,54,0,54,0,,,,,,0,,09-02-22,09-02-22,07:41:54,Wed Mar 09 2022 07:41:54 GMT+0100 (közép-európai téli idő),The main experiment item,yes,0,0,C:/Users/rrics/Documents/!!ResearchBMECOGSCI/gnet,0,0,0,prototype4.png,no,mono,no,18,no,black,no,no,768,1189,3.5.6,legacy,xpyriment,osweb,1.3.13,0,enter,right,enter,,38971,24882,38971,,2,legacy,824,1536,24,864,24,0,0,1536,1646808145002,1024,2,48000,-16,experiment,p2sarrcol2.png,1,odd,Win32,130,136329,133324,130,130,533470,534973,528467,137836,528467,130,,,,,,visual_patterns,0,0,0,yes,1366
undefined,undefined,undefined,undefined,white,no,Mozilla,Netscape,"5.0 (Windows NT 10.0; Win64; x64) AppleWebKit/537.36 (KHTML, like Gecko) Chrome/98.0.4758.102 Safari/537.36 OPR/84.0.4316.21 (Edition utorrent)",xpyriment,legacy,legacy,0,uniform,0,0,0,0,24,24,24,0,0,55,55,55,55,55,0,55,0,,,,,,0,,09-02-22,09-02-22,07:41:54,Wed Mar 09 2022 07:41:54 GMT+0100 (közép-európai téli idő),The main experiment item,yes,0,0,C:/Users/rrics/Documents/!!ResearchBMECOGSCI/gnet,0,0,0,prototype4.png,no,mono,no,18,no,black,no,no,768,1189,3.5.6,legacy,xpyriment,osweb,1.3.13,0,enter,right,enter,,38971,24882,38971,,2,legacy,824,1536,24,864,24,0,0,1536,1646808145002,1024,2,48000,-16,experiment,prototype4.png,1,odd,Win32,130,136329,133324,130,130,539981,541484,534977,137836,534977,130,,,,,,visual_patterns,0,0,0,yes,1366
undefined,undefined,undefined,undefined,white,no,Mozilla,Netscape,"5.0 (Windows NT 10.0; Win64; x64) AppleWebKit/537.36 (KHTML, like Gecko) Chrome/98.0.4758.102 Safari/537.36 OPR/84.0.4316.21 (Edition utorrent)",xpyriment,legacy,legacy,0,uniform,0,0,0,0,24,24,24,0,0,56,56,56,56,56,0,56,0,,,,,,0,,09-02-22,09-02-22,07:41:54,Wed Mar 09 2022 07:41:54 GMT+0100 (közép-európai téli idő),The main experiment item,yes,0,0,C:/Users/rrics/Documents/!!ResearchBMECOGSCI/gnet,0,0,0,prototype4.png,no,mono,no,18,no,black,no,no,768,1189,3.5.6,legacy,xpyriment,osweb,1.3.13,0,enter,right,enter,,38971,24882,38971,,2,legacy,824,1536,24,864,24,0,0,1536,1646808145002,1024,2,48000,-16,experiment,p2sarrshacol1.png,1,odd,Win32,130,136329,133324,130,130,546490,547994,541489,137836,541489,130,,,,,,visual_patterns,0,0,0,yes,1366
undefined,undefined,undefined,undefined,white,no,Mozilla,Netscape,"5.0 (Windows NT 10.0; Win64; x64) AppleWebKit/537.36 (KHTML, like Gecko) Chrome/98.0.4758.102 Safari/537.36 OPR/84.0.4316.21 (Edition utorrent)",xpyriment,legacy,legacy,0,uniform,0,0,0,0,24,24,24,0,0,57,57,57,57,57,0,57,0,,,,,,0,,09-02-22,09-02-22,07:41:54,Wed Mar 09 2022 07:41:54 GMT+0100 (közép-európai téli idő),The main experiment item,yes,0,0,C:/Users/rrics/Documents/!!ResearchBMECOGSCI/gnet,0,0,0,prototype4.png,no,mono,no,18,no,black,no,no,768,1189,3.5.6,legacy,xpyriment,osweb,1.3.13,0,enter,right,enter,,38971,24882,38971,,2,legacy,824,1536,24,864,24,0,0,1536,1646808145002,1024,2,48000,-16,experiment,prototype5.png,1,odd,Win32,130,136329,133324,130,130,553006,554513,547998,137836,547998,130,,,,,,visual_patterns,0,0,0,yes,1366
undefined,undefined,undefined,undefined,white,no,Mozilla,Netscape,"5.0 (Windows NT 10.0; Win64; x64) AppleWebKit/537.36 (KHTML, like Gecko) Chrome/98.0.4758.102 Safari/537.36 OPR/84.0.4316.21 (Edition utorrent)",xpyriment,legacy,legacy,0,uniform,0,0,0,0,24,24,24,0,0,58,58,58,58,58,0,58,0,,,,,,0,,09-02-22,09-02-22,07:41:54,Wed Mar 09 2022 07:41:54 GMT+0100 (közép-európai téli idő),The main experiment item,yes,0,0,C:/Users/rrics/Documents/!!ResearchBMECOGSCI/gnet,0,0,0,prototype4.png,no,mono,no,18,no,black,no,no,768,1189,3.5.6,legacy,xpyriment,osweb,1.3.13,0,enter,right,enter,,38971,24882,38971,,2,legacy,824,1536,24,864,24,0,0,1536,1646808145002,1024,2,48000,-16,experiment,prototype2.png,1,odd,Win32,130,136329,133324,130,130,559525,561031,554523,137836,554523,130,,,,,,visual_patterns,0,0,0,yes,1366
undefined,undefined,undefined,undefined,white,no,Mozilla,Netscape,"5.0 (Windows NT 10.0; Win64; x64) AppleWebKit/537.36 (KHTML, like Gecko) Chrome/98.0.4758.102 Safari/537.36 OPR/84.0.4316.21 (Edition utorrent)",xpyriment,legacy,legacy,0,uniform,0,0,0,0,24,24,24,0,0,59,59,59,59,59,0,59,0,,,,,,0,,09-02-22,09-02-22,07:41:54,Wed Mar 09 2022 07:41:54 GMT+0100 (közép-európai téli idő),The main experiment item,yes,0,0,C:/Users/rrics/Documents/!!ResearchBMECOGSCI/gnet,0,0,0,prototype4.png,no,mono,no,18,no,black,no,no,768,1189,3.5.6,legacy,xpyriment,osweb,1.3.13,0,enter,right,enter,,38971,24882,38971,,2,legacy,824,1536,24,864,24,0,0,1536,1646808145002,1024,2,48000,-16,experiment,prototype5.png,1,odd,Win32,130,136329,133324,130,130,566040,567542,561037,137836,561037,130,,,,,,visual_patterns,0,0,0,yes,1366
undefined,undefined,undefined,undefined,white,no,Mozilla,Netscape,"5.0 (Windows NT 10.0; Win64; x64) AppleWebKit/537.36 (KHTML, like Gecko) Chrome/98.0.4758.102 Safari/537.36 OPR/84.0.4316.21 (Edition utorrent)",xpyriment,legacy,legacy,0,uniform,0,0,0,0,24,24,24,0,0,60,60,60,60,60,0,60,0,,,,,,0,,09-02-22,09-02-22,07:41:54,Wed Mar 09 2022 07:41:54 GMT+0100 (közép-európai téli idő),The main experiment item,yes,0,0,C:/Users/rrics/Documents/!!ResearchBMECOGSCI/gnet,0,0,0,prototype4.png,no,mono,no,18,no,black,no,no,768,1189,3.5.6,legacy,xpyriment,osweb,1.3.13,0,enter,right,enter,,38971,24882,38971,,2,legacy,824,1536,24,864,24,0,0,1536,1646808145002,1024,2,48000,-16,experiment,p1sarrshacol2.png,1,odd,Win32,130,136329,133324,130,130,572552,574053,567549,137836,567549,130,,,,,,visual_patterns,0,0,0,yes,1366
undefined,undefined,undefined,undefined,white,no,Mozilla,Netscape,"5.0 (Windows NT 10.0; Win64; x64) AppleWebKit/537.36 (KHTML, like Gecko) Chrome/98.0.4758.102 Safari/537.36 OPR/84.0.4316.21 (Edition utorrent)",xpyriment,legacy,legacy,0,uniform,0,0,0,0,24,24,24,0,0,61,61,61,61,61,0,61,0,,,,,,0,,09-02-22,09-02-22,07:41:54,Wed Mar 09 2022 07:41:54 GMT+0100 (közép-európai téli idő),The main experiment item,yes,0,0,C:/Users/rrics/Documents/!!ResearchBMECOGSCI/gnet,0,0,0,prototype4.png,no,mono,no,18,no,black,no,no,768,1189,3.5.6,legacy,xpyriment,osweb,1.3.13,0,enter,right,enter,,38971,24882,38971,,2,legacy,824,1536,24,864,24,0,0,1536,1646808145002,1024,2,48000,-16,experiment,p2sarrcol1.png,1,odd,Win32,130,136329,133324,130,130,579061,580564,574058,137836,574058,130,,,,,,visual_patterns,0,0,0,yes,1366
undefined,undefined,undefined,undefined,white,no,Mozilla,Netscape,"5.0 (Windows NT 10.0; Win64; x64) AppleWebKit/537.36 (KHTML, like Gecko) Chrome/98.0.4758.102 Safari/537.36 OPR/84.0.4316.21 (Edition utorrent)",xpyriment,legacy,legacy,0,uniform,0,0,0,0,24,24,24,0,0,62,62,62,62,62,0,62,0,,,,,,0,,09-02-22,09-02-22,07:41:54,Wed Mar 09 2022 07:41:54 GMT+0100 (közép-európai téli idő),The main experiment item,yes,0,0,C:/Users/rrics/Documents/!!ResearchBMECOGSCI/gnet,0,0,0,prototype4.png,no,mono,no,18,no,black,no,no,768,1189,3.5.6,legacy,xpyriment,osweb,1.3.13,0,enter,right,enter,,38971,24882,38971,,2,legacy,824,1536,24,864,24,0,0,1536,1646808145002,1024,2,48000,-16,experiment,p5sarr2.png,1,odd,Win32,130,136329,133324,130,130,585571,587074,580570,137836,580570,130,,,,,,visual_patterns,0,0,0,yes,1366
undefined,undefined,undefined,undefined,white,no,Mozilla,Netscape,"5.0 (Windows NT 10.0; Win64; x64) AppleWebKit/537.36 (KHTML, like Gecko) Chrome/98.0.4758.102 Safari/537.36 OPR/84.0.4316.21 (Edition utorrent)",xpyriment,legacy,legacy,0,uniform,0,0,0,0,24,24,24,0,0,63,63,63,63,63,0,63,0,,,,,,0,,09-02-22,09-02-22,07:41:54,Wed Mar 09 2022 07:41:54 GMT+0100 (közép-európai téli idő),The main experiment item,yes,0,0,C:/Users/rrics/Documents/!!ResearchBMECOGSCI/gnet,0,0,0,prototype4.png,no,mono,no,18,no,black,no,no,768,1189,3.5.6,legacy,xpyriment,osweb,1.3.13,0,enter,right,enter,,38971,24882,38971,,2,legacy,824,1536,24,864,24,0,0,1536,1646808145002,1024,2,48000,-16,experiment,p10sarr2.png,1,odd,Win32,130,136329,133324,130,130,592087,593593,587086,137836,587086,130,,,,,,visual_patterns,0,0,0,yes,1366
undefined,undefined,undefined,undefined,white,no,Mozilla,Netscape,"5.0 (Windows NT 10.0; Win64; x64) AppleWebKit/537.36 (KHTML, like Gecko) Chrome/98.0.4758.102 Safari/537.36 OPR/84.0.4316.21 (Edition utorrent)",xpyriment,legacy,legacy,0,uniform,0,0,0,0,24,24,24,0,0,64,64,64,64,64,0,64,0,,,,,,0,,09-02-22,09-02-22,07:41:54,Wed Mar 09 2022 07:41:54 GMT+0100 (közép-európai téli idő),The main experiment item,yes,0,0,C:/Users/rrics/Documents/!!ResearchBMECOGSCI/gnet,0,0,0,prototype4.png,no,mono,no,18,no,black,no,no,768,1189,3.5.6,legacy,xpyriment,osweb,1.3.13,0,enter,right,enter,,38971,24882,38971,,2,legacy,824,1536,24,864,24,0,0,1536,1646808145002,1024,2,48000,-16,experiment,prototype1.png,1,odd,Win32,130,136329,133324,130,130,598601,600103,593597,137836,593597,130,,,,,,visual_patterns,0,0,0,yes,1366
undefined,undefined,undefined,undefined,white,no,Mozilla,Netscape,"5.0 (Windows NT 10.0; Win64; x64) AppleWebKit/537.36 (KHTML, like Gecko) Chrome/98.0.4758.102 Safari/537.36 OPR/84.0.4316.21 (Edition utorrent)",xpyriment,legacy,legacy,0,uniform,0,0,0,0,24,24,24,0,0,65,65,65,65,65,0,65,0,,,,,,0,,09-02-22,09-02-22,07:41:54,Wed Mar 09 2022 07:41:54 GMT+0100 (közép-európai téli idő),The main experiment item,yes,0,0,C:/Users/rrics/Documents/!!ResearchBMECOGSCI/gnet,0,0,0,prototype4.png,no,mono,no,18,no,black,no,no,768,1189,3.5.6,legacy,xpyriment,osweb,1.3.13,0,enter,right,enter,,38971,24882,38971,,2,legacy,824,1536,24,864,24,0,0,1536,1646808145002,1024,2,48000,-16,experiment,prototype4.png,1,odd,Win32,130,136329,133324,130,130,605108,606614,600107,137836,600107,130,,,,,,visual_patterns,0,0,0,yes,1366
undefined,undefined,undefined,undefined,white,no,Mozilla,Netscape,"5.0 (Windows NT 10.0; Win64; x64) AppleWebKit/537.36 (KHTML, like Gecko) Chrome/98.0.4758.102 Safari/537.36 OPR/84.0.4316.21 (Edition utorrent)",xpyriment,legacy,legacy,0,uniform,0,0,0,0,24,24,24,0,0,66,66,66,66,66,0,66,0,,,,,,0,,09-02-22,09-02-22,07:41:54,Wed Mar 09 2022 07:41:54 GMT+0100 (közép-európai téli idő),The main experiment item,yes,0,0,C:/Users/rrics/Documents/!!ResearchBMECOGSCI/gnet,0,0,0,prototype4.png,no,mono,no,18,no,black,no,no,768,1189,3.5.6,legacy,xpyriment,osweb,1.3.13,0,enter,right,enter,,38971,24882,38971,,2,legacy,824,1536,24,864,24,0,0,1536,1646808145002,1024,2,48000,-16,experiment,p2sarrshacol2.png,1,odd,Win32,130,136329,133324,130,130,611630,613133,606622,137836,606622,130,,,,,,visual_patterns,0,0,0,yes,1366
undefined,undefined,undefined,undefined,white,no,Mozilla,Netscape,"5.0 (Windows NT 10.0; Win64; x64) AppleWebKit/537.36 (KHTML, like Gecko) Chrome/98.0.4758.102 Safari/537.36 OPR/84.0.4316.21 (Edition utorrent)",xpyriment,legacy,legacy,0,uniform,0,0,0,0,24,24,24,0,0,67,67,67,67,67,0,67,0,,,,,,0,,09-02-22,09-02-22,07:41:54,Wed Mar 09 2022 07:41:54 GMT+0100 (közép-európai téli idő),The main experiment item,yes,0,0,C:/Users/rrics/Documents/!!ResearchBMECOGSCI/gnet,0,0,0,prototype4.png,no,mono,no,18,no,black,no,no,768,1189,3.5.6,legacy,xpyriment,osweb,1.3.13,0,enter,right,enter,,38971,24882,38971,,2,legacy,824,1536,24,864,24,0,0,1536,1646808145002,1024,2,48000,-16,experiment,p1sarr2.png,1,odd,Win32,130,136329,133324,130,130,618142,619643,613140,137836,613140,130,,,,,,visual_patterns,0,0,0,yes,1366
undefined,undefined,undefined,undefined,white,no,Mozilla,Netscape,"5.0 (Windows NT 10.0; Win64; x64) AppleWebKit/537.36 (KHTML, like Gecko) Chrome/98.0.4758.102 Safari/537.36 OPR/84.0.4316.21 (Edition utorrent)",xpyriment,legacy,legacy,0,uniform,0,0,0,0,24,24,24,0,0,68,68,68,68,68,0,68,0,,,,,,0,,09-02-22,09-02-22,07:41:54,Wed Mar 09 2022 07:41:54 GMT+0100 (közép-európai téli idő),The main experiment item,yes,0,0,C:/Users/rrics/Documents/!!ResearchBMECOGSCI/gnet,0,0,0,prototype4.png,no,mono,no,18,no,black,no,no,768,1189,3.5.6,legacy,xpyriment,osweb,1.3.13,0,enter,right,enter,,38971,24882,38971,,2,legacy,824,1536,24,864,24,0,0,1536,1646808145002,1024,2,48000,-16,experiment,p6sarr2.png,1,odd,Win32,130,136329,133324,130,130,624659,626162,619656,137836,619656,130,,,,,,visual_patterns,0,0,0,yes,1366
undefined,undefined,undefined,undefined,white,no,Mozilla,Netscape,"5.0 (Windows NT 10.0; Win64; x64) AppleWebKit/537.36 (KHTML, like Gecko) Chrome/98.0.4758.102 Safari/537.36 OPR/84.0.4316.21 (Edition utorrent)",xpyriment,legacy,legacy,0,uniform,0,0,0,0,24,24,24,0,0,69,69,69,69,69,0,69,0,,,,,,0,,09-02-22,09-02-22,07:41:54,Wed Mar 09 2022 07:41:54 GMT+0100 (közép-európai téli idő),The main experiment item,yes,0,0,C:/Users/rrics/Documents/!!ResearchBMECOGSCI/gnet,0,0,0,prototype4.png,no,mono,no,18,no,black,no,no,768,1189,3.5.6,legacy,xpyriment,osweb,1.3.13,0,enter,right,enter,,38971,24882,38971,,2,legacy,824,1536,24,864,24,0,0,1536,1646808145002,1024,2,48000,-16,experiment,prototype2.png,1,odd,Win32,130,136329,133324,130,130,631174,632685,626166,137836,626166,130,,,,,,visual_patterns,0,0,0,yes,1366
undefined,undefined,undefined,undefined,white,no,Mozilla,Netscape,"5.0 (Windows NT 10.0; Win64; x64) AppleWebKit/537.36 (KHTML, like Gecko) Chrome/98.0.4758.102 Safari/537.36 OPR/84.0.4316.21 (Edition utorrent)",xpyriment,legacy,legacy,0,uniform,0,0,0,0,24,24,24,0,0,70,70,70,70,70,0,70,0,,,,,,0,,09-02-22,09-02-22,07:41:54,Wed Mar 09 2022 07:41:54 GMT+0100 (közép-európai téli idő),The main experiment item,yes,0,0,C:/Users/rrics/Documents/!!ResearchBMECOGSCI/gnet,0,0,0,prototype4.png,no,mono,no,18,no,black,no,no,768,1189,3.5.6,legacy,xpyriment,osweb,1.3.13,0,enter,right,enter,,38971,24882,38971,,2,legacy,824,1536,24,864,24,0,0,1536,1646808145002,1024,2,48000,-16,experiment,p1sarrshacol1.png,1,odd,Win32,130,136329,133324,130,130,637693,639202,632691,137836,632691,130,,,,,,visual_patterns,0,0,0,yes,1366
undefined,undefined,undefined,undefined,white,no,Mozilla,Netscape,"5.0 (Windows NT 10.0; Win64; x64) AppleWebKit/537.36 (KHTML, like Gecko) Chrome/98.0.4758.102 Safari/537.36 OPR/84.0.4316.21 (Edition utorrent)",xpyriment,legacy,legacy,0,uniform,0,0,0,0,24,24,24,0,0,71,71,71,71,71,0,71,0,,,,,,0,,09-02-22,09-02-22,07:41:54,Wed Mar 09 2022 07:41:54 GMT+0100 (közép-európai téli idő),The main experiment item,yes,0,0,C:/Users/rrics/Documents/!!ResearchBMECOGSCI/gnet,0,0,0,prototype4.png,no,mono,no,18,no,black,no,no,768,1189,3.5.6,legacy,xpyriment,osweb,1.3.13,0,enter,right,enter,,38971,24882,38971,,2,legacy,824,1536,24,864,24,0,0,1536,1646808145002,1024,2,48000,-16,experiment,prototype1.png,1,odd,Win32,130,136329,133324,130,130,644209,645711,639206,137836,639206,130,,,,,,visual_patterns,0,0,0,yes,1366
undefined,undefined,undefined,undefined,white,no,Mozilla,Netscape,"5.0 (Windows NT 10.0; Win64; x64) AppleWebKit/537.36 (KHTML, like Gecko) Chrome/98.0.4758.102 Safari/537.36 OPR/84.0.4316.21 (Edition utorrent)",xpyriment,legacy,legacy,0,uniform,0,0,0,0,24,24,24,0,0,72,72,72,72,72,0,72,0,,,,,,0,,09-02-22,09-02-22,07:41:54,Wed Mar 09 2022 07:41:54 GMT+0100 (közép-európai téli idő),The main experiment item,yes,0,0,C:/Users/rrics/Documents/!!ResearchBMECOGSCI/gnet,0,0,0,prototype4.png,no,mono,no,18,no,black,no,no,768,1189,3.5.6,legacy,xpyriment,osweb,1.3.13,0,enter,right,enter,,38971,24882,38971,,2,legacy,824,1536,24,864,24,0,0,1536,1646808145002,1024,2,48000,-16,experiment,prototype5.png,1,odd,Win32,130,136329,133324,130,130,650715,652217,645715,137836,645715,130,,,,,,visual_patterns,0,0,0,yes,1366
undefined,undefined,undefined,undefined,white,no,Mozilla,Netscape,"5.0 (Windows NT 10.0; Win64; x64) AppleWebKit/537.36 (KHTML, like Gecko) Chrome/98.0.4758.102 Safari/537.36 OPR/84.0.4316.21 (Edition utorrent)",xpyriment,legacy,legacy,0,uniform,0,0,0,0,24,24,24,0,0,73,73,73,73,73,0,73,0,,,,,,0,,09-02-22,09-02-22,07:41:54,Wed Mar 09 2022 07:41:54 GMT+0100 (közép-európai téli idő),The main experiment item,yes,0,0,C:/Users/rrics/Documents/!!ResearchBMECOGSCI/gnet,0,0,0,prototype4.png,no,mono,no,18,no,black,no,no,768,1189,3.5.6,legacy,xpyriment,osweb,1.3.13,0,enter,right,enter,,38971,24882,38971,,2,legacy,824,1536,24,864,24,0,0,1536,1646808145002,1024,2,48000,-16,experiment,prototype3.png,1,odd,Win32,130,136329,133324,130,130,657222,658723,652221,137836,652221,130,,,,,,visual_patterns,0,0,0,yes,1366
undefined,undefined,undefined,undefined,white,no,Mozilla,Netscape,"5.0 (Windows NT 10.0; Win64; x64) AppleWebKit/537.36 (KHTML, like Gecko) Chrome/98.0.4758.102 Safari/537.36 OPR/84.0.4316.21 (Edition utorrent)",xpyriment,legacy,legacy,0,uniform,0,0,0,0,24,24,24,0,0,74,74,74,74,74,0,74,0,,,,,,0,,09-02-22,09-02-22,07:41:54,Wed Mar 09 2022 07:41:54 GMT+0100 (közép-európai téli idő),The main experiment item,yes,0,0,C:/Users/rrics/Documents/!!ResearchBMECOGSCI/gnet,0,0,0,prototype4.png,no,mono,no,18,no,black,no,no,768,1189,3.5.6,legacy,xpyriment,osweb,1.3.13,0,enter,right,enter,,38971,24882,38971,,2,legacy,824,1536,24,864,24,0,0,1536,1646808145002,1024,2,48000,-16,experiment,prototype2.png,1,odd,Win32,130,136329,133324,130,130,663732,665234,658729,137836,658729,130,,,,,,visual_patterns,0,0,0,yes,1366
undefined,undefined,undefined,undefined,white,no,Mozilla,Netscape,"5.0 (Windows NT 10.0; Win64; x64) AppleWebKit/537.36 (KHTML, like Gecko) Chrome/98.0.4758.102 Safari/537.36 OPR/84.0.4316.21 (Edition utorrent)",xpyriment,legacy,legacy,0,uniform,0,0,0,0,24,24,24,0,0,74,74,74,74,74,0,74,0,0,0,0,0,0,0,0,09-02-22,09-02-22,07:41:54,Wed Mar 09 2022 07:41:54 GMT+0100 (közép-európai téli idő),The main experiment item,yes,0,0,C:/Users/rrics/Documents/!!ResearchBMECOGSCI/gnet,0,0,0,prototype4.png,no,mono,no,18,no,black,no,no,768,1189,3.5.6,legacy,xpyriment,osweb,1.3.13,0,right,right,enter,right,21529,24882,38971,21529,2,legacy,824,1536,24,864,24,0,0,1536,1646808145002,1024,2,48000,-16,experiment,p5sarrsha3.png,1,odd,Win32,130,136329,133324,130,130,663732,665234,658729,137836,658729,130,689792,691294,686787,665236,686787,visual_patterns,0,0,0,yes,1366
undefined,undefined,undefined,undefined,white,no,Mozilla,Netscape,"5.0 (Windows NT 10.0; Win64; x64) AppleWebKit/537.36 (KHTML, like Gecko) Chrome/98.0.4758.102 Safari/537.36 OPR/84.0.4316.21 (Edition utorrent)",xpyriment,legacy,legacy,0,uniform,0,0,0,0,24,24,24,0,0,74,74,74,74,74,0,74,0,1,1,1,1,1,0,1,09-02-22,09-02-22,07:41:54,Wed Mar 09 2022 07:41:54 GMT+0100 (közép-európai téli idő),The main experiment item,yes,0,0,C:/Users/rrics/Documents/!!ResearchBMECOGSCI/gnet,0,0,0,prototype4.png,no,mono,no,18,no,black,no,no,768,1189,3.5.6,legacy,xpyriment,osweb,1.3.13,0,right,right,enter,right,21529,24882,38971,21529,2,legacy,824,1536,24,864,24,0,0,1536,1646808145002,1024,2,48000,-16,experiment,p2sarrshacol1.png,1,odd,Win32,130,136329,133324,130,130,663732,665234,658729,137836,658729,130,694303,695806,691300,665236,691300,visual_patterns,0,0,0,yes,1366
undefined,undefined,undefined,undefined,white,no,Mozilla,Netscape,"5.0 (Windows NT 10.0; Win64; x64) AppleWebKit/537.36 (KHTML, like Gecko) Chrome/98.0.4758.102 Safari/537.36 OPR/84.0.4316.21 (Edition utorrent)",xpyriment,legacy,legacy,0,uniform,0,0,0,0,24,24,24,0,0,74,74,74,74,74,0,74,0,2,2,2,2,2,0,2,09-02-22,09-02-22,07:41:54,Wed Mar 09 2022 07:41:54 GMT+0100 (közép-európai téli idő),The main experiment item,yes,0,0,C:/Users/rrics/Documents/!!ResearchBMECOGSCI/gnet,0,0,0,prototype4.png,no,mono,no,18,no,black,no,no,768,1189,3.5.6,legacy,xpyriment,osweb,1.3.13,0,right,right,enter,right,21529,24882,38971,21529,2,legacy,824,1536,24,864,24,0,0,1536,1646808145002,1024,2,48000,-16,experiment,p4sarr4.png,1,odd,Win32,130,136329,133324,130,130,663732,665234,658729,137836,658729,130,698816,700319,695813,665236,695813,visual_patterns,0,0,0,yes,1366
undefined,undefined,undefined,undefined,white,no,Mozilla,Netscape,"5.0 (Windows NT 10.0; Win64; x64) AppleWebKit/537.36 (KHTML, like Gecko) Chrome/98.0.4758.102 Safari/537.36 OPR/84.0.4316.21 (Edition utorrent)",xpyriment,legacy,legacy,0,uniform,0,0,0,0,24,24,24,0,0,74,74,74,74,74,0,74,0,3,3,3,3,3,0,3,09-02-22,09-02-22,07:41:54,Wed Mar 09 2022 07:41:54 GMT+0100 (közép-európai téli idő),The main experiment item,yes,0,0,C:/Users/rrics/Documents/!!ResearchBMECOGSCI/gnet,0,0,0,prototype4.png,no,mono,no,18,no,black,no,no,768,1189,3.5.6,legacy,xpyriment,osweb,1.3.13,0,right,right,enter,right,21529,24882,38971,21529,2,legacy,824,1536,24,864,24,0,0,1536,1646808145002,1024,2,48000,-16,experiment,p5sarrsha2.png,1,odd,Win32,130,136329,133324,130,130,663732,665234,658729,137836,658729,130,703332,704839,700333,665236,700333,visual_patterns,0,0,0,yes,1366
undefined,undefined,undefined,undefined,white,no,Mozilla,Netscape,"5.0 (Windows NT 10.0; Win64; x64) AppleWebKit/537.36 (KHTML, like Gecko) Chrome/98.0.4758.102 Safari/537.36 OPR/84.0.4316.21 (Edition utorrent)",xpyriment,legacy,legacy,0,uniform,0,0,0,0,24,24,24,0,0,74,74,74,74,74,0,74,0,4,4,4,4,4,0,4,09-02-22,09-02-22,07:41:54,Wed Mar 09 2022 07:41:54 GMT+0100 (közép-európai téli idő),The main experiment item,yes,0,0,C:/Users/rrics/Documents/!!ResearchBMECOGSCI/gnet,0,0,0,prototype4.png,no,mono,no,18,no,black,no,no,768,1189,3.5.6,legacy,xpyriment,osweb,1.3.13,0,right,right,enter,right,21529,24882,38971,21529,2,legacy,824,1536,24,864,24,0,0,1536,1646808145002,1024,2,48000,-16,experiment,p7sarr2.png,1,odd,Win32,130,136329,133324,130,130,663732,665234,658729,137836,658729,130,707845,709351,704844,665236,704844,visual_patterns,0,0,0,yes,1366
undefined,undefined,undefined,undefined,white,no,Mozilla,Netscape,"5.0 (Windows NT 10.0; Win64; x64) AppleWebKit/537.36 (KHTML, like Gecko) Chrome/98.0.4758.102 Safari/537.36 OPR/84.0.4316.21 (Edition utorrent)",xpyriment,legacy,legacy,0,uniform,0,0,0,0,24,24,24,0,0,74,74,74,74,74,0,74,0,5,5,5,5,5,0,5,09-02-22,09-02-22,07:41:54,Wed Mar 09 2022 07:41:54 GMT+0100 (közép-európai téli idő),The main experiment item,yes,0,0,C:/Users/rrics/Documents/!!ResearchBMECOGSCI/gnet,0,0,0,prototype4.png,no,mono,no,18,no,black,no,no,768,1189,3.5.6,legacy,xpyriment,osweb,1.3.13,0,right,right,enter,right,21529,24882,38971,21529,2,legacy,824,1536,24,864,24,0,0,1536,1646808145002,1024,2,48000,-16,experiment,p1sarrsha4.png,1,odd,Win32,130,136329,133324,130,130,663732,665234,658729,137836,658729,130,712358,713865,709358,665236,709358,visual_patterns,0,0,0,yes,1366
undefined,undefined,undefined,undefined,white,no,Mozilla,Netscape,"5.0 (Windows NT 10.0; Win64; x64) AppleWebKit/537.36 (KHTML, like Gecko) Chrome/98.0.4758.102 Safari/537.36 OPR/84.0.4316.21 (Edition utorrent)",xpyriment,legacy,legacy,0,uniform,0,0,0,0,24,24,24,0,0,74,74,74,74,74,0,74,0,6,6,6,6,6,0,6,09-02-22,09-02-22,07:41:54,Wed Mar 09 2022 07:41:54 GMT+0100 (közép-európai téli idő),The main experiment item,yes,0,0,C:/Users/rrics/Documents/!!ResearchBMECOGSCI/gnet,0,0,0,prototype4.png,no,mono,no,18,no,black,no,no,768,1189,3.5.6,legacy,xpyriment,osweb,1.3.13,0,right,right,enter,right,21529,24882,38971,21529,2,legacy,824,1536,24,864,24,0,0,1536,1646808145002,1024,2,48000,-16,experiment,p3sarrcol2.png,1,odd,Win32,130,136329,133324,130,130,663732,665234,658729,137836,658729,130,716874,718376,713870,665236,713870,visual_patterns,0,0,0,yes,1366
undefined,undefined,undefined,undefined,white,no,Mozilla,Netscape,"5.0 (Windows NT 10.0; Win64; x64) AppleWebKit/537.36 (KHTML, like Gecko) Chrome/98.0.4758.102 Safari/537.36 OPR/84.0.4316.21 (Edition utorrent)",xpyriment,legacy,legacy,0,uniform,0,0,0,0,24,24,24,0,0,74,74,74,74,74,0,74,0,7,7,7,7,7,0,7,09-02-22,09-02-22,07:41:54,Wed Mar 09 2022 07:41:54 GMT+0100 (közép-európai téli idő),The main experiment item,yes,0,0,C:/Users/rrics/Documents/!!ResearchBMECOGSCI/gnet,0,0,0,prototype4.png,no,mono,no,18,no,black,no,no,768,1189,3.5.6,legacy,xpyriment,osweb,1.3.13,0,right,right,enter,right,21529,24882,38971,21529,2,legacy,824,1536,24,864,24,0,0,1536,1646808145002,1024,2,48000,-16,experiment,p3sarrcol3.png,1,odd,Win32,130,136329,133324,130,130,663732,665234,658729,137836,658729,130,721389,722897,718383,665236,718383,visual_patterns,0,0,0,yes,1366
undefined,undefined,undefined,undefined,white,no,Mozilla,Netscape,"5.0 (Windows NT 10.0; Win64; x64) AppleWebKit/537.36 (KHTML, like Gecko) Chrome/98.0.4758.102 Safari/537.36 OPR/84.0.4316.21 (Edition utorrent)",xpyriment,legacy,legacy,0,uniform,0,0,0,0,24,24,24,0,0,74,74,74,74,74,0,74,0,8,8,8,8,8,0,8,09-02-22,09-02-22,07:41:54,Wed Mar 09 2022 07:41:54 GMT+0100 (közép-európai téli idő),The main experiment item,yes,0,0,C:/Users/rrics/Documents/!!ResearchBMECOGSCI/gnet,0,0,0,prototype4.png,no,mono,no,18,no,black,no,no,768,1189,3.5.6,legacy,xpyriment,osweb,1.3.13,0,right,right,enter,right,21529,24882,38971,21529,2,legacy,824,1536,24,864,24,0,0,1536,1646808145002,1024,2,48000,-16,experiment,p1sarrsha1.png,1,odd,Win32,130,136329,133324,130,130,663732,665234,658729,137836,658729,130,725909,727418,722909,665236,722909,visual_patterns,0,0,0,yes,1366
undefined,undefined,undefined,undefined,white,no,Mozilla,Netscape,"5.0 (Windows NT 10.0; Win64; x64) AppleWebKit/537.36 (KHTML, like Gecko) Chrome/98.0.4758.102 Safari/537.36 OPR/84.0.4316.21 (Edition utorrent)",xpyriment,legacy,legacy,0,uniform,0,0,0,0,24,24,24,0,0,74,74,74,74,74,0,74,0,9,9,9,9,9,0,9,09-02-22,09-02-22,07:41:54,Wed Mar 09 2022 07:41:54 GMT+0100 (közép-európai téli idő),The main experiment item,yes,0,0,C:/Users/rrics/Documents/!!ResearchBMECOGSCI/gnet,0,0,0,prototype4.png,no,mono,no,18,no,black,no,no,768,1189,3.5.6,legacy,xpyriment,osweb,1.3.13,0,right,right,enter,right,21529,24882,38971,21529,2,legacy,824,1536,24,864,24,0,0,1536,1646808145002,1024,2,48000,-16,experiment,p4sarr1.png,1,odd,Win32,130,136329,133324,130,130,663732,665234,658729,137836,658729,130,730430,731938,727423,665236,727423,visual_patterns,0,0,0,yes,1366
undefined,undefined,undefined,undefined,white,no,Mozilla,Netscape,"5.0 (Windows NT 10.0; Win64; x64) AppleWebKit/537.36 (KHTML, like Gecko) Chrome/98.0.4758.102 Safari/537.36 OPR/84.0.4316.21 (Edition utorrent)",xpyriment,legacy,legacy,0,uniform,0,0,0,0,24,24,24,0,0,74,74,74,74,74,0,74,0,10,10,10,10,10,0,10,09-02-22,09-02-22,07:41:54,Wed Mar 09 2022 07:41:54 GMT+0100 (közép-európai téli idő),The main experiment item,yes,0,0,C:/Users/rrics/Documents/!!ResearchBMECOGSCI/gnet,0,0,0,prototype4.png,no,mono,no,18,no,black,no,no,768,1189,3.5.6,legacy,xpyriment,osweb,1.3.13,0,right,right,enter,right,21529,24882,38971,21529,2,legacy,824,1536,24,864,24,0,0,1536,1646808145002,1024,2,48000,-16,experiment,p9sarr2.png,1,odd,Win32,130,136329,133324,130,130,663732,665234,658729,137836,658729,130,734949,736452,731946,665236,731946,visual_patterns,0,0,0,yes,1366
undefined,undefined,undefined,undefined,white,no,Mozilla,Netscape,"5.0 (Windows NT 10.0; Win64; x64) AppleWebKit/537.36 (KHTML, like Gecko) Chrome/98.0.4758.102 Safari/537.36 OPR/84.0.4316.21 (Edition utorrent)",xpyriment,legacy,legacy,0,uniform,0,0,0,0,24,24,24,0,0,74,74,74,74,74,0,74,0,11,11,11,11,11,0,11,09-02-22,09-02-22,07:41:54,Wed Mar 09 2022 07:41:54 GMT+0100 (közép-európai téli idő),The main experiment item,yes,0,0,C:/Users/rrics/Documents/!!ResearchBMECOGSCI/gnet,0,0,0,prototype4.png,no,mono,no,18,no,black,no,no,768,1189,3.5.6,legacy,xpyriment,osweb,1.3.13,0,right,right,enter,right,21529,24882,38971,21529,2,legacy,824,1536,24,864,24,0,0,1536,1646808145002,1024,2,48000,-16,experiment,p1sarr2.png,1,odd,Win32,130,136329,133324,130,130,663732,665234,658729,137836,658729,130,739460,740964,736458,665236,736458,visual_patterns,0,0,0,yes,1366
undefined,undefined,undefined,undefined,white,no,Mozilla,Netscape,"5.0 (Windows NT 10.0; Win64; x64) AppleWebKit/537.36 (KHTML, like Gecko) Chrome/98.0.4758.102 Safari/537.36 OPR/84.0.4316.21 (Edition utorrent)",xpyriment,legacy,legacy,0,uniform,0,0,0,0,24,24,24,0,0,74,74,74,74,74,0,74,0,12,12,12,12,12,0,12,09-02-22,09-02-22,07:41:54,Wed Mar 09 2022 07:41:54 GMT+0100 (közép-európai téli idő),The main experiment item,yes,0,0,C:/Users/rrics/Documents/!!ResearchBMECOGSCI/gnet,0,0,0,prototype4.png,no,mono,no,18,no,black,no,no,768,1189,3.5.6,legacy,xpyriment,osweb,1.3.13,0,right,right,enter,right,21529,24882,38971,21529,2,legacy,824,1536,24,864,24,0,0,1536,1646808145002,1024,2,48000,-16,experiment,p3sarrcol4.png,1,odd,Win32,130,136329,133324,130,130,663732,665234,658729,137836,658729,130,743974,745476,740970,665236,740970,visual_patterns,0,0,0,yes,1366
undefined,undefined,undefined,undefined,white,no,Mozilla,Netscape,"5.0 (Windows NT 10.0; Win64; x64) AppleWebKit/537.36 (KHTML, like Gecko) Chrome/98.0.4758.102 Safari/537.36 OPR/84.0.4316.21 (Edition utorrent)",xpyriment,legacy,legacy,0,uniform,0,0,0,0,24,24,24,0,0,74,74,74,74,74,0,74,0,13,13,13,13,13,0,13,09-02-22,09-02-22,07:41:54,Wed Mar 09 2022 07:41:54 GMT+0100 (közép-európai téli idő),The main experiment item,yes,0,0,C:/Users/rrics/Documents/!!ResearchBMECOGSCI/gnet,0,0,0,prototype4.png,no,mono,no,18,no,black,no,no,768,1189,3.5.6,legacy,xpyriment,osweb,1.3.13,0,right,right,enter,right,21529,24882,38971,21529,2,legacy,824,1536,24,864,24,0,0,1536,1646808145002,1024,2,48000,-16,experiment,p2sarrshacol2.png,1,odd,Win32,130,136329,133324,130,130,663732,665234,658729,137836,658729,130,748486,749988,745482,665236,745482,visual_patterns,0,0,0,yes,1366
undefined,undefined,undefined,undefined,white,no,Mozilla,Netscape,"5.0 (Windows NT 10.0; Win64; x64) AppleWebKit/537.36 (KHTML, like Gecko) Chrome/98.0.4758.102 Safari/537.36 OPR/84.0.4316.21 (Edition utorrent)",xpyriment,legacy,legacy,0,uniform,0,0,0,0,24,24,24,0,0,74,74,74,74,74,0,74,0,14,14,14,14,14,0,14,09-02-22,09-02-22,07:41:54,Wed Mar 09 2022 07:41:54 GMT+0100 (közép-európai téli idő),The main experiment item,yes,0,0,C:/Users/rrics/Documents/!!ResearchBMECOGSCI/gnet,0,0,0,prototype4.png,no,mono,no,18,no,black,no,no,768,1189,3.5.6,legacy,xpyriment,osweb,1.3.13,0,right,right,enter,right,21529,24882,38971,21529,2,legacy,824,1536,24,864,24,0,0,1536,1646808145002,1024,2,48000,-16,experiment,p6sarr1.png,1,odd,Win32,130,136329,133324,130,130,663732,665234,658729,137836,658729,130,752997,754501,749994,665236,749994,visual_patterns,0,0,0,yes,1366
undefined,undefined,undefined,undefined,white,no,Mozilla,Netscape,"5.0 (Windows NT 10.0; Win64; x64) AppleWebKit/537.36 (KHTML, like Gecko) Chrome/98.0.4758.102 Safari/537.36 OPR/84.0.4316.21 (Edition utorrent)",xpyriment,legacy,legacy,0,uniform,0,0,0,0,24,24,24,0,0,74,74,74,74,74,0,74,0,15,15,15,15,15,0,15,09-02-22,09-02-22,07:41:54,Wed Mar 09 2022 07:41:54 GMT+0100 (közép-európai téli idő),The main experiment item,yes,0,0,C:/Users/rrics/Documents/!!ResearchBMECOGSCI/gnet,0,0,0,prototype4.png,no,mono,no,18,no,black,no,no,768,1189,3.5.6,legacy,xpyriment,osweb,1.3.13,0,right,right,enter,right,21529,24882,38971,21529,2,legacy,824,1536,24,864,24,0,0,1536,1646808145002,1024,2,48000,-16,experiment,p4sarrshacol3.png,1,odd,Win32,130,136329,133324,130,130,663732,665234,658729,137836,658729,130,757513,759014,754508,665236,754508,visual_patterns,0,0,0,yes,1366
undefined,undefined,undefined,undefined,white,no,Mozilla,Netscape,"5.0 (Windows NT 10.0; Win64; x64) AppleWebKit/537.36 (KHTML, like Gecko) Chrome/98.0.4758.102 Safari/537.36 OPR/84.0.4316.21 (Edition utorrent)",xpyriment,legacy,legacy,0,uniform,0,0,0,0,24,24,24,0,0,74,74,74,74,74,0,74,0,16,16,16,16,16,0,16,09-02-22,09-02-22,07:41:54,Wed Mar 09 2022 07:41:54 GMT+0100 (közép-európai téli idő),The main experiment item,yes,0,0,C:/Users/rrics/Documents/!!ResearchBMECOGSCI/gnet,0,0,0,prototype4.png,no,mono,no,18,no,black,no,no,768,1189,3.5.6,legacy,xpyriment,osweb,1.3.13,0,right,right,enter,right,21529,24882,38971,21529,2,legacy,824,1536,24,864,24,0,0,1536,1646808145002,1024,2,48000,-16,experiment,p4sarrshacol4.png,1,odd,Win32,130,136329,133324,130,130,663732,665234,658729,137836,658729,130,762027,763534,759022,665236,759022,visual_patterns,0,0,0,yes,1366
undefined,undefined,undefined,undefined,white,no,Mozilla,Netscape,"5.0 (Windows NT 10.0; Win64; x64) AppleWebKit/537.36 (KHTML, like Gecko) Chrome/98.0.4758.102 Safari/537.36 OPR/84.0.4316.21 (Edition utorrent)",xpyriment,legacy,legacy,0,uniform,0,0,0,0,24,24,24,0,0,74,74,74,74,74,0,74,0,17,17,17,17,17,0,17,09-02-22,09-02-22,07:41:54,Wed Mar 09 2022 07:41:54 GMT+0100 (közép-európai téli idő),The main experiment item,yes,0,0,C:/Users/rrics/Documents/!!ResearchBMECOGSCI/gnet,0,0,0,prototype4.png,no,mono,no,18,no,black,no,no,768,1189,3.5.6,legacy,xpyriment,osweb,1.3.13,0,right,right,enter,right,21529,24882,38971,21529,2,legacy,824,1536,24,864,24,0,0,1536,1646808145002,1024,2,48000,-16,experiment,p2sarrcol1.png,1,odd,Win32,130,136329,133324,130,130,663732,665234,658729,137836,658729,130,766544,768046,763542,665236,763542,visual_patterns,0,0,0,yes,1366
undefined,undefined,undefined,undefined,white,no,Mozilla,Netscape,"5.0 (Windows NT 10.0; Win64; x64) AppleWebKit/537.36 (KHTML, like Gecko) Chrome/98.0.4758.102 Safari/537.36 OPR/84.0.4316.21 (Edition utorrent)",xpyriment,legacy,legacy,0,uniform,0,0,0,0,24,24,24,0,0,74,74,74,74,74,0,74,0,18,18,18,18,18,0,18,09-02-22,09-02-22,07:41:54,Wed Mar 09 2022 07:41:54 GMT+0100 (közép-európai téli idő),The main experiment item,yes,0,0,C:/Users/rrics/Documents/!!ResearchBMECOGSCI/gnet,0,0,0,prototype4.png,no,mono,no,18,no,black,no,no,768,1189,3.5.6,legacy,xpyriment,osweb,1.3.13,0,right,right,enter,right,21529,24882,38971,21529,2,legacy,824,1536,24,864,24,0,0,1536,1646808145002,1024,2,48000,-16,experiment,p1sarr4.png,1,odd,Win32,130,136329,133324,130,130,663732,665234,658729,137836,658729,130,771061,772562,768060,665236,768060,visual_patterns,0,0,0,yes,1366
undefined,undefined,undefined,undefined,white,no,Mozilla,Netscape,"5.0 (Windows NT 10.0; Win64; x64) AppleWebKit/537.36 (KHTML, like Gecko) Chrome/98.0.4758.102 Safari/537.36 OPR/84.0.4316.21 (Edition utorrent)",xpyriment,legacy,legacy,0,uniform,0,0,0,0,24,24,24,0,0,74,74,74,74,74,0,74,0,19,19,19,19,19,0,19,09-02-22,09-02-22,07:41:54,Wed Mar 09 2022 07:41:54 GMT+0100 (közép-európai téli idő),The main experiment item,yes,0,0,C:/Users/rrics/Documents/!!ResearchBMECOGSCI/gnet,0,0,0,prototype4.png,no,mono,no,18,no,black,no,no,768,1189,3.5.6,legacy,xpyriment,osweb,1.3.13,0,right,right,enter,right,21529,24882,38971,21529,2,legacy,824,1536,24,864,24,0,0,1536,1646808145002,1024,2,48000,-16,experiment,p10sarr1.png,1,odd,Win32,130,136329,133324,130,130,663732,665234,658729,137836,658729,130,775569,777072,772567,665236,772567,visual_patterns,0,0,0,yes,1366
undefined,undefined,undefined,undefined,white,no,Mozilla,Netscape,"5.0 (Windows NT 10.0; Win64; x64) AppleWebKit/537.36 (KHTML, like Gecko) Chrome/98.0.4758.102 Safari/537.36 OPR/84.0.4316.21 (Edition utorrent)",xpyriment,legacy,legacy,0,uniform,0,0,0,0,24,24,24,0,0,74,74,74,74,74,0,74,0,20,20,20,20,20,0,20,09-02-22,09-02-22,07:41:54,Wed Mar 09 2022 07:41:54 GMT+0100 (közép-európai téli idő),The main experiment item,yes,0,0,C:/Users/rrics/Documents/!!ResearchBMECOGSCI/gnet,0,0,0,prototype4.png,no,mono,no,18,no,black,no,no,768,1189,3.5.6,legacy,xpyriment,osweb,1.3.13,0,right,right,enter,right,21529,24882,38971,21529,2,legacy,824,1536,24,864,24,0,0,1536,1646808145002,1024,2,48000,-16,experiment,p8sarr3.png,1,odd,Win32,130,136329,133324,130,130,663732,665234,658729,137836,658729,130,780081,781584,777078,665236,777078,visual_patterns,0,0,0,yes,1366
undefined,undefined,undefined,undefined,white,no,Mozilla,Netscape,"5.0 (Windows NT 10.0; Win64; x64) AppleWebKit/537.36 (KHTML, like Gecko) Chrome/98.0.4758.102 Safari/537.36 OPR/84.0.4316.21 (Edition utorrent)",xpyriment,legacy,legacy,0,uniform,0,0,0,0,24,24,24,0,0,74,74,74,74,74,0,74,0,21,21,21,21,21,0,21,09-02-22,09-02-22,07:41:54,Wed Mar 09 2022 07:41:54 GMT+0100 (közép-európai téli idő),The main experiment item,yes,0,0,C:/Users/rrics/Documents/!!ResearchBMECOGSCI/gnet,0,0,0,prototype4.png,no,mono,no,18,no,black,no,no,768,1189,3.5.6,legacy,xpyriment,osweb,1.3.13,0,right,right,enter,right,21529,24882,38971,21529,2,legacy,824,1536,24,864,24,0,0,1536,1646808145002,1024,2,48000,-16,experiment,p9sarr4.png,1,odd,Win32,130,136329,133324,130,130,663732,665234,658729,137836,658729,130,784598,786105,781592,665236,781592,visual_patterns,0,0,0,yes,1366
undefined,undefined,undefined,undefined,white,no,Mozilla,Netscape,"5.0 (Windows NT 10.0; Win64; x64) AppleWebKit/537.36 (KHTML, like Gecko) Chrome/98.0.4758.102 Safari/537.36 OPR/84.0.4316.21 (Edition utorrent)",xpyriment,legacy,legacy,0,uniform,0,0,0,0,24,24,24,0,0,74,74,74,74,74,0,74,0,22,22,22,22,22,0,22,09-02-22,09-02-22,07:41:54,Wed Mar 09 2022 07:41:54 GMT+0100 (közép-európai téli idő),The main experiment item,yes,0,0,C:/Users/rrics/Documents/!!ResearchBMECOGSCI/gnet,0,0,0,prototype4.png,no,mono,no,18,no,black,no,no,768,1189,3.5.6,legacy,xpyriment,osweb,1.3.13,0,right,right,enter,right,21529,24882,38971,21529,2,legacy,824,1536,24,864,24,0,0,1536,1646808145002,1024,2,48000,-16,experiment,p5sarrcol2.png,1,odd,Win32,130,136329,133324,130,130,663732,665234,658729,137836,658729,130,789115,790617,786111,665236,786111,visual_patterns,0,0,0,yes,1366
undefined,undefined,undefined,undefined,white,no,Mozilla,Netscape,"5.0 (Windows NT 10.0; Win64; x64) AppleWebKit/537.36 (KHTML, like Gecko) Chrome/98.0.4758.102 Safari/537.36 OPR/84.0.4316.21 (Edition utorrent)",xpyriment,legacy,legacy,0,uniform,0,0,0,0,24,24,24,0,0,74,74,74,74,74,0,74,0,23,23,23,23,23,0,23,09-02-22,09-02-22,07:41:54,Wed Mar 09 2022 07:41:54 GMT+0100 (közép-európai téli idő),The main experiment item,yes,0,0,C:/Users/rrics/Documents/!!ResearchBMECOGSCI/gnet,0,0,0,prototype4.png,no,mono,no,18,no,black,no,no,768,1189,3.5.6,legacy,xpyriment,osweb,1.3.13,0,right,right,enter,right,21529,24882,38971,21529,2,legacy,824,1536,24,864,24,0,0,1536,1646808145002,1024,2,48000,-16,experiment,p7sarr4.png,1,odd,Win32,130,136329,133324,130,130,663732,665234,658729,137836,658729,130,793631,795134,790630,665236,790630,visual_patterns,0,0,0,yes,1366
undefined,undefined,undefined,undefined,white,no,Mozilla,Netscape,"5.0 (Windows NT 10.0; Win64; x64) AppleWebKit/537.36 (KHTML, like Gecko) Chrome/98.0.4758.102 Safari/537.36 OPR/84.0.4316.21 (Edition utorrent)",xpyriment,legacy,legacy,0,uniform,0,0,0,0,24,24,24,0,0,74,74,74,74,74,0,74,0,24,24,24,24,24,0,24,09-02-22,09-02-22,07:41:54,Wed Mar 09 2022 07:41:54 GMT+0100 (közép-európai téli idő),The main experiment item,yes,0,0,C:/Users/rrics/Documents/!!ResearchBMECOGSCI/gnet,0,0,0,prototype4.png,no,mono,no,18,no,black,no,no,768,1189,3.5.6,legacy,xpyriment,osweb,1.3.13,0,right,right,enter,right,21529,24882,38971,21529,2,legacy,824,1536,24,864,24,0,0,1536,1646808145002,1024,2,48000,-16,experiment,p3sarrsha3.png,1,odd,Win32,130,136329,133324,130,130,663732,665234,658729,137836,658729,130,798142,799650,795140,665236,795140,visual_patterns,0,0,0,yes,1366
undefined,undefined,undefined,undefined,white,no,Mozilla,Netscape,"5.0 (Windows NT 10.0; Win64; x64) AppleWebKit/537.36 (KHTML, like Gecko) Chrome/98.0.4758.102 Safari/537.36 OPR/84.0.4316.21 (Edition utorrent)",xpyriment,legacy,legacy,0,uniform,0,0,0,0,24,24,24,0,0,74,74,74,74,74,0,74,0,25,25,25,25,25,0,25,09-02-22,09-02-22,07:41:54,Wed Mar 09 2022 07:41:54 GMT+0100 (közép-európai téli idő),The main experiment item,yes,0,0,C:/Users/rrics/Documents/!!ResearchBMECOGSCI/gnet,0,0,0,prototype4.png,no,mono,no,18,no,black,no,no,768,1189,3.5.6,legacy,xpyriment,osweb,1.3.13,0,right,right,enter,right,21529,24882,38971,21529,2,legacy,824,1536,24,864,24,0,0,1536,1646808145002,1024,2,48000,-16,experiment,p8sarr4.png,1,odd,Win32,130,136329,133324,130,130,663732,665234,658729,137836,658729,130,802664,804172,799658,665236,799658,visual_patterns,0,0,0,yes,1366
undefined,undefined,undefined,undefined,white,no,Mozilla,Netscape,"5.0 (Windows NT 10.0; Win64; x64) AppleWebKit/537.36 (KHTML, like Gecko) Chrome/98.0.4758.102 Safari/537.36 OPR/84.0.4316.21 (Edition utorrent)",xpyriment,legacy,legacy,0,uniform,0,0,0,0,24,24,24,0,0,74,74,74,74,74,0,74,0,26,26,26,26,26,0,26,09-02-22,09-02-22,07:41:54,Wed Mar 09 2022 07:41:54 GMT+0100 (közép-európai téli idő),The main experiment item,yes,0,0,C:/Users/rrics/Documents/!!ResearchBMECOGSCI/gnet,0,0,0,prototype4.png,no,mono,no,18,no,black,no,no,768,1189,3.5.6,legacy,xpyriment,osweb,1.3.13,0,right,right,enter,right,21529,24882,38971,21529,2,legacy,824,1536,24,864,24,0,0,1536,1646808145002,1024,2,48000,-16,experiment,p2sarrshacol4.png,1,odd,Win32,130,136329,133324,130,130,663732,665234,658729,137836,658729,130,807185,808692,804178,665236,804178,visual_patterns,0,0,0,yes,1366
undefined,undefined,undefined,undefined,white,no,Mozilla,Netscape,"5.0 (Windows NT 10.0; Win64; x64) AppleWebKit/537.36 (KHTML, like Gecko) Chrome/98.0.4758.102 Safari/537.36 OPR/84.0.4316.21 (Edition utorrent)",xpyriment,legacy,legacy,0,uniform,0,0,0,0,24,24,24,0,0,74,74,74,74,74,0,74,0,27,27,27,27,27,0,27,09-02-22,09-02-22,07:41:54,Wed Mar 09 2022 07:41:54 GMT+0100 (közép-európai téli idő),The main experiment item,yes,0,0,C:/Users/rrics/Documents/!!ResearchBMECOGSCI/gnet,0,0,0,prototype4.png,no,mono,no,18,no,black,no,no,768,1189,3.5.6,legacy,xpyriment,osweb,1.3.13,0,right,right,enter,right,21529,24882,38971,21529,2,legacy,824,1536,24,864,24,0,0,1536,1646808145002,1024,2,48000,-16,experiment,p4sarrshacol1.png,1,odd,Win32,130,136329,133324,130,130,663732,665234,658729,137836,658729,130,811704,813212,808698,665236,808698,visual_patterns,0,0,0,yes,1366
undefined,undefined,undefined,undefined,white,no,Mozilla,Netscape,"5.0 (Windows NT 10.0; Win64; x64) AppleWebKit/537.36 (KHTML, like Gecko) Chrome/98.0.4758.102 Safari/537.36 OPR/84.0.4316.21 (Edition utorrent)",xpyriment,legacy,legacy,0,uniform,0,0,0,0,24,24,24,0,0,74,74,74,74,74,0,74,0,28,28,28,28,28,0,28,09-02-22,09-02-22,07:41:54,Wed Mar 09 2022 07:41:54 GMT+0100 (közép-európai téli idő),The main experiment item,yes,0,0,C:/Users/rrics/Documents/!!ResearchBMECOGSCI/gnet,0,0,0,prototype4.png,no,mono,no,18,no,black,no,no,768,1189,3.5.6,legacy,xpyriment,osweb,1.3.13,0,right,right,enter,right,21529,24882,38971,21529,2,legacy,824,1536,24,864,24,0,0,1536,1646808145002,1024,2,48000,-16,experiment,p1sarrshacol3.png,1,odd,Win32,130,136329,133324,130,130,663732,665234,658729,137836,658729,130,816227,817733,813227,665236,813227,visual_patterns,0,0,0,yes,1366
undefined,undefined,undefined,undefined,white,no,Mozilla,Netscape,"5.0 (Windows NT 10.0; Win64; x64) AppleWebKit/537.36 (KHTML, like Gecko) Chrome/98.0.4758.102 Safari/537.36 OPR/84.0.4316.21 (Edition utorrent)",xpyriment,legacy,legacy,0,uniform,0,0,0,0,24,24,24,0,0,74,74,74,74,74,0,74,0,29,29,29,29,29,0,29,09-02-22,09-02-22,07:41:54,Wed Mar 09 2022 07:41:54 GMT+0100 (közép-európai téli idő),The main experiment item,yes,0,0,C:/Users/rrics/Documents/!!ResearchBMECOGSCI/gnet,0,0,0,prototype4.png,no,mono,no,18,no,black,no,no,768,1189,3.5.6,legacy,xpyriment,osweb,1.3.13,0,right,right,enter,right,21529,24882,38971,21529,2,legacy,824,1536,24,864,24,0,0,1536,1646808145002,1024,2,48000,-16,experiment,p2sarrsha1.png,1,odd,Win32,130,136329,133324,130,130,663732,665234,658729,137836,658729,130,820738,822247,817739,665236,817739,visual_patterns,0,0,0,yes,1366
undefined,undefined,undefined,undefined,white,no,Mozilla,Netscape,"5.0 (Windows NT 10.0; Win64; x64) AppleWebKit/537.36 (KHTML, like Gecko) Chrome/98.0.4758.102 Safari/537.36 OPR/84.0.4316.21 (Edition utorrent)",xpyriment,legacy,legacy,0,uniform,0,0,0,0,24,24,24,0,0,74,74,74,74,74,0,74,0,30,30,30,30,30,0,30,09-02-22,09-02-22,07:41:54,Wed Mar 09 2022 07:41:54 GMT+0100 (közép-európai téli idő),The main experiment item,yes,0,0,C:/Users/rrics/Documents/!!ResearchBMECOGSCI/gnet,0,0,0,prototype4.png,no,mono,no,18,no,black,no,no,768,1189,3.5.6,legacy,xpyriment,osweb,1.3.13,0,right,right,enter,right,21529,24882,38971,21529,2,legacy,824,1536,24,864,24,0,0,1536,1646808145002,1024,2,48000,-16,experiment,p3sarr2.png,1,odd,Win32,130,136329,133324,130,130,663732,665234,658729,137836,658729,130,825258,826766,822252,665236,822252,visual_patterns,0,0,0,yes,1366
undefined,undefined,undefined,undefined,white,no,Mozilla,Netscape,"5.0 (Windows NT 10.0; Win64; x64) AppleWebKit/537.36 (KHTML, like Gecko) Chrome/98.0.4758.102 Safari/537.36 OPR/84.0.4316.21 (Edition utorrent)",xpyriment,legacy,legacy,0,uniform,0,0,0,0,24,24,24,0,0,74,74,74,74,74,0,74,0,31,31,31,31,31,0,31,09-02-22,09-02-22,07:41:54,Wed Mar 09 2022 07:41:54 GMT+0100 (közép-európai téli idő),The main experiment item,yes,0,0,C:/Users/rrics/Documents/!!ResearchBMECOGSCI/gnet,0,0,0,prototype4.png,no,mono,no,18,no,black,no,no,768,1189,3.5.6,legacy,xpyriment,osweb,1.3.13,0,right,right,enter,right,21529,24882,38971,21529,2,legacy,824,1536,24,864,24,0,0,1536,1646808145002,1024,2,48000,-16,experiment,p3sarrshacol3.png,1,odd,Win32,130,136329,133324,130,130,663732,665234,658729,137836,658729,130,829772,831283,826773,665236,826773,visual_patterns,0,0,0,yes,1366
undefined,undefined,undefined,undefined,white,no,Mozilla,Netscape,"5.0 (Windows NT 10.0; Win64; x64) AppleWebKit/537.36 (KHTML, like Gecko) Chrome/98.0.4758.102 Safari/537.36 OPR/84.0.4316.21 (Edition utorrent)",xpyriment,legacy,legacy,0,uniform,0,0,0,0,24,24,24,0,0,74,74,74,74,74,0,74,0,32,32,32,32,32,0,32,09-02-22,09-02-22,07:41:54,Wed Mar 09 2022 07:41:54 GMT+0100 (közép-európai téli idő),The main experiment item,yes,0,0,C:/Users/rrics/Documents/!!ResearchBMECOGSCI/gnet,0,0,0,prototype4.png,no,mono,no,18,no,black,no,no,768,1189,3.5.6,legacy,xpyriment,osweb,1.3.13,0,right,right,enter,right,21529,24882,38971,21529,2,legacy,824,1536,24,864,24,0,0,1536,1646808145002,1024,2,48000,-16,experiment,p2sarrcol4.png,1,odd,Win32,130,136329,133324,130,130,663732,665234,658729,137836,658729,130,834291,835800,831290,665236,831290,visual_patterns,0,0,0,yes,1366
undefined,undefined,undefined,undefined,white,no,Mozilla,Netscape,"5.0 (Windows NT 10.0; Win64; x64) AppleWebKit/537.36 (KHTML, like Gecko) Chrome/98.0.4758.102 Safari/537.36 OPR/84.0.4316.21 (Edition utorrent)",xpyriment,legacy,legacy,0,uniform,0,0,0,0,24,24,24,0,0,74,74,74,74,74,0,74,0,33,33,33,33,33,0,33,09-02-22,09-02-22,07:41:54,Wed Mar 09 2022 07:41:54 GMT+0100 (közép-európai téli idő),The main experiment item,yes,0,0,C:/Users/rrics/Documents/!!ResearchBMECOGSCI/gnet,0,0,0,prototype4.png,no,mono,no,18,no,black,no,no,768,1189,3.5.6,legacy,xpyriment,osweb,1.3.13,0,right,right,enter,right,21529,24882,38971,21529,2,legacy,824,1536,24,864,24,0,0,1536,1646808145002,1024,2,48000,-16,experiment,p5sarrcol1.png,1,odd,Win32,130,136329,133324,130,130,663732,665234,658729,137836,658729,130,838817,840321,835815,665236,835815,visual_patterns,0,0,0,yes,1366
undefined,undefined,undefined,undefined,white,no,Mozilla,Netscape,"5.0 (Windows NT 10.0; Win64; x64) AppleWebKit/537.36 (KHTML, like Gecko) Chrome/98.0.4758.102 Safari/537.36 OPR/84.0.4316.21 (Edition utorrent)",xpyriment,legacy,legacy,0,uniform,0,0,0,0,24,24,24,0,0,74,74,74,74,74,0,74,0,34,34,34,34,34,0,34,09-02-22,09-02-22,07:41:54,Wed Mar 09 2022 07:41:54 GMT+0100 (közép-európai téli idő),The main experiment item,yes,0,0,C:/Users/rrics/Documents/!!ResearchBMECOGSCI/gnet,0,0,0,prototype4.png,no,mono,no,18,no,black,no,no,768,1189,3.5.6,legacy,xpyriment,osweb,1.3.13,0,right,right,enter,right,21529,24882,38971,21529,2,legacy,824,1536,24,864,24,0,0,1536,1646808145002,1024,2,48000,-16,experiment,p8sarr2.png,1,odd,Win32,130,136329,133324,130,130,663732,665234,658729,137836,658729,130,843330,844833,840327,665236,840327,visual_patterns,0,0,0,yes,1366
undefined,undefined,undefined,undefined,white,no,Mozilla,Netscape,"5.0 (Windows NT 10.0; Win64; x64) AppleWebKit/537.36 (KHTML, like Gecko) Chrome/98.0.4758.102 Safari/537.36 OPR/84.0.4316.21 (Edition utorrent)",xpyriment,legacy,legacy,0,uniform,0,0,0,0,24,24,24,0,0,74,74,74,74,74,0,74,0,35,35,35,35,35,0,35,09-02-22,09-02-22,07:41:54,Wed Mar 09 2022 07:41:54 GMT+0100 (közép-európai téli idő),The main experiment item,yes,0,0,C:/Users/rrics/Documents/!!ResearchBMECOGSCI/gnet,0,0,0,prototype4.png,no,mono,no,18,no,black,no,no,768,1189,3.5.6,legacy,xpyriment,osweb,1.3.13,0,right,right,enter,right,21529,24882,38971,21529,2,legacy,824,1536,24,864,24,0,0,1536,1646808145002,1024,2,48000,-16,experiment,p5sarr3.png,1,odd,Win32,130,136329,133324,130,130,663732,665234,658729,137836,658729,130,847844,849346,844838,665236,844838,visual_patterns,0,0,0,yes,1366
undefined,undefined,undefined,undefined,white,no,Mozilla,Netscape,"5.0 (Windows NT 10.0; Win64; x64) AppleWebKit/537.36 (KHTML, like Gecko) Chrome/98.0.4758.102 Safari/537.36 OPR/84.0.4316.21 (Edition utorrent)",xpyriment,legacy,legacy,0,uniform,0,0,0,0,24,24,24,0,0,74,74,74,74,74,0,74,0,36,36,36,36,36,0,36,09-02-22,09-02-22,07:41:54,Wed Mar 09 2022 07:41:54 GMT+0100 (közép-európai téli idő),The main experiment item,yes,0,0,C:/Users/rrics/Documents/!!ResearchBMECOGSCI/gnet,0,0,0,prototype4.png,no,mono,no,18,no,black,no,no,768,1189,3.5.6,legacy,xpyriment,osweb,1.3.13,0,right,right,enter,right,21529,24882,38971,21529,2,legacy,824,1536,24,864,24,0,0,1536,1646808145002,1024,2,48000,-16,experiment,p7sarr1.png,1,odd,Win32,130,136329,133324,130,130,663732,665234,658729,137836,658729,130,852357,853858,849351,665236,849351,visual_patterns,0,0,0,yes,1366
undefined,undefined,undefined,undefined,white,no,Mozilla,Netscape,"5.0 (Windows NT 10.0; Win64; x64) AppleWebKit/537.36 (KHTML, like Gecko) Chrome/98.0.4758.102 Safari/537.36 OPR/84.0.4316.21 (Edition utorrent)",xpyriment,legacy,legacy,0,uniform,0,0,0,0,24,24,24,0,0,74,74,74,74,74,0,74,0,37,37,37,37,37,0,37,09-02-22,09-02-22,07:41:54,Wed Mar 09 2022 07:41:54 GMT+0100 (közép-európai téli idő),The main experiment item,yes,0,0,C:/Users/rrics/Documents/!!ResearchBMECOGSCI/gnet,0,0,0,prototype4.png,no,mono,no,18,no,black,no,no,768,1189,3.5.6,legacy,xpyriment,osweb,1.3.13,0,right,right,enter,right,21529,24882,38971,21529,2,legacy,824,1536,24,864,24,0,0,1536,1646808145002,1024,2,48000,-16,experiment,p1sarrcol4.png,1,odd,Win32,130,136329,133324,130,130,663732,665234,658729,137836,658729,130,856869,858371,853867,665236,853867,visual_patterns,0,0,0,yes,1366
undefined,undefined,undefined,undefined,white,no,Mozilla,Netscape,"5.0 (Windows NT 10.0; Win64; x64) AppleWebKit/537.36 (KHTML, like Gecko) Chrome/98.0.4758.102 Safari/537.36 OPR/84.0.4316.21 (Edition utorrent)",xpyriment,legacy,legacy,0,uniform,0,0,0,0,24,24,24,0,0,74,74,74,74,74,0,74,0,38,38,38,38,38,0,38,09-02-22,09-02-22,07:41:54,Wed Mar 09 2022 07:41:54 GMT+0100 (közép-európai téli idő),The main experiment item,yes,0,0,C:/Users/rrics/Documents/!!ResearchBMECOGSCI/gnet,0,0,0,prototype4.png,no,mono,no,18,no,black,no,no,768,1189,3.5.6,legacy,xpyriment,osweb,1.3.13,0,right,right,enter,right,21529,24882,38971,21529,2,legacy,824,1536,24,864,24,0,0,1536,1646808145002,1024,2,48000,-16,experiment,p3sarrsha4.png,1,odd,Win32,130,136329,133324,130,130,663732,665234,658729,137836,658729,130,861384,862891,858384,665236,858384,visual_patterns,0,0,0,yes,1366
undefined,undefined,undefined,undefined,white,no,Mozilla,Netscape,"5.0 (Windows NT 10.0; Win64; x64) AppleWebKit/537.36 (KHTML, like Gecko) Chrome/98.0.4758.102 Safari/537.36 OPR/84.0.4316.21 (Edition utorrent)",xpyriment,legacy,legacy,0,uniform,0,0,0,0,24,24,24,0,0,74,74,74,74,74,0,74,0,39,39,39,39,39,0,39,09-02-22,09-02-22,07:41:54,Wed Mar 09 2022 07:41:54 GMT+0100 (közép-európai téli idő),The main experiment item,yes,0,0,C:/Users/rrics/Documents/!!ResearchBMECOGSCI/gnet,0,0,0,prototype4.png,no,mono,no,18,no,black,no,no,768,1189,3.5.6,legacy,xpyriment,osweb,1.3.13,0,right,right,enter,right,21529,24882,38971,21529,2,legacy,824,1536,24,864,24,0,0,1536,1646808145002,1024,2,48000,-16,experiment,p3sarr1.png,1,odd,Win32,130,136329,133324,130,130,663732,665234,658729,137836,658729,130,865901,867407,862898,665236,862898,visual_patterns,0,0,0,yes,1366
undefined,undefined,undefined,undefined,white,no,Mozilla,Netscape,"5.0 (Windows NT 10.0; Win64; x64) AppleWebKit/537.36 (KHTML, like Gecko) Chrome/98.0.4758.102 Safari/537.36 OPR/84.0.4316.21 (Edition utorrent)",xpyriment,legacy,legacy,0,uniform,0,0,0,0,24,24,24,0,0,74,74,74,74,74,0,74,0,40,40,40,40,40,0,40,09-02-22,09-02-22,07:41:54,Wed Mar 09 2022 07:41:54 GMT+0100 (közép-európai téli idő),The main experiment item,yes,0,0,C:/Users/rrics/Documents/!!ResearchBMECOGSCI/gnet,0,0,0,prototype4.png,no,mono,no,18,no,black,no,no,768,1189,3.5.6,legacy,xpyriment,osweb,1.3.13,0,right,right,enter,right,21529,24882,38971,21529,2,legacy,824,1536,24,864,24,0,0,1536,1646808145002,1024,2,48000,-16,experiment,p2sarrsha3.png,1,odd,Win32,130,136329,133324,130,130,663732,665234,658729,137836,658729,130,870416,871924,867414,665236,867414,visual_patterns,0,0,0,yes,1366
undefined,undefined,undefined,undefined,white,no,Mozilla,Netscape,"5.0 (Windows NT 10.0; Win64; x64) AppleWebKit/537.36 (KHTML, like Gecko) Chrome/98.0.4758.102 Safari/537.36 OPR/84.0.4316.21 (Edition utorrent)",xpyriment,legacy,legacy,0,uniform,0,0,0,0,24,24,24,0,0,74,74,74,74,74,0,74,0,41,41,41,41,41,0,41,09-02-22,09-02-22,07:41:54,Wed Mar 09 2022 07:41:54 GMT+0100 (közép-európai téli idő),The main experiment item,yes,0,0,C:/Users/rrics/Documents/!!ResearchBMECOGSCI/gnet,0,0,0,prototype4.png,no,mono,no,18,no,black,no,no,768,1189,3.5.6,legacy,xpyriment,osweb,1.3.13,0,right,right,enter,right,21529,24882,38971,21529,2,legacy,824,1536,24,864,24,0,0,1536,1646808145002,1024,2,48000,-16,experiment,p9sarr3.png,1,odd,Win32,130,136329,133324,130,130,663732,665234,658729,137836,658729,130,874936,876437,871930,665236,871930,visual_patterns,0,0,0,yes,1366
undefined,undefined,undefined,undefined,white,no,Mozilla,Netscape,"5.0 (Windows NT 10.0; Win64; x64) AppleWebKit/537.36 (KHTML, like Gecko) Chrome/98.0.4758.102 Safari/537.36 OPR/84.0.4316.21 (Edition utorrent)",xpyriment,legacy,legacy,0,uniform,0,0,0,0,24,24,24,0,0,74,74,74,74,74,0,74,0,42,42,42,42,42,0,42,09-02-22,09-02-22,07:41:54,Wed Mar 09 2022 07:41:54 GMT+0100 (közép-európai téli idő),The main experiment item,yes,0,0,C:/Users/rrics/Documents/!!ResearchBMECOGSCI/gnet,0,0,0,prototype4.png,no,mono,no,18,no,black,no,no,768,1189,3.5.6,legacy,xpyriment,osweb,1.3.13,0,right,right,enter,right,21529,24882,38971,21529,2,legacy,824,1536,24,864,24,0,0,1536,1646808145002,1024,2,48000,-16,experiment,p10sarr4.png,1,odd,Win32,130,136329,133324,130,130,663732,665234,658729,137836,658729,130,879449,880958,876444,665236,876444,visual_patterns,0,0,0,yes,1366
