acc,accuracy,average_response_time,avg_rt,background,bidi,browser_codename,browser_name,browser_version,canvas_backend,clock_backend,color_backend,compensation,coordinates,count_end,count_experiment,count_osweb,count_prestudy,count_prestudy_isi,count_prestudy_sequence,count_prestudy_stimpres,count_start,count_study,count_study_coroutines,count_study_isi,count_study_logger,count_study_response,count_study_sequence,count_study_start,count_study_stimpres,count_test,count_test_coroutines,count_test_isi,count_test_logger,count_test_response,count_test_sequence,count_test_start,count_test_stimpres,date_startdate,date_startdateUTC,date_starttime,datetime,description,disable_garbage_collection,experiment_debug,experiment_parameters,experiment_path,experiment_pilot,experiment_taskname,experiment_taskversion,fampict,font_bold,font_family,font_italic,font_size,font_underline,foreground,form_clicks,fullscreen,height,jatosStudyResultId,jatosVersion,keyboard_backend,mouse_backend,opensesame_codename,opensesame_version,repeat_cycle,response,response_start,response_study_start,response_test_start,response_time,response_time_start,response_time_study_start,response_time_test_start,round_decimals,sampler_backend,screen_availableHeight,screen_availableWidth,screen_colorDepth,screen_height,screen_pixelDepth,screen_screenX,screen_screenY,screen_width,sessionid,sound_buf_size,sound_channels,sound_freq,sound_sample_size,start,stim,subject_nr,subject_parity,system_os,time_prestudy,time_prestudy_isi,time_prestudy_stimpres,time_start,time_study,time_study_isi,time_study_logger,time_study_response,time_study_start,time_study_stimpres,time_test,time_test_isi,time_test_logger,time_test_response,time_test_start,time_test_stimpres,title,total_correct,total_response_time,total_responses,uniform_coordinates,width
undefined,undefined,undefined,undefined,white,no,Mozilla,Netscape,"5.0 (Windows NT 10.0; Win64; x64) AppleWebKit/537.36 (KHTML, like Gecko) Chrome/99.0.4844.51 Safari/537.36",xpyriment,legacy,legacy,0,uniform,0,0,0,0,24,24,24,0,0,0,0,0,0,0,0,0,0,,,,,,0,,10-02-22,10-02-22,20:04:07,Thu Mar 10 2022 20:04:07 GMT+0100 (közép-európai téli idő),The main experiment item,yes,0,0,C:/Users/rrics/Documents/!!ResearchBMECOGSCI/gnet,0,0,0,prototype5.png,no,mono,no,18,no,black,no,no,768,1191,3.5.6,legacy,xpyriment,osweb,1.3.13,0,c,v,c,,63016,57584,63016,,2,legacy,816,1536,24,864,24,0,0,1536,1646939118374,1024,2,48000,-16,experiment,p6sarr1.png,1,odd,Win32,160,169539,166524,160,160,239088,240601,234090,171056,234089,160,,,,,,visual_patterns,0,0,0,yes,1366
undefined,undefined,undefined,undefined,white,no,Mozilla,Netscape,"5.0 (Windows NT 10.0; Win64; x64) AppleWebKit/537.36 (KHTML, like Gecko) Chrome/99.0.4844.51 Safari/537.36",xpyriment,legacy,legacy,0,uniform,0,0,0,0,24,24,24,0,0,1,1,1,1,1,0,1,0,,,,,,0,,10-02-22,10-02-22,20:04:07,Thu Mar 10 2022 20:04:07 GMT+0100 (közép-európai téli idő),The main experiment item,yes,0,0,C:/Users/rrics/Documents/!!ResearchBMECOGSCI/gnet,0,0,0,prototype5.png,no,mono,no,18,no,black,no,no,768,1191,3.5.6,legacy,xpyriment,osweb,1.3.13,0,c,v,c,,63016,57584,63016,,2,legacy,816,1536,24,864,24,0,0,1536,1646939118374,1024,2,48000,-16,experiment,prototype3.png,1,odd,Win32,160,169539,166524,160,160,245610,247114,240608,171056,240608,160,,,,,,visual_patterns,0,0,0,yes,1366
undefined,undefined,undefined,undefined,white,no,Mozilla,Netscape,"5.0 (Windows NT 10.0; Win64; x64) AppleWebKit/537.36 (KHTML, like Gecko) Chrome/99.0.4844.51 Safari/537.36",xpyriment,legacy,legacy,0,uniform,0,0,0,0,24,24,24,0,0,2,2,2,2,2,0,2,0,,,,,,0,,10-02-22,10-02-22,20:04:07,Thu Mar 10 2022 20:04:07 GMT+0100 (közép-európai téli idő),The main experiment item,yes,0,0,C:/Users/rrics/Documents/!!ResearchBMECOGSCI/gnet,0,0,0,prototype5.png,no,mono,no,18,no,black,no,no,768,1191,3.5.6,legacy,xpyriment,osweb,1.3.13,0,c,v,c,,63016,57584,63016,,2,legacy,816,1536,24,864,24,0,0,1536,1646939118374,1024,2,48000,-16,experiment,p3sarr1.png,1,odd,Win32,160,169539,166524,160,160,252120,253629,247121,171056,247121,160,,,,,,visual_patterns,0,0,0,yes,1366
undefined,undefined,undefined,undefined,white,no,Mozilla,Netscape,"5.0 (Windows NT 10.0; Win64; x64) AppleWebKit/537.36 (KHTML, like Gecko) Chrome/99.0.4844.51 Safari/537.36",xpyriment,legacy,legacy,0,uniform,0,0,0,0,24,24,24,0,0,3,3,3,3,3,0,3,0,,,,,,0,,10-02-22,10-02-22,20:04:07,Thu Mar 10 2022 20:04:07 GMT+0100 (közép-európai téli idő),The main experiment item,yes,0,0,C:/Users/rrics/Documents/!!ResearchBMECOGSCI/gnet,0,0,0,prototype5.png,no,mono,no,18,no,black,no,no,768,1191,3.5.6,legacy,xpyriment,osweb,1.3.13,0,c,v,c,,63016,57584,63016,,2,legacy,816,1536,24,864,24,0,0,1536,1646939118374,1024,2,48000,-16,experiment,p9sarr2.png,1,odd,Win32,160,169539,166524,160,160,258650,260160,253649,171056,253649,160,,,,,,visual_patterns,0,0,0,yes,1366
undefined,undefined,undefined,undefined,white,no,Mozilla,Netscape,"5.0 (Windows NT 10.0; Win64; x64) AppleWebKit/537.36 (KHTML, like Gecko) Chrome/99.0.4844.51 Safari/537.36",xpyriment,legacy,legacy,0,uniform,0,0,0,0,24,24,24,0,0,4,4,4,4,4,0,4,0,,,,,,0,,10-02-22,10-02-22,20:04:07,Thu Mar 10 2022 20:04:07 GMT+0100 (közép-európai téli idő),The main experiment item,yes,0,0,C:/Users/rrics/Documents/!!ResearchBMECOGSCI/gnet,0,0,0,prototype5.png,no,mono,no,18,no,black,no,no,768,1191,3.5.6,legacy,xpyriment,osweb,1.3.13,0,c,v,c,,63016,57584,63016,,2,legacy,816,1536,24,864,24,0,0,1536,1646939118374,1024,2,48000,-16,experiment,p4sarr2.png,1,odd,Win32,160,169539,166524,160,160,265166,266675,260168,171056,260168,160,,,,,,visual_patterns,0,0,0,yes,1366
undefined,undefined,undefined,undefined,white,no,Mozilla,Netscape,"5.0 (Windows NT 10.0; Win64; x64) AppleWebKit/537.36 (KHTML, like Gecko) Chrome/99.0.4844.51 Safari/537.36",xpyriment,legacy,legacy,0,uniform,0,0,0,0,24,24,24,0,0,5,5,5,5,5,0,5,0,,,,,,0,,10-02-22,10-02-22,20:04:07,Thu Mar 10 2022 20:04:07 GMT+0100 (közép-európai téli idő),The main experiment item,yes,0,0,C:/Users/rrics/Documents/!!ResearchBMECOGSCI/gnet,0,0,0,prototype5.png,no,mono,no,18,no,black,no,no,768,1191,3.5.6,legacy,xpyriment,osweb,1.3.13,0,c,v,c,,63016,57584,63016,,2,legacy,816,1536,24,864,24,0,0,1536,1646939118374,1024,2,48000,-16,experiment,p4sarrshacol2.png,1,odd,Win32,160,169539,166524,160,160,271681,273189,266682,171056,266682,160,,,,,,visual_patterns,0,0,0,yes,1366
undefined,undefined,undefined,undefined,white,no,Mozilla,Netscape,"5.0 (Windows NT 10.0; Win64; x64) AppleWebKit/537.36 (KHTML, like Gecko) Chrome/99.0.4844.51 Safari/537.36",xpyriment,legacy,legacy,0,uniform,0,0,0,0,24,24,24,0,0,6,6,6,6,6,0,6,0,,,,,,0,,10-02-22,10-02-22,20:04:07,Thu Mar 10 2022 20:04:07 GMT+0100 (közép-európai téli idő),The main experiment item,yes,0,0,C:/Users/rrics/Documents/!!ResearchBMECOGSCI/gnet,0,0,0,prototype5.png,no,mono,no,18,no,black,no,no,768,1191,3.5.6,legacy,xpyriment,osweb,1.3.13,0,c,v,c,,63016,57584,63016,,2,legacy,816,1536,24,864,24,0,0,1536,1646939118374,1024,2,48000,-16,experiment,p5sarrsha2.png,1,odd,Win32,160,169539,166524,160,160,278200,279704,273197,171056,273197,160,,,,,,visual_patterns,0,0,0,yes,1366
undefined,undefined,undefined,undefined,white,no,Mozilla,Netscape,"5.0 (Windows NT 10.0; Win64; x64) AppleWebKit/537.36 (KHTML, like Gecko) Chrome/99.0.4844.51 Safari/537.36",xpyriment,legacy,legacy,0,uniform,0,0,0,0,24,24,24,0,0,7,7,7,7,7,0,7,0,,,,,,0,,10-02-22,10-02-22,20:04:07,Thu Mar 10 2022 20:04:07 GMT+0100 (közép-európai téli idő),The main experiment item,yes,0,0,C:/Users/rrics/Documents/!!ResearchBMECOGSCI/gnet,0,0,0,prototype5.png,no,mono,no,18,no,black,no,no,768,1191,3.5.6,legacy,xpyriment,osweb,1.3.13,0,c,v,c,,63016,57584,63016,,2,legacy,816,1536,24,864,24,0,0,1536,1646939118374,1024,2,48000,-16,experiment,p2sarr1.png,1,odd,Win32,160,169539,166524,160,160,284711,286219,279711,171056,279711,160,,,,,,visual_patterns,0,0,0,yes,1366
undefined,undefined,undefined,undefined,white,no,Mozilla,Netscape,"5.0 (Windows NT 10.0; Win64; x64) AppleWebKit/537.36 (KHTML, like Gecko) Chrome/99.0.4844.51 Safari/537.36",xpyriment,legacy,legacy,0,uniform,0,0,0,0,24,24,24,0,0,8,8,8,8,8,0,8,0,,,,,,0,,10-02-22,10-02-22,20:04:07,Thu Mar 10 2022 20:04:07 GMT+0100 (közép-európai téli idő),The main experiment item,yes,0,0,C:/Users/rrics/Documents/!!ResearchBMECOGSCI/gnet,0,0,0,prototype5.png,no,mono,no,18,no,black,no,no,768,1191,3.5.6,legacy,xpyriment,osweb,1.3.13,0,c,v,c,,63016,57584,63016,,2,legacy,816,1536,24,864,24,0,0,1536,1646939118374,1024,2,48000,-16,experiment,prototype4.png,1,odd,Win32,160,169539,166524,160,160,291230,292733,286226,171056,286226,160,,,,,,visual_patterns,0,0,0,yes,1366
undefined,undefined,undefined,undefined,white,no,Mozilla,Netscape,"5.0 (Windows NT 10.0; Win64; x64) AppleWebKit/537.36 (KHTML, like Gecko) Chrome/99.0.4844.51 Safari/537.36",xpyriment,legacy,legacy,0,uniform,0,0,0,0,24,24,24,0,0,9,9,9,9,9,0,9,0,,,,,,0,,10-02-22,10-02-22,20:04:07,Thu Mar 10 2022 20:04:07 GMT+0100 (közép-európai téli idő),The main experiment item,yes,0,0,C:/Users/rrics/Documents/!!ResearchBMECOGSCI/gnet,0,0,0,prototype5.png,no,mono,no,18,no,black,no,no,768,1191,3.5.6,legacy,xpyriment,osweb,1.3.13,0,c,v,c,,63016,57584,63016,,2,legacy,816,1536,24,864,24,0,0,1536,1646939118374,1024,2,48000,-16,experiment,p5sarrsha1.png,1,odd,Win32,160,169539,166524,160,160,297740,299248,292741,171056,292741,160,,,,,,visual_patterns,0,0,0,yes,1366
undefined,undefined,undefined,undefined,white,no,Mozilla,Netscape,"5.0 (Windows NT 10.0; Win64; x64) AppleWebKit/537.36 (KHTML, like Gecko) Chrome/99.0.4844.51 Safari/537.36",xpyriment,legacy,legacy,0,uniform,0,0,0,0,24,24,24,0,0,10,10,10,10,10,0,10,0,,,,,,0,,10-02-22,10-02-22,20:04:07,Thu Mar 10 2022 20:04:07 GMT+0100 (közép-európai téli idő),The main experiment item,yes,0,0,C:/Users/rrics/Documents/!!ResearchBMECOGSCI/gnet,0,0,0,prototype5.png,no,mono,no,18,no,black,no,no,768,1191,3.5.6,legacy,xpyriment,osweb,1.3.13,0,c,v,c,,63016,57584,63016,,2,legacy,816,1536,24,864,24,0,0,1536,1646939118374,1024,2,48000,-16,experiment,p5sarrcol1.png,1,odd,Win32,160,169539,166524,160,160,304254,305763,299255,171056,299255,160,,,,,,visual_patterns,0,0,0,yes,1366
undefined,undefined,undefined,undefined,white,no,Mozilla,Netscape,"5.0 (Windows NT 10.0; Win64; x64) AppleWebKit/537.36 (KHTML, like Gecko) Chrome/99.0.4844.51 Safari/537.36",xpyriment,legacy,legacy,0,uniform,0,0,0,0,24,24,24,0,0,11,11,11,11,11,0,11,0,,,,,,0,,10-02-22,10-02-22,20:04:07,Thu Mar 10 2022 20:04:07 GMT+0100 (közép-európai téli idő),The main experiment item,yes,0,0,C:/Users/rrics/Documents/!!ResearchBMECOGSCI/gnet,0,0,0,prototype5.png,no,mono,no,18,no,black,no,no,768,1191,3.5.6,legacy,xpyriment,osweb,1.3.13,0,c,v,c,,63016,57584,63016,,2,legacy,816,1536,24,864,24,0,0,1536,1646939118374,1024,2,48000,-16,experiment,p8sarr2.png,1,odd,Win32,160,169539,166524,160,160,310769,312277,305769,171056,305769,160,,,,,,visual_patterns,0,0,0,yes,1366
undefined,undefined,undefined,undefined,white,no,Mozilla,Netscape,"5.0 (Windows NT 10.0; Win64; x64) AppleWebKit/537.36 (KHTML, like Gecko) Chrome/99.0.4844.51 Safari/537.36",xpyriment,legacy,legacy,0,uniform,0,0,0,0,24,24,24,0,0,12,12,12,12,12,0,12,0,,,,,,0,,10-02-22,10-02-22,20:04:07,Thu Mar 10 2022 20:04:07 GMT+0100 (közép-európai téli idő),The main experiment item,yes,0,0,C:/Users/rrics/Documents/!!ResearchBMECOGSCI/gnet,0,0,0,prototype5.png,no,mono,no,18,no,black,no,no,768,1191,3.5.6,legacy,xpyriment,osweb,1.3.13,0,c,v,c,,63016,57584,63016,,2,legacy,816,1536,24,864,24,0,0,1536,1646939118374,1024,2,48000,-16,experiment,p5sarrshacol2.png,1,odd,Win32,160,169539,166524,160,160,317286,318792,312284,171056,312284,160,,,,,,visual_patterns,0,0,0,yes,1366
undefined,undefined,undefined,undefined,white,no,Mozilla,Netscape,"5.0 (Windows NT 10.0; Win64; x64) AppleWebKit/537.36 (KHTML, like Gecko) Chrome/99.0.4844.51 Safari/537.36",xpyriment,legacy,legacy,0,uniform,0,0,0,0,24,24,24,0,0,13,13,13,13,13,0,13,0,,,,,,0,,10-02-22,10-02-22,20:04:07,Thu Mar 10 2022 20:04:07 GMT+0100 (közép-európai téli idő),The main experiment item,yes,0,0,C:/Users/rrics/Documents/!!ResearchBMECOGSCI/gnet,0,0,0,prototype5.png,no,mono,no,18,no,black,no,no,768,1191,3.5.6,legacy,xpyriment,osweb,1.3.13,0,c,v,c,,63016,57584,63016,,2,legacy,816,1536,24,864,24,0,0,1536,1646939118374,1024,2,48000,-16,experiment,p8sarr1.png,1,odd,Win32,160,169539,166524,160,160,323798,325307,318799,171056,318799,160,,,,,,visual_patterns,0,0,0,yes,1366
undefined,undefined,undefined,undefined,white,no,Mozilla,Netscape,"5.0 (Windows NT 10.0; Win64; x64) AppleWebKit/537.36 (KHTML, like Gecko) Chrome/99.0.4844.51 Safari/537.36",xpyriment,legacy,legacy,0,uniform,0,0,0,0,24,24,24,0,0,14,14,14,14,14,0,14,0,,,,,,0,,10-02-22,10-02-22,20:04:07,Thu Mar 10 2022 20:04:07 GMT+0100 (közép-európai téli idő),The main experiment item,yes,0,0,C:/Users/rrics/Documents/!!ResearchBMECOGSCI/gnet,0,0,0,prototype5.png,no,mono,no,18,no,black,no,no,768,1191,3.5.6,legacy,xpyriment,osweb,1.3.13,0,c,v,c,,63016,57584,63016,,2,legacy,816,1536,24,864,24,0,0,1536,1646939118374,1024,2,48000,-16,experiment,p3sarrcol1.png,1,odd,Win32,160,169539,166524,160,160,330315,331821,325314,171056,325314,160,,,,,,visual_patterns,0,0,0,yes,1366
undefined,undefined,undefined,undefined,white,no,Mozilla,Netscape,"5.0 (Windows NT 10.0; Win64; x64) AppleWebKit/537.36 (KHTML, like Gecko) Chrome/99.0.4844.51 Safari/537.36",xpyriment,legacy,legacy,0,uniform,0,0,0,0,24,24,24,0,0,15,15,15,15,15,0,15,0,,,,,,0,,10-02-22,10-02-22,20:04:07,Thu Mar 10 2022 20:04:07 GMT+0100 (közép-európai téli idő),The main experiment item,yes,0,0,C:/Users/rrics/Documents/!!ResearchBMECOGSCI/gnet,0,0,0,prototype5.png,no,mono,no,18,no,black,no,no,768,1191,3.5.6,legacy,xpyriment,osweb,1.3.13,0,c,v,c,,63016,57584,63016,,2,legacy,816,1536,24,864,24,0,0,1536,1646939118374,1024,2,48000,-16,experiment,prototype1.png,1,odd,Win32,160,169539,166524,160,160,336830,338336,331826,171056,331826,160,,,,,,visual_patterns,0,0,0,yes,1366
undefined,undefined,undefined,undefined,white,no,Mozilla,Netscape,"5.0 (Windows NT 10.0; Win64; x64) AppleWebKit/537.36 (KHTML, like Gecko) Chrome/99.0.4844.51 Safari/537.36",xpyriment,legacy,legacy,0,uniform,0,0,0,0,24,24,24,0,0,16,16,16,16,16,0,16,0,,,,,,0,,10-02-22,10-02-22,20:04:07,Thu Mar 10 2022 20:04:07 GMT+0100 (közép-európai téli idő),The main experiment item,yes,0,0,C:/Users/rrics/Documents/!!ResearchBMECOGSCI/gnet,0,0,0,prototype5.png,no,mono,no,18,no,black,no,no,768,1191,3.5.6,legacy,xpyriment,osweb,1.3.13,0,c,v,c,,63016,57584,63016,,2,legacy,816,1536,24,864,24,0,0,1536,1646939118374,1024,2,48000,-16,experiment,p2sarr2.png,1,odd,Win32,160,169539,166524,160,160,343342,344851,338343,171056,338343,160,,,,,,visual_patterns,0,0,0,yes,1366
undefined,undefined,undefined,undefined,white,no,Mozilla,Netscape,"5.0 (Windows NT 10.0; Win64; x64) AppleWebKit/537.36 (KHTML, like Gecko) Chrome/99.0.4844.51 Safari/537.36",xpyriment,legacy,legacy,0,uniform,0,0,0,0,24,24,24,0,0,17,17,17,17,17,0,17,0,,,,,,0,,10-02-22,10-02-22,20:04:07,Thu Mar 10 2022 20:04:07 GMT+0100 (közép-európai téli idő),The main experiment item,yes,0,0,C:/Users/rrics/Documents/!!ResearchBMECOGSCI/gnet,0,0,0,prototype5.png,no,mono,no,18,no,black,no,no,768,1191,3.5.6,legacy,xpyriment,osweb,1.3.13,0,c,v,c,,63016,57584,63016,,2,legacy,816,1536,24,864,24,0,0,1536,1646939118374,1024,2,48000,-16,experiment,p3sarrsha2.png,1,odd,Win32,160,169539,166524,160,160,349859,351365,344857,171056,344857,160,,,,,,visual_patterns,0,0,0,yes,1366
undefined,undefined,undefined,undefined,white,no,Mozilla,Netscape,"5.0 (Windows NT 10.0; Win64; x64) AppleWebKit/537.36 (KHTML, like Gecko) Chrome/99.0.4844.51 Safari/537.36",xpyriment,legacy,legacy,0,uniform,0,0,0,0,24,24,24,0,0,18,18,18,18,18,0,18,0,,,,,,0,,10-02-22,10-02-22,20:04:07,Thu Mar 10 2022 20:04:07 GMT+0100 (közép-európai téli idő),The main experiment item,yes,0,0,C:/Users/rrics/Documents/!!ResearchBMECOGSCI/gnet,0,0,0,prototype5.png,no,mono,no,18,no,black,no,no,768,1191,3.5.6,legacy,xpyriment,osweb,1.3.13,0,c,v,c,,63016,57584,63016,,2,legacy,816,1536,24,864,24,0,0,1536,1646939118374,1024,2,48000,-16,experiment,prototype4.png,1,odd,Win32,160,169539,166524,160,160,356383,357896,351384,171056,351383,160,,,,,,visual_patterns,0,0,0,yes,1366
undefined,undefined,undefined,undefined,white,no,Mozilla,Netscape,"5.0 (Windows NT 10.0; Win64; x64) AppleWebKit/537.36 (KHTML, like Gecko) Chrome/99.0.4844.51 Safari/537.36",xpyriment,legacy,legacy,0,uniform,0,0,0,0,24,24,24,0,0,19,19,19,19,19,0,19,0,,,,,,0,,10-02-22,10-02-22,20:04:07,Thu Mar 10 2022 20:04:07 GMT+0100 (közép-európai téli idő),The main experiment item,yes,0,0,C:/Users/rrics/Documents/!!ResearchBMECOGSCI/gnet,0,0,0,prototype5.png,no,mono,no,18,no,black,no,no,768,1191,3.5.6,legacy,xpyriment,osweb,1.3.13,0,c,v,c,,63016,57584,63016,,2,legacy,816,1536,24,864,24,0,0,1536,1646939118374,1024,2,48000,-16,experiment,p3sarrsha1.png,1,odd,Win32,160,169539,166524,160,160,362904,364411,357904,171056,357904,160,,,,,,visual_patterns,0,0,0,yes,1366
undefined,undefined,undefined,undefined,white,no,Mozilla,Netscape,"5.0 (Windows NT 10.0; Win64; x64) AppleWebKit/537.36 (KHTML, like Gecko) Chrome/99.0.4844.51 Safari/537.36",xpyriment,legacy,legacy,0,uniform,0,0,0,0,24,24,24,0,0,20,20,20,20,20,0,20,0,,,,,,0,,10-02-22,10-02-22,20:04:07,Thu Mar 10 2022 20:04:07 GMT+0100 (közép-európai téli idő),The main experiment item,yes,0,0,C:/Users/rrics/Documents/!!ResearchBMECOGSCI/gnet,0,0,0,prototype5.png,no,mono,no,18,no,black,no,no,768,1191,3.5.6,legacy,xpyriment,osweb,1.3.13,0,c,v,c,,63016,57584,63016,,2,legacy,816,1536,24,864,24,0,0,1536,1646939118374,1024,2,48000,-16,experiment,prototype2.png,1,odd,Win32,160,169539,166524,160,160,369419,370926,364417,171056,364417,160,,,,,,visual_patterns,0,0,0,yes,1366
undefined,undefined,undefined,undefined,white,no,Mozilla,Netscape,"5.0 (Windows NT 10.0; Win64; x64) AppleWebKit/537.36 (KHTML, like Gecko) Chrome/99.0.4844.51 Safari/537.36",xpyriment,legacy,legacy,0,uniform,0,0,0,0,24,24,24,0,0,21,21,21,21,21,0,21,0,,,,,,0,,10-02-22,10-02-22,20:04:07,Thu Mar 10 2022 20:04:07 GMT+0100 (közép-európai téli idő),The main experiment item,yes,0,0,C:/Users/rrics/Documents/!!ResearchBMECOGSCI/gnet,0,0,0,prototype5.png,no,mono,no,18,no,black,no,no,768,1191,3.5.6,legacy,xpyriment,osweb,1.3.13,0,c,v,c,,63016,57584,63016,,2,legacy,816,1536,24,864,24,0,0,1536,1646939118374,1024,2,48000,-16,experiment,p4sarrcol2.png,1,odd,Win32,160,169539,166524,160,160,375935,377440,370933,171056,370933,160,,,,,,visual_patterns,0,0,0,yes,1366
undefined,undefined,undefined,undefined,white,no,Mozilla,Netscape,"5.0 (Windows NT 10.0; Win64; x64) AppleWebKit/537.36 (KHTML, like Gecko) Chrome/99.0.4844.51 Safari/537.36",xpyriment,legacy,legacy,0,uniform,0,0,0,0,24,24,24,0,0,22,22,22,22,22,0,22,0,,,,,,0,,10-02-22,10-02-22,20:04:07,Thu Mar 10 2022 20:04:07 GMT+0100 (közép-európai téli idő),The main experiment item,yes,0,0,C:/Users/rrics/Documents/!!ResearchBMECOGSCI/gnet,0,0,0,prototype5.png,no,mono,no,18,no,black,no,no,768,1191,3.5.6,legacy,xpyriment,osweb,1.3.13,0,c,v,c,,63016,57584,63016,,2,legacy,816,1536,24,864,24,0,0,1536,1646939118374,1024,2,48000,-16,experiment,p5sarrshacol1.png,1,odd,Win32,160,169539,166524,160,160,382447,383955,377447,171056,377447,160,,,,,,visual_patterns,0,0,0,yes,1366
undefined,undefined,undefined,undefined,white,no,Mozilla,Netscape,"5.0 (Windows NT 10.0; Win64; x64) AppleWebKit/537.36 (KHTML, like Gecko) Chrome/99.0.4844.51 Safari/537.36",xpyriment,legacy,legacy,0,uniform,0,0,0,0,24,24,24,0,0,23,23,23,23,23,0,23,0,,,,,,0,,10-02-22,10-02-22,20:04:07,Thu Mar 10 2022 20:04:07 GMT+0100 (közép-európai téli idő),The main experiment item,yes,0,0,C:/Users/rrics/Documents/!!ResearchBMECOGSCI/gnet,0,0,0,prototype5.png,no,mono,no,18,no,black,no,no,768,1191,3.5.6,legacy,xpyriment,osweb,1.3.13,0,c,v,c,,63016,57584,63016,,2,legacy,816,1536,24,864,24,0,0,1536,1646939118374,1024,2,48000,-16,experiment,prototype2.png,1,odd,Win32,160,169539,166524,160,160,388960,390470,383960,171056,383960,160,,,,,,visual_patterns,0,0,0,yes,1366
undefined,undefined,undefined,undefined,white,no,Mozilla,Netscape,"5.0 (Windows NT 10.0; Win64; x64) AppleWebKit/537.36 (KHTML, like Gecko) Chrome/99.0.4844.51 Safari/537.36",xpyriment,legacy,legacy,0,uniform,0,0,0,0,24,24,24,0,0,24,24,24,24,24,0,24,0,,,,,,0,,10-02-22,10-02-22,20:04:07,Thu Mar 10 2022 20:04:07 GMT+0100 (közép-európai téli idő),The main experiment item,yes,0,0,C:/Users/rrics/Documents/!!ResearchBMECOGSCI/gnet,0,0,0,prototype5.png,no,mono,no,18,no,black,no,no,768,1191,3.5.6,legacy,xpyriment,osweb,1.3.13,0,c,v,c,,63016,57584,63016,,2,legacy,816,1536,24,864,24,0,0,1536,1646939118374,1024,2,48000,-16,experiment,p4sarrsha2.png,1,odd,Win32,160,169539,166524,160,160,395477,396984,390477,171056,390477,160,,,,,,visual_patterns,0,0,0,yes,1366
undefined,undefined,undefined,undefined,white,no,Mozilla,Netscape,"5.0 (Windows NT 10.0; Win64; x64) AppleWebKit/537.36 (KHTML, like Gecko) Chrome/99.0.4844.51 Safari/537.36",xpyriment,legacy,legacy,0,uniform,0,0,0,0,24,24,24,0,0,25,25,25,25,25,0,25,0,,,,,,0,,10-02-22,10-02-22,20:04:07,Thu Mar 10 2022 20:04:07 GMT+0100 (közép-európai téli idő),The main experiment item,yes,0,0,C:/Users/rrics/Documents/!!ResearchBMECOGSCI/gnet,0,0,0,prototype5.png,no,mono,no,18,no,black,no,no,768,1191,3.5.6,legacy,xpyriment,osweb,1.3.13,0,c,v,c,,63016,57584,63016,,2,legacy,816,1536,24,864,24,0,0,1536,1646939118374,1024,2,48000,-16,experiment,p9sarr1.png,1,odd,Win32,160,169539,166524,160,160,401994,403499,396992,171056,396992,160,,,,,,visual_patterns,0,0,0,yes,1366
undefined,undefined,undefined,undefined,white,no,Mozilla,Netscape,"5.0 (Windows NT 10.0; Win64; x64) AppleWebKit/537.36 (KHTML, like Gecko) Chrome/99.0.4844.51 Safari/537.36",xpyriment,legacy,legacy,0,uniform,0,0,0,0,24,24,24,0,0,26,26,26,26,26,0,26,0,,,,,,0,,10-02-22,10-02-22,20:04:07,Thu Mar 10 2022 20:04:07 GMT+0100 (közép-európai téli idő),The main experiment item,yes,0,0,C:/Users/rrics/Documents/!!ResearchBMECOGSCI/gnet,0,0,0,prototype5.png,no,mono,no,18,no,black,no,no,768,1191,3.5.6,legacy,xpyriment,osweb,1.3.13,0,c,v,c,,63016,57584,63016,,2,legacy,816,1536,24,864,24,0,0,1536,1646939118374,1024,2,48000,-16,experiment,prototype1.png,1,odd,Win32,160,169539,166524,160,160,408507,410015,403505,171056,403505,160,,,,,,visual_patterns,0,0,0,yes,1366
undefined,undefined,undefined,undefined,white,no,Mozilla,Netscape,"5.0 (Windows NT 10.0; Win64; x64) AppleWebKit/537.36 (KHTML, like Gecko) Chrome/99.0.4844.51 Safari/537.36",xpyriment,legacy,legacy,0,uniform,0,0,0,0,24,24,24,0,0,27,27,27,27,27,0,27,0,,,,,,0,,10-02-22,10-02-22,20:04:07,Thu Mar 10 2022 20:04:07 GMT+0100 (közép-európai téli idő),The main experiment item,yes,0,0,C:/Users/rrics/Documents/!!ResearchBMECOGSCI/gnet,0,0,0,prototype5.png,no,mono,no,18,no,black,no,no,768,1191,3.5.6,legacy,xpyriment,osweb,1.3.13,0,c,v,c,,63016,57584,63016,,2,legacy,816,1536,24,864,24,0,0,1536,1646939118374,1024,2,48000,-16,experiment,p4sarrcol1.png,1,odd,Win32,160,169539,166524,160,160,415025,416528,410024,171056,410024,160,,,,,,visual_patterns,0,0,0,yes,1366
undefined,undefined,undefined,undefined,white,no,Mozilla,Netscape,"5.0 (Windows NT 10.0; Win64; x64) AppleWebKit/537.36 (KHTML, like Gecko) Chrome/99.0.4844.51 Safari/537.36",xpyriment,legacy,legacy,0,uniform,0,0,0,0,24,24,24,0,0,28,28,28,28,28,0,28,0,,,,,,0,,10-02-22,10-02-22,20:04:07,Thu Mar 10 2022 20:04:07 GMT+0100 (közép-európai téli idő),The main experiment item,yes,0,0,C:/Users/rrics/Documents/!!ResearchBMECOGSCI/gnet,0,0,0,prototype5.png,no,mono,no,18,no,black,no,no,768,1191,3.5.6,legacy,xpyriment,osweb,1.3.13,0,c,v,c,,63016,57584,63016,,2,legacy,816,1536,24,864,24,0,0,1536,1646939118374,1024,2,48000,-16,experiment,prototype4.png,1,odd,Win32,160,169539,166524,160,160,421550,423060,416547,171056,416547,160,,,,,,visual_patterns,0,0,0,yes,1366
undefined,undefined,undefined,undefined,white,no,Mozilla,Netscape,"5.0 (Windows NT 10.0; Win64; x64) AppleWebKit/537.36 (KHTML, like Gecko) Chrome/99.0.4844.51 Safari/537.36",xpyriment,legacy,legacy,0,uniform,0,0,0,0,24,24,24,0,0,29,29,29,29,29,0,29,0,,,,,,0,,10-02-22,10-02-22,20:04:07,Thu Mar 10 2022 20:04:07 GMT+0100 (közép-európai téli idő),The main experiment item,yes,0,0,C:/Users/rrics/Documents/!!ResearchBMECOGSCI/gnet,0,0,0,prototype5.png,no,mono,no,18,no,black,no,no,768,1191,3.5.6,legacy,xpyriment,osweb,1.3.13,0,c,v,c,,63016,57584,63016,,2,legacy,816,1536,24,864,24,0,0,1536,1646939118374,1024,2,48000,-16,experiment,prototype5.png,1,odd,Win32,160,169539,166524,160,160,428068,429574,423065,171056,423065,160,,,,,,visual_patterns,0,0,0,yes,1366
undefined,undefined,undefined,undefined,white,no,Mozilla,Netscape,"5.0 (Windows NT 10.0; Win64; x64) AppleWebKit/537.36 (KHTML, like Gecko) Chrome/99.0.4844.51 Safari/537.36",xpyriment,legacy,legacy,0,uniform,0,0,0,0,24,24,24,0,0,30,30,30,30,30,0,30,0,,,,,,0,,10-02-22,10-02-22,20:04:07,Thu Mar 10 2022 20:04:07 GMT+0100 (közép-európai téli idő),The main experiment item,yes,0,0,C:/Users/rrics/Documents/!!ResearchBMECOGSCI/gnet,0,0,0,prototype5.png,no,mono,no,18,no,black,no,no,768,1191,3.5.6,legacy,xpyriment,osweb,1.3.13,0,c,v,c,,63016,57584,63016,,2,legacy,816,1536,24,864,24,0,0,1536,1646939118374,1024,2,48000,-16,experiment,p5sarrcol2.png,1,odd,Win32,160,169539,166524,160,160,434580,436089,429583,171056,429583,160,,,,,,visual_patterns,0,0,0,yes,1366
undefined,undefined,undefined,undefined,white,no,Mozilla,Netscape,"5.0 (Windows NT 10.0; Win64; x64) AppleWebKit/537.36 (KHTML, like Gecko) Chrome/99.0.4844.51 Safari/537.36",xpyriment,legacy,legacy,0,uniform,0,0,0,0,24,24,24,0,0,31,31,31,31,31,0,31,0,,,,,,0,,10-02-22,10-02-22,20:04:07,Thu Mar 10 2022 20:04:07 GMT+0100 (közép-európai téli idő),The main experiment item,yes,0,0,C:/Users/rrics/Documents/!!ResearchBMECOGSCI/gnet,0,0,0,prototype5.png,no,mono,no,18,no,black,no,no,768,1191,3.5.6,legacy,xpyriment,osweb,1.3.13,0,c,v,c,,63016,57584,63016,,2,legacy,816,1536,24,864,24,0,0,1536,1646939118374,1024,2,48000,-16,experiment,p2sarrsha2.png,1,odd,Win32,160,169539,166524,160,160,441097,442603,436095,171056,436095,160,,,,,,visual_patterns,0,0,0,yes,1366
undefined,undefined,undefined,undefined,white,no,Mozilla,Netscape,"5.0 (Windows NT 10.0; Win64; x64) AppleWebKit/537.36 (KHTML, like Gecko) Chrome/99.0.4844.51 Safari/537.36",xpyriment,legacy,legacy,0,uniform,0,0,0,0,24,24,24,0,0,32,32,32,32,32,0,32,0,,,,,,0,,10-02-22,10-02-22,20:04:07,Thu Mar 10 2022 20:04:07 GMT+0100 (közép-európai téli idő),The main experiment item,yes,0,0,C:/Users/rrics/Documents/!!ResearchBMECOGSCI/gnet,0,0,0,prototype5.png,no,mono,no,18,no,black,no,no,768,1191,3.5.6,legacy,xpyriment,osweb,1.3.13,0,c,v,c,,63016,57584,63016,,2,legacy,816,1536,24,864,24,0,0,1536,1646939118374,1024,2,48000,-16,experiment,p5sarr1.png,1,odd,Win32,160,169539,166524,160,160,447612,449118,442610,171056,442610,160,,,,,,visual_patterns,0,0,0,yes,1366
undefined,undefined,undefined,undefined,white,no,Mozilla,Netscape,"5.0 (Windows NT 10.0; Win64; x64) AppleWebKit/537.36 (KHTML, like Gecko) Chrome/99.0.4844.51 Safari/537.36",xpyriment,legacy,legacy,0,uniform,0,0,0,0,24,24,24,0,0,33,33,33,33,33,0,33,0,,,,,,0,,10-02-22,10-02-22,20:04:07,Thu Mar 10 2022 20:04:07 GMT+0100 (közép-európai téli idő),The main experiment item,yes,0,0,C:/Users/rrics/Documents/!!ResearchBMECOGSCI/gnet,0,0,0,prototype5.png,no,mono,no,18,no,black,no,no,768,1191,3.5.6,legacy,xpyriment,osweb,1.3.13,0,c,v,c,,63016,57584,63016,,2,legacy,816,1536,24,864,24,0,0,1536,1646939118374,1024,2,48000,-16,experiment,p3sarrshacol1.png,1,odd,Win32,160,169539,166524,160,160,454125,455633,449125,171056,449125,160,,,,,,visual_patterns,0,0,0,yes,1366
undefined,undefined,undefined,undefined,white,no,Mozilla,Netscape,"5.0 (Windows NT 10.0; Win64; x64) AppleWebKit/537.36 (KHTML, like Gecko) Chrome/99.0.4844.51 Safari/537.36",xpyriment,legacy,legacy,0,uniform,0,0,0,0,24,24,24,0,0,34,34,34,34,34,0,34,0,,,,,,0,,10-02-22,10-02-22,20:04:07,Thu Mar 10 2022 20:04:07 GMT+0100 (közép-európai téli idő),The main experiment item,yes,0,0,C:/Users/rrics/Documents/!!ResearchBMECOGSCI/gnet,0,0,0,prototype5.png,no,mono,no,18,no,black,no,no,768,1191,3.5.6,legacy,xpyriment,osweb,1.3.13,0,c,v,c,,63016,57584,63016,,2,legacy,816,1536,24,864,24,0,0,1536,1646939118374,1024,2,48000,-16,experiment,prototype1.png,1,odd,Win32,160,169539,166524,160,160,460640,462147,455639,171056,455639,160,,,,,,visual_patterns,0,0,0,yes,1366
undefined,undefined,undefined,undefined,white,no,Mozilla,Netscape,"5.0 (Windows NT 10.0; Win64; x64) AppleWebKit/537.36 (KHTML, like Gecko) Chrome/99.0.4844.51 Safari/537.36",xpyriment,legacy,legacy,0,uniform,0,0,0,0,24,24,24,0,0,35,35,35,35,35,0,35,0,,,,,,0,,10-02-22,10-02-22,20:04:07,Thu Mar 10 2022 20:04:07 GMT+0100 (közép-európai téli idő),The main experiment item,yes,0,0,C:/Users/rrics/Documents/!!ResearchBMECOGSCI/gnet,0,0,0,prototype5.png,no,mono,no,18,no,black,no,no,768,1191,3.5.6,legacy,xpyriment,osweb,1.3.13,0,c,v,c,,63016,57584,63016,,2,legacy,816,1536,24,864,24,0,0,1536,1646939118374,1024,2,48000,-16,experiment,p4sarrshacol1.png,1,odd,Win32,160,169539,166524,160,160,467154,468662,462154,171056,462153,160,,,,,,visual_patterns,0,0,0,yes,1366
undefined,undefined,undefined,undefined,white,no,Mozilla,Netscape,"5.0 (Windows NT 10.0; Win64; x64) AppleWebKit/537.36 (KHTML, like Gecko) Chrome/99.0.4844.51 Safari/537.36",xpyriment,legacy,legacy,0,uniform,0,0,0,0,24,24,24,0,0,36,36,36,36,36,0,36,0,,,,,,0,,10-02-22,10-02-22,20:04:07,Thu Mar 10 2022 20:04:07 GMT+0100 (közép-európai téli idő),The main experiment item,yes,0,0,C:/Users/rrics/Documents/!!ResearchBMECOGSCI/gnet,0,0,0,prototype5.png,no,mono,no,18,no,black,no,no,768,1191,3.5.6,legacy,xpyriment,osweb,1.3.13,0,c,v,c,,63016,57584,63016,,2,legacy,816,1536,24,864,24,0,0,1536,1646939118374,1024,2,48000,-16,experiment,prototype3.png,1,odd,Win32,160,169539,166524,160,160,473671,475177,468667,171056,468667,160,,,,,,visual_patterns,0,0,0,yes,1366
undefined,undefined,undefined,undefined,white,no,Mozilla,Netscape,"5.0 (Windows NT 10.0; Win64; x64) AppleWebKit/537.36 (KHTML, like Gecko) Chrome/99.0.4844.51 Safari/537.36",xpyriment,legacy,legacy,0,uniform,0,0,0,0,24,24,24,0,0,37,37,37,37,37,0,37,0,,,,,,0,,10-02-22,10-02-22,20:04:07,Thu Mar 10 2022 20:04:07 GMT+0100 (közép-európai téli idő),The main experiment item,yes,0,0,C:/Users/rrics/Documents/!!ResearchBMECOGSCI/gnet,0,0,0,prototype5.png,no,mono,no,18,no,black,no,no,768,1191,3.5.6,legacy,xpyriment,osweb,1.3.13,0,c,v,c,,63016,57584,63016,,2,legacy,816,1536,24,864,24,0,0,1536,1646939118374,1024,2,48000,-16,experiment,prototype3.png,1,odd,Win32,160,169539,166524,160,160,480185,481691,475182,171056,475182,160,,,,,,visual_patterns,0,0,0,yes,1366
undefined,undefined,undefined,undefined,white,no,Mozilla,Netscape,"5.0 (Windows NT 10.0; Win64; x64) AppleWebKit/537.36 (KHTML, like Gecko) Chrome/99.0.4844.51 Safari/537.36",xpyriment,legacy,legacy,0,uniform,0,0,0,0,24,24,24,0,0,38,38,38,38,38,0,38,0,,,,,,0,,10-02-22,10-02-22,20:04:07,Thu Mar 10 2022 20:04:07 GMT+0100 (közép-európai téli idő),The main experiment item,yes,0,0,C:/Users/rrics/Documents/!!ResearchBMECOGSCI/gnet,0,0,0,prototype5.png,no,mono,no,18,no,black,no,no,768,1191,3.5.6,legacy,xpyriment,osweb,1.3.13,0,c,v,c,,63016,57584,63016,,2,legacy,816,1536,24,864,24,0,0,1536,1646939118374,1024,2,48000,-16,experiment,p7sarr1.png,1,odd,Win32,160,169539,166524,160,160,486710,488223,481710,171056,481710,160,,,,,,visual_patterns,0,0,0,yes,1366
undefined,undefined,undefined,undefined,white,no,Mozilla,Netscape,"5.0 (Windows NT 10.0; Win64; x64) AppleWebKit/537.36 (KHTML, like Gecko) Chrome/99.0.4844.51 Safari/537.36",xpyriment,legacy,legacy,0,uniform,0,0,0,0,24,24,24,0,0,39,39,39,39,39,0,39,0,,,,,,0,,10-02-22,10-02-22,20:04:07,Thu Mar 10 2022 20:04:07 GMT+0100 (közép-európai téli idő),The main experiment item,yes,0,0,C:/Users/rrics/Documents/!!ResearchBMECOGSCI/gnet,0,0,0,prototype5.png,no,mono,no,18,no,black,no,no,768,1191,3.5.6,legacy,xpyriment,osweb,1.3.13,0,c,v,c,,63016,57584,63016,,2,legacy,816,1536,24,864,24,0,0,1536,1646939118374,1024,2,48000,-16,experiment,p1sarrsha1.png,1,odd,Win32,160,169539,166524,160,160,493228,494737,488229,171056,488229,160,,,,,,visual_patterns,0,0,0,yes,1366
undefined,undefined,undefined,undefined,white,no,Mozilla,Netscape,"5.0 (Windows NT 10.0; Win64; x64) AppleWebKit/537.36 (KHTML, like Gecko) Chrome/99.0.4844.51 Safari/537.36",xpyriment,legacy,legacy,0,uniform,0,0,0,0,24,24,24,0,0,40,40,40,40,40,0,40,0,,,,,,0,,10-02-22,10-02-22,20:04:07,Thu Mar 10 2022 20:04:07 GMT+0100 (közép-európai téli idő),The main experiment item,yes,0,0,C:/Users/rrics/Documents/!!ResearchBMECOGSCI/gnet,0,0,0,prototype5.png,no,mono,no,18,no,black,no,no,768,1191,3.5.6,legacy,xpyriment,osweb,1.3.13,0,c,v,c,,63016,57584,63016,,2,legacy,816,1536,24,864,24,0,0,1536,1646939118374,1024,2,48000,-16,experiment,prototype5.png,1,odd,Win32,160,169539,166524,160,160,499744,501252,494743,171056,494743,160,,,,,,visual_patterns,0,0,0,yes,1366
undefined,undefined,undefined,undefined,white,no,Mozilla,Netscape,"5.0 (Windows NT 10.0; Win64; x64) AppleWebKit/537.36 (KHTML, like Gecko) Chrome/99.0.4844.51 Safari/537.36",xpyriment,legacy,legacy,0,uniform,0,0,0,0,24,24,24,0,0,41,41,41,41,41,0,41,0,,,,,,0,,10-02-22,10-02-22,20:04:07,Thu Mar 10 2022 20:04:07 GMT+0100 (közép-európai téli idő),The main experiment item,yes,0,0,C:/Users/rrics/Documents/!!ResearchBMECOGSCI/gnet,0,0,0,prototype5.png,no,mono,no,18,no,black,no,no,768,1191,3.5.6,legacy,xpyriment,osweb,1.3.13,0,c,v,c,,63016,57584,63016,,2,legacy,816,1536,24,864,24,0,0,1536,1646939118374,1024,2,48000,-16,experiment,p3sarrshacol2.png,1,odd,Win32,160,169539,166524,160,160,506257,507766,501260,171056,501260,160,,,,,,visual_patterns,0,0,0,yes,1366
undefined,undefined,undefined,undefined,white,no,Mozilla,Netscape,"5.0 (Windows NT 10.0; Win64; x64) AppleWebKit/537.36 (KHTML, like Gecko) Chrome/99.0.4844.51 Safari/537.36",xpyriment,legacy,legacy,0,uniform,0,0,0,0,24,24,24,0,0,42,42,42,42,42,0,42,0,,,,,,0,,10-02-22,10-02-22,20:04:07,Thu Mar 10 2022 20:04:07 GMT+0100 (közép-európai téli idő),The main experiment item,yes,0,0,C:/Users/rrics/Documents/!!ResearchBMECOGSCI/gnet,0,0,0,prototype5.png,no,mono,no,18,no,black,no,no,768,1191,3.5.6,legacy,xpyriment,osweb,1.3.13,0,c,v,c,,63016,57584,63016,,2,legacy,816,1536,24,864,24,0,0,1536,1646939118374,1024,2,48000,-16,experiment,p3sarrcol2.png,1,odd,Win32,160,169539,166524,160,160,512775,514281,507773,171056,507773,160,,,,,,visual_patterns,0,0,0,yes,1366
undefined,undefined,undefined,undefined,white,no,Mozilla,Netscape,"5.0 (Windows NT 10.0; Win64; x64) AppleWebKit/537.36 (KHTML, like Gecko) Chrome/99.0.4844.51 Safari/537.36",xpyriment,legacy,legacy,0,uniform,0,0,0,0,24,24,24,0,0,43,43,43,43,43,0,43,0,,,,,,0,,10-02-22,10-02-22,20:04:07,Thu Mar 10 2022 20:04:07 GMT+0100 (közép-európai téli idő),The main experiment item,yes,0,0,C:/Users/rrics/Documents/!!ResearchBMECOGSCI/gnet,0,0,0,prototype5.png,no,mono,no,18,no,black,no,no,768,1191,3.5.6,legacy,xpyriment,osweb,1.3.13,0,c,v,c,,63016,57584,63016,,2,legacy,816,1536,24,864,24,0,0,1536,1646939118374,1024,2,48000,-16,experiment,p3sarr2.png,1,odd,Win32,160,169539,166524,160,160,519287,520796,514288,171056,514288,160,,,,,,visual_patterns,0,0,0,yes,1366
undefined,undefined,undefined,undefined,white,no,Mozilla,Netscape,"5.0 (Windows NT 10.0; Win64; x64) AppleWebKit/537.36 (KHTML, like Gecko) Chrome/99.0.4844.51 Safari/537.36",xpyriment,legacy,legacy,0,uniform,0,0,0,0,24,24,24,0,0,44,44,44,44,44,0,44,0,,,,,,0,,10-02-22,10-02-22,20:04:07,Thu Mar 10 2022 20:04:07 GMT+0100 (közép-európai téli idő),The main experiment item,yes,0,0,C:/Users/rrics/Documents/!!ResearchBMECOGSCI/gnet,0,0,0,prototype5.png,no,mono,no,18,no,black,no,no,768,1191,3.5.6,legacy,xpyriment,osweb,1.3.13,0,c,v,c,,63016,57584,63016,,2,legacy,816,1536,24,864,24,0,0,1536,1646939118374,1024,2,48000,-16,experiment,p2sarrsha1.png,1,odd,Win32,160,169539,166524,160,160,525807,527310,520803,171056,520803,160,,,,,,visual_patterns,0,0,0,yes,1366
undefined,undefined,undefined,undefined,white,no,Mozilla,Netscape,"5.0 (Windows NT 10.0; Win64; x64) AppleWebKit/537.36 (KHTML, like Gecko) Chrome/99.0.4844.51 Safari/537.36",xpyriment,legacy,legacy,0,uniform,0,0,0,0,24,24,24,0,0,45,45,45,45,45,0,45,0,,,,,,0,,10-02-22,10-02-22,20:04:07,Thu Mar 10 2022 20:04:07 GMT+0100 (közép-európai téli idő),The main experiment item,yes,0,0,C:/Users/rrics/Documents/!!ResearchBMECOGSCI/gnet,0,0,0,prototype5.png,no,mono,no,18,no,black,no,no,768,1191,3.5.6,legacy,xpyriment,osweb,1.3.13,0,c,v,c,,63016,57584,63016,,2,legacy,816,1536,24,864,24,0,0,1536,1646939118374,1024,2,48000,-16,experiment,p4sarrsha1.png,1,odd,Win32,160,169539,166524,160,160,532317,533825,527317,171056,527317,160,,,,,,visual_patterns,0,0,0,yes,1366
undefined,undefined,undefined,undefined,white,no,Mozilla,Netscape,"5.0 (Windows NT 10.0; Win64; x64) AppleWebKit/537.36 (KHTML, like Gecko) Chrome/99.0.4844.51 Safari/537.36",xpyriment,legacy,legacy,0,uniform,0,0,0,0,24,24,24,0,0,46,46,46,46,46,0,46,0,,,,,,0,,10-02-22,10-02-22,20:04:07,Thu Mar 10 2022 20:04:07 GMT+0100 (közép-európai téli idő),The main experiment item,yes,0,0,C:/Users/rrics/Documents/!!ResearchBMECOGSCI/gnet,0,0,0,prototype5.png,no,mono,no,18,no,black,no,no,768,1191,3.5.6,legacy,xpyriment,osweb,1.3.13,0,c,v,c,,63016,57584,63016,,2,legacy,816,1536,24,864,24,0,0,1536,1646939118374,1024,2,48000,-16,experiment,p1sarrcol1.png,1,odd,Win32,160,169539,166524,160,160,538831,540340,533832,171056,533832,160,,,,,,visual_patterns,0,0,0,yes,1366
undefined,undefined,undefined,undefined,white,no,Mozilla,Netscape,"5.0 (Windows NT 10.0; Win64; x64) AppleWebKit/537.36 (KHTML, like Gecko) Chrome/99.0.4844.51 Safari/537.36",xpyriment,legacy,legacy,0,uniform,0,0,0,0,24,24,24,0,0,47,47,47,47,47,0,47,0,,,,,,0,,10-02-22,10-02-22,20:04:07,Thu Mar 10 2022 20:04:07 GMT+0100 (közép-európai téli idő),The main experiment item,yes,0,0,C:/Users/rrics/Documents/!!ResearchBMECOGSCI/gnet,0,0,0,prototype5.png,no,mono,no,18,no,black,no,no,768,1191,3.5.6,legacy,xpyriment,osweb,1.3.13,0,c,v,c,,63016,57584,63016,,2,legacy,816,1536,24,864,24,0,0,1536,1646939118374,1024,2,48000,-16,experiment,p1sarrsha2.png,1,odd,Win32,160,169539,166524,160,160,545350,546854,540347,171056,540347,160,,,,,,visual_patterns,0,0,0,yes,1366
undefined,undefined,undefined,undefined,white,no,Mozilla,Netscape,"5.0 (Windows NT 10.0; Win64; x64) AppleWebKit/537.36 (KHTML, like Gecko) Chrome/99.0.4844.51 Safari/537.36",xpyriment,legacy,legacy,0,uniform,0,0,0,0,24,24,24,0,0,48,48,48,48,48,0,48,0,,,,,,0,,10-02-22,10-02-22,20:04:07,Thu Mar 10 2022 20:04:07 GMT+0100 (közép-európai téli idő),The main experiment item,yes,0,0,C:/Users/rrics/Documents/!!ResearchBMECOGSCI/gnet,0,0,0,prototype5.png,no,mono,no,18,no,black,no,no,768,1191,3.5.6,legacy,xpyriment,osweb,1.3.13,0,c,v,c,,63016,57584,63016,,2,legacy,816,1536,24,864,24,0,0,1536,1646939118374,1024,2,48000,-16,experiment,p7sarr2.png,1,odd,Win32,160,169539,166524,160,160,551861,553369,546861,171056,546861,160,,,,,,visual_patterns,0,0,0,yes,1366
undefined,undefined,undefined,undefined,white,no,Mozilla,Netscape,"5.0 (Windows NT 10.0; Win64; x64) AppleWebKit/537.36 (KHTML, like Gecko) Chrome/99.0.4844.51 Safari/537.36",xpyriment,legacy,legacy,0,uniform,0,0,0,0,24,24,24,0,0,49,49,49,49,49,0,49,0,,,,,,0,,10-02-22,10-02-22,20:04:07,Thu Mar 10 2022 20:04:07 GMT+0100 (közép-európai téli idő),The main experiment item,yes,0,0,C:/Users/rrics/Documents/!!ResearchBMECOGSCI/gnet,0,0,0,prototype5.png,no,mono,no,18,no,black,no,no,768,1191,3.5.6,legacy,xpyriment,osweb,1.3.13,0,c,v,c,,63016,57584,63016,,2,legacy,816,1536,24,864,24,0,0,1536,1646939118374,1024,2,48000,-16,experiment,p4sarr1.png,1,odd,Win32,160,169539,166524,160,160,558375,559884,553376,171056,553376,160,,,,,,visual_patterns,0,0,0,yes,1366
undefined,undefined,undefined,undefined,white,no,Mozilla,Netscape,"5.0 (Windows NT 10.0; Win64; x64) AppleWebKit/537.36 (KHTML, like Gecko) Chrome/99.0.4844.51 Safari/537.36",xpyriment,legacy,legacy,0,uniform,0,0,0,0,24,24,24,0,0,50,50,50,50,50,0,50,0,,,,,,0,,10-02-22,10-02-22,20:04:07,Thu Mar 10 2022 20:04:07 GMT+0100 (közép-európai téli idő),The main experiment item,yes,0,0,C:/Users/rrics/Documents/!!ResearchBMECOGSCI/gnet,0,0,0,prototype5.png,no,mono,no,18,no,black,no,no,768,1191,3.5.6,legacy,xpyriment,osweb,1.3.13,0,c,v,c,,63016,57584,63016,,2,legacy,816,1536,24,864,24,0,0,1536,1646939118374,1024,2,48000,-16,experiment,p10sarr1.png,1,odd,Win32,160,169539,166524,160,160,564891,566398,559890,171056,559890,160,,,,,,visual_patterns,0,0,0,yes,1366
undefined,undefined,undefined,undefined,white,no,Mozilla,Netscape,"5.0 (Windows NT 10.0; Win64; x64) AppleWebKit/537.36 (KHTML, like Gecko) Chrome/99.0.4844.51 Safari/537.36",xpyriment,legacy,legacy,0,uniform,0,0,0,0,24,24,24,0,0,51,51,51,51,51,0,51,0,,,,,,0,,10-02-22,10-02-22,20:04:07,Thu Mar 10 2022 20:04:07 GMT+0100 (közép-európai téli idő),The main experiment item,yes,0,0,C:/Users/rrics/Documents/!!ResearchBMECOGSCI/gnet,0,0,0,prototype5.png,no,mono,no,18,no,black,no,no,768,1191,3.5.6,legacy,xpyriment,osweb,1.3.13,0,c,v,c,,63016,57584,63016,,2,legacy,816,1536,24,864,24,0,0,1536,1646939118374,1024,2,48000,-16,experiment,prototype3.png,1,odd,Win32,160,169539,166524,160,160,571404,572913,566404,171056,566404,160,,,,,,visual_patterns,0,0,0,yes,1366
undefined,undefined,undefined,undefined,white,no,Mozilla,Netscape,"5.0 (Windows NT 10.0; Win64; x64) AppleWebKit/537.36 (KHTML, like Gecko) Chrome/99.0.4844.51 Safari/537.36",xpyriment,legacy,legacy,0,uniform,0,0,0,0,24,24,24,0,0,52,52,52,52,52,0,52,0,,,,,,0,,10-02-22,10-02-22,20:04:07,Thu Mar 10 2022 20:04:07 GMT+0100 (közép-európai téli idő),The main experiment item,yes,0,0,C:/Users/rrics/Documents/!!ResearchBMECOGSCI/gnet,0,0,0,prototype5.png,no,mono,no,18,no,black,no,no,768,1191,3.5.6,legacy,xpyriment,osweb,1.3.13,0,c,v,c,,63016,57584,63016,,2,legacy,816,1536,24,864,24,0,0,1536,1646939118374,1024,2,48000,-16,experiment,p1sarr1.png,1,odd,Win32,160,169539,166524,160,160,577920,579427,572921,171056,572921,160,,,,,,visual_patterns,0,0,0,yes,1366
undefined,undefined,undefined,undefined,white,no,Mozilla,Netscape,"5.0 (Windows NT 10.0; Win64; x64) AppleWebKit/537.36 (KHTML, like Gecko) Chrome/99.0.4844.51 Safari/537.36",xpyriment,legacy,legacy,0,uniform,0,0,0,0,24,24,24,0,0,53,53,53,53,53,0,53,0,,,,,,0,,10-02-22,10-02-22,20:04:07,Thu Mar 10 2022 20:04:07 GMT+0100 (közép-európai téli idő),The main experiment item,yes,0,0,C:/Users/rrics/Documents/!!ResearchBMECOGSCI/gnet,0,0,0,prototype5.png,no,mono,no,18,no,black,no,no,768,1191,3.5.6,legacy,xpyriment,osweb,1.3.13,0,c,v,c,,63016,57584,63016,,2,legacy,816,1536,24,864,24,0,0,1536,1646939118374,1024,2,48000,-16,experiment,p1sarrcol2.png,1,odd,Win32,160,169539,166524,160,160,584436,585942,579435,171056,579435,160,,,,,,visual_patterns,0,0,0,yes,1366
undefined,undefined,undefined,undefined,white,no,Mozilla,Netscape,"5.0 (Windows NT 10.0; Win64; x64) AppleWebKit/537.36 (KHTML, like Gecko) Chrome/99.0.4844.51 Safari/537.36",xpyriment,legacy,legacy,0,uniform,0,0,0,0,24,24,24,0,0,54,54,54,54,54,0,54,0,,,,,,0,,10-02-22,10-02-22,20:04:07,Thu Mar 10 2022 20:04:07 GMT+0100 (közép-európai téli idő),The main experiment item,yes,0,0,C:/Users/rrics/Documents/!!ResearchBMECOGSCI/gnet,0,0,0,prototype5.png,no,mono,no,18,no,black,no,no,768,1191,3.5.6,legacy,xpyriment,osweb,1.3.13,0,c,v,c,,63016,57584,63016,,2,legacy,816,1536,24,864,24,0,0,1536,1646939118374,1024,2,48000,-16,experiment,p2sarrcol2.png,1,odd,Win32,160,169539,166524,160,160,590951,592457,585950,171056,585950,160,,,,,,visual_patterns,0,0,0,yes,1366
undefined,undefined,undefined,undefined,white,no,Mozilla,Netscape,"5.0 (Windows NT 10.0; Win64; x64) AppleWebKit/537.36 (KHTML, like Gecko) Chrome/99.0.4844.51 Safari/537.36",xpyriment,legacy,legacy,0,uniform,0,0,0,0,24,24,24,0,0,55,55,55,55,55,0,55,0,,,,,,0,,10-02-22,10-02-22,20:04:07,Thu Mar 10 2022 20:04:07 GMT+0100 (közép-európai téli idő),The main experiment item,yes,0,0,C:/Users/rrics/Documents/!!ResearchBMECOGSCI/gnet,0,0,0,prototype5.png,no,mono,no,18,no,black,no,no,768,1191,3.5.6,legacy,xpyriment,osweb,1.3.13,0,c,v,c,,63016,57584,63016,,2,legacy,816,1536,24,864,24,0,0,1536,1646939118374,1024,2,48000,-16,experiment,prototype4.png,1,odd,Win32,160,169539,166524,160,160,597463,598971,592463,171056,592463,160,,,,,,visual_patterns,0,0,0,yes,1366
undefined,undefined,undefined,undefined,white,no,Mozilla,Netscape,"5.0 (Windows NT 10.0; Win64; x64) AppleWebKit/537.36 (KHTML, like Gecko) Chrome/99.0.4844.51 Safari/537.36",xpyriment,legacy,legacy,0,uniform,0,0,0,0,24,24,24,0,0,56,56,56,56,56,0,56,0,,,,,,0,,10-02-22,10-02-22,20:04:07,Thu Mar 10 2022 20:04:07 GMT+0100 (közép-európai téli idő),The main experiment item,yes,0,0,C:/Users/rrics/Documents/!!ResearchBMECOGSCI/gnet,0,0,0,prototype5.png,no,mono,no,18,no,black,no,no,768,1191,3.5.6,legacy,xpyriment,osweb,1.3.13,0,c,v,c,,63016,57584,63016,,2,legacy,816,1536,24,864,24,0,0,1536,1646939118374,1024,2,48000,-16,experiment,p2sarrshacol1.png,1,odd,Win32,160,169539,166524,160,160,603978,605486,598978,171056,598978,160,,,,,,visual_patterns,0,0,0,yes,1366
undefined,undefined,undefined,undefined,white,no,Mozilla,Netscape,"5.0 (Windows NT 10.0; Win64; x64) AppleWebKit/537.36 (KHTML, like Gecko) Chrome/99.0.4844.51 Safari/537.36",xpyriment,legacy,legacy,0,uniform,0,0,0,0,24,24,24,0,0,57,57,57,57,57,0,57,0,,,,,,0,,10-02-22,10-02-22,20:04:07,Thu Mar 10 2022 20:04:07 GMT+0100 (közép-európai téli idő),The main experiment item,yes,0,0,C:/Users/rrics/Documents/!!ResearchBMECOGSCI/gnet,0,0,0,prototype5.png,no,mono,no,18,no,black,no,no,768,1191,3.5.6,legacy,xpyriment,osweb,1.3.13,0,c,v,c,,63016,57584,63016,,2,legacy,816,1536,24,864,24,0,0,1536,1646939118374,1024,2,48000,-16,experiment,prototype5.png,1,odd,Win32,160,169539,166524,160,160,610494,612001,605492,171056,605492,160,,,,,,visual_patterns,0,0,0,yes,1366
undefined,undefined,undefined,undefined,white,no,Mozilla,Netscape,"5.0 (Windows NT 10.0; Win64; x64) AppleWebKit/537.36 (KHTML, like Gecko) Chrome/99.0.4844.51 Safari/537.36",xpyriment,legacy,legacy,0,uniform,0,0,0,0,24,24,24,0,0,58,58,58,58,58,0,58,0,,,,,,0,,10-02-22,10-02-22,20:04:07,Thu Mar 10 2022 20:04:07 GMT+0100 (közép-európai téli idő),The main experiment item,yes,0,0,C:/Users/rrics/Documents/!!ResearchBMECOGSCI/gnet,0,0,0,prototype5.png,no,mono,no,18,no,black,no,no,768,1191,3.5.6,legacy,xpyriment,osweb,1.3.13,0,c,v,c,,63016,57584,63016,,2,legacy,816,1536,24,864,24,0,0,1536,1646939118374,1024,2,48000,-16,experiment,prototype2.png,1,odd,Win32,160,169539,166524,160,160,617006,618515,612006,171056,612006,160,,,,,,visual_patterns,0,0,0,yes,1366
undefined,undefined,undefined,undefined,white,no,Mozilla,Netscape,"5.0 (Windows NT 10.0; Win64; x64) AppleWebKit/537.36 (KHTML, like Gecko) Chrome/99.0.4844.51 Safari/537.36",xpyriment,legacy,legacy,0,uniform,0,0,0,0,24,24,24,0,0,59,59,59,59,59,0,59,0,,,,,,0,,10-02-22,10-02-22,20:04:07,Thu Mar 10 2022 20:04:07 GMT+0100 (közép-európai téli idő),The main experiment item,yes,0,0,C:/Users/rrics/Documents/!!ResearchBMECOGSCI/gnet,0,0,0,prototype5.png,no,mono,no,18,no,black,no,no,768,1191,3.5.6,legacy,xpyriment,osweb,1.3.13,0,c,v,c,,63016,57584,63016,,2,legacy,816,1536,24,864,24,0,0,1536,1646939118374,1024,2,48000,-16,experiment,prototype5.png,1,odd,Win32,160,169539,166524,160,160,623522,625030,618521,171056,618521,160,,,,,,visual_patterns,0,0,0,yes,1366
undefined,undefined,undefined,undefined,white,no,Mozilla,Netscape,"5.0 (Windows NT 10.0; Win64; x64) AppleWebKit/537.36 (KHTML, like Gecko) Chrome/99.0.4844.51 Safari/537.36",xpyriment,legacy,legacy,0,uniform,0,0,0,0,24,24,24,0,0,60,60,60,60,60,0,60,0,,,,,,0,,10-02-22,10-02-22,20:04:07,Thu Mar 10 2022 20:04:07 GMT+0100 (közép-európai téli idő),The main experiment item,yes,0,0,C:/Users/rrics/Documents/!!ResearchBMECOGSCI/gnet,0,0,0,prototype5.png,no,mono,no,18,no,black,no,no,768,1191,3.5.6,legacy,xpyriment,osweb,1.3.13,0,c,v,c,,63016,57584,63016,,2,legacy,816,1536,24,864,24,0,0,1536,1646939118374,1024,2,48000,-16,experiment,p1sarrshacol2.png,1,odd,Win32,160,169539,166524,160,160,630036,631544,625037,171056,625037,160,,,,,,visual_patterns,0,0,0,yes,1366
undefined,undefined,undefined,undefined,white,no,Mozilla,Netscape,"5.0 (Windows NT 10.0; Win64; x64) AppleWebKit/537.36 (KHTML, like Gecko) Chrome/99.0.4844.51 Safari/537.36",xpyriment,legacy,legacy,0,uniform,0,0,0,0,24,24,24,0,0,61,61,61,61,61,0,61,0,,,,,,0,,10-02-22,10-02-22,20:04:07,Thu Mar 10 2022 20:04:07 GMT+0100 (közép-európai téli idő),The main experiment item,yes,0,0,C:/Users/rrics/Documents/!!ResearchBMECOGSCI/gnet,0,0,0,prototype5.png,no,mono,no,18,no,black,no,no,768,1191,3.5.6,legacy,xpyriment,osweb,1.3.13,0,c,v,c,,63016,57584,63016,,2,legacy,816,1536,24,864,24,0,0,1536,1646939118374,1024,2,48000,-16,experiment,p2sarrcol1.png,1,odd,Win32,160,169539,166524,160,160,636551,638059,631551,171056,631551,160,,,,,,visual_patterns,0,0,0,yes,1366
undefined,undefined,undefined,undefined,white,no,Mozilla,Netscape,"5.0 (Windows NT 10.0; Win64; x64) AppleWebKit/537.36 (KHTML, like Gecko) Chrome/99.0.4844.51 Safari/537.36",xpyriment,legacy,legacy,0,uniform,0,0,0,0,24,24,24,0,0,62,62,62,62,62,0,62,0,,,,,,0,,10-02-22,10-02-22,20:04:07,Thu Mar 10 2022 20:04:07 GMT+0100 (közép-európai téli idő),The main experiment item,yes,0,0,C:/Users/rrics/Documents/!!ResearchBMECOGSCI/gnet,0,0,0,prototype5.png,no,mono,no,18,no,black,no,no,768,1191,3.5.6,legacy,xpyriment,osweb,1.3.13,0,c,v,c,,63016,57584,63016,,2,legacy,816,1536,24,864,24,0,0,1536,1646939118374,1024,2,48000,-16,experiment,p5sarr2.png,1,odd,Win32,160,169539,166524,160,160,643068,644574,638068,171056,638068,160,,,,,,visual_patterns,0,0,0,yes,1366
undefined,undefined,undefined,undefined,white,no,Mozilla,Netscape,"5.0 (Windows NT 10.0; Win64; x64) AppleWebKit/537.36 (KHTML, like Gecko) Chrome/99.0.4844.51 Safari/537.36",xpyriment,legacy,legacy,0,uniform,0,0,0,0,24,24,24,0,0,63,63,63,63,63,0,63,0,,,,,,0,,10-02-22,10-02-22,20:04:07,Thu Mar 10 2022 20:04:07 GMT+0100 (közép-európai téli idő),The main experiment item,yes,0,0,C:/Users/rrics/Documents/!!ResearchBMECOGSCI/gnet,0,0,0,prototype5.png,no,mono,no,18,no,black,no,no,768,1191,3.5.6,legacy,xpyriment,osweb,1.3.13,0,c,v,c,,63016,57584,63016,,2,legacy,816,1536,24,864,24,0,0,1536,1646939118374,1024,2,48000,-16,experiment,p10sarr2.png,1,odd,Win32,160,169539,166524,160,160,649594,651105,644595,171056,644595,160,,,,,,visual_patterns,0,0,0,yes,1366
undefined,undefined,undefined,undefined,white,no,Mozilla,Netscape,"5.0 (Windows NT 10.0; Win64; x64) AppleWebKit/537.36 (KHTML, like Gecko) Chrome/99.0.4844.51 Safari/537.36",xpyriment,legacy,legacy,0,uniform,0,0,0,0,24,24,24,0,0,64,64,64,64,64,0,64,0,,,,,,0,,10-02-22,10-02-22,20:04:07,Thu Mar 10 2022 20:04:07 GMT+0100 (közép-európai téli idő),The main experiment item,yes,0,0,C:/Users/rrics/Documents/!!ResearchBMECOGSCI/gnet,0,0,0,prototype5.png,no,mono,no,18,no,black,no,no,768,1191,3.5.6,legacy,xpyriment,osweb,1.3.13,0,c,v,c,,63016,57584,63016,,2,legacy,816,1536,24,864,24,0,0,1536,1646939118374,1024,2,48000,-16,experiment,prototype1.png,1,odd,Win32,160,169539,166524,160,160,656113,657620,651110,171056,651110,160,,,,,,visual_patterns,0,0,0,yes,1366
undefined,undefined,undefined,undefined,white,no,Mozilla,Netscape,"5.0 (Windows NT 10.0; Win64; x64) AppleWebKit/537.36 (KHTML, like Gecko) Chrome/99.0.4844.51 Safari/537.36",xpyriment,legacy,legacy,0,uniform,0,0,0,0,24,24,24,0,0,65,65,65,65,65,0,65,0,,,,,,0,,10-02-22,10-02-22,20:04:07,Thu Mar 10 2022 20:04:07 GMT+0100 (közép-európai téli idő),The main experiment item,yes,0,0,C:/Users/rrics/Documents/!!ResearchBMECOGSCI/gnet,0,0,0,prototype5.png,no,mono,no,18,no,black,no,no,768,1191,3.5.6,legacy,xpyriment,osweb,1.3.13,0,c,v,c,,63016,57584,63016,,2,legacy,816,1536,24,864,24,0,0,1536,1646939118374,1024,2,48000,-16,experiment,prototype4.png,1,odd,Win32,160,169539,166524,160,160,662626,664134,657625,171056,657625,160,,,,,,visual_patterns,0,0,0,yes,1366
undefined,undefined,undefined,undefined,white,no,Mozilla,Netscape,"5.0 (Windows NT 10.0; Win64; x64) AppleWebKit/537.36 (KHTML, like Gecko) Chrome/99.0.4844.51 Safari/537.36",xpyriment,legacy,legacy,0,uniform,0,0,0,0,24,24,24,0,0,66,66,66,66,66,0,66,0,,,,,,0,,10-02-22,10-02-22,20:04:07,Thu Mar 10 2022 20:04:07 GMT+0100 (közép-európai téli idő),The main experiment item,yes,0,0,C:/Users/rrics/Documents/!!ResearchBMECOGSCI/gnet,0,0,0,prototype5.png,no,mono,no,18,no,black,no,no,768,1191,3.5.6,legacy,xpyriment,osweb,1.3.13,0,c,v,c,,63016,57584,63016,,2,legacy,816,1536,24,864,24,0,0,1536,1646939118374,1024,2,48000,-16,experiment,p2sarrshacol2.png,1,odd,Win32,160,169539,166524,160,160,669143,670649,664141,171056,664141,160,,,,,,visual_patterns,0,0,0,yes,1366
undefined,undefined,undefined,undefined,white,no,Mozilla,Netscape,"5.0 (Windows NT 10.0; Win64; x64) AppleWebKit/537.36 (KHTML, like Gecko) Chrome/99.0.4844.51 Safari/537.36",xpyriment,legacy,legacy,0,uniform,0,0,0,0,24,24,24,0,0,67,67,67,67,67,0,67,0,,,,,,0,,10-02-22,10-02-22,20:04:07,Thu Mar 10 2022 20:04:07 GMT+0100 (közép-európai téli idő),The main experiment item,yes,0,0,C:/Users/rrics/Documents/!!ResearchBMECOGSCI/gnet,0,0,0,prototype5.png,no,mono,no,18,no,black,no,no,768,1191,3.5.6,legacy,xpyriment,osweb,1.3.13,0,c,v,c,,63016,57584,63016,,2,legacy,816,1536,24,864,24,0,0,1536,1646939118374,1024,2,48000,-16,experiment,p1sarr2.png,1,odd,Win32,160,169539,166524,160,160,675655,677164,670656,171056,670656,160,,,,,,visual_patterns,0,0,0,yes,1366
undefined,undefined,undefined,undefined,white,no,Mozilla,Netscape,"5.0 (Windows NT 10.0; Win64; x64) AppleWebKit/537.36 (KHTML, like Gecko) Chrome/99.0.4844.51 Safari/537.36",xpyriment,legacy,legacy,0,uniform,0,0,0,0,24,24,24,0,0,68,68,68,68,68,0,68,0,,,,,,0,,10-02-22,10-02-22,20:04:07,Thu Mar 10 2022 20:04:07 GMT+0100 (közép-európai téli idő),The main experiment item,yes,0,0,C:/Users/rrics/Documents/!!ResearchBMECOGSCI/gnet,0,0,0,prototype5.png,no,mono,no,18,no,black,no,no,768,1191,3.5.6,legacy,xpyriment,osweb,1.3.13,0,c,v,c,,63016,57584,63016,,2,legacy,816,1536,24,864,24,0,0,1536,1646939118374,1024,2,48000,-16,experiment,p6sarr2.png,1,odd,Win32,160,169539,166524,160,160,682185,683695,677184,171056,677184,160,,,,,,visual_patterns,0,0,0,yes,1366
undefined,undefined,undefined,undefined,white,no,Mozilla,Netscape,"5.0 (Windows NT 10.0; Win64; x64) AppleWebKit/537.36 (KHTML, like Gecko) Chrome/99.0.4844.51 Safari/537.36",xpyriment,legacy,legacy,0,uniform,0,0,0,0,24,24,24,0,0,69,69,69,69,69,0,69,0,,,,,,0,,10-02-22,10-02-22,20:04:07,Thu Mar 10 2022 20:04:07 GMT+0100 (közép-európai téli idő),The main experiment item,yes,0,0,C:/Users/rrics/Documents/!!ResearchBMECOGSCI/gnet,0,0,0,prototype5.png,no,mono,no,18,no,black,no,no,768,1191,3.5.6,legacy,xpyriment,osweb,1.3.13,0,c,v,c,,63016,57584,63016,,2,legacy,816,1536,24,864,24,0,0,1536,1646939118374,1024,2,48000,-16,experiment,prototype2.png,1,odd,Win32,160,169539,166524,160,160,688703,690210,683701,171056,683701,160,,,,,,visual_patterns,0,0,0,yes,1366
undefined,undefined,undefined,undefined,white,no,Mozilla,Netscape,"5.0 (Windows NT 10.0; Win64; x64) AppleWebKit/537.36 (KHTML, like Gecko) Chrome/99.0.4844.51 Safari/537.36",xpyriment,legacy,legacy,0,uniform,0,0,0,0,24,24,24,0,0,70,70,70,70,70,0,70,0,,,,,,0,,10-02-22,10-02-22,20:04:07,Thu Mar 10 2022 20:04:07 GMT+0100 (közép-európai téli idő),The main experiment item,yes,0,0,C:/Users/rrics/Documents/!!ResearchBMECOGSCI/gnet,0,0,0,prototype5.png,no,mono,no,18,no,black,no,no,768,1191,3.5.6,legacy,xpyriment,osweb,1.3.13,0,c,v,c,,63016,57584,63016,,2,legacy,816,1536,24,864,24,0,0,1536,1646939118374,1024,2,48000,-16,experiment,p1sarrshacol1.png,1,odd,Win32,160,169539,166524,160,160,695217,696724,690217,171056,690217,160,,,,,,visual_patterns,0,0,0,yes,1366
undefined,undefined,undefined,undefined,white,no,Mozilla,Netscape,"5.0 (Windows NT 10.0; Win64; x64) AppleWebKit/537.36 (KHTML, like Gecko) Chrome/99.0.4844.51 Safari/537.36",xpyriment,legacy,legacy,0,uniform,0,0,0,0,24,24,24,0,0,71,71,71,71,71,0,71,0,,,,,,0,,10-02-22,10-02-22,20:04:07,Thu Mar 10 2022 20:04:07 GMT+0100 (közép-európai téli idő),The main experiment item,yes,0,0,C:/Users/rrics/Documents/!!ResearchBMECOGSCI/gnet,0,0,0,prototype5.png,no,mono,no,18,no,black,no,no,768,1191,3.5.6,legacy,xpyriment,osweb,1.3.13,0,c,v,c,,63016,57584,63016,,2,legacy,816,1536,24,864,24,0,0,1536,1646939118374,1024,2,48000,-16,experiment,prototype1.png,1,odd,Win32,160,169539,166524,160,160,701733,703239,696730,171056,696730,160,,,,,,visual_patterns,0,0,0,yes,1366
undefined,undefined,undefined,undefined,white,no,Mozilla,Netscape,"5.0 (Windows NT 10.0; Win64; x64) AppleWebKit/537.36 (KHTML, like Gecko) Chrome/99.0.4844.51 Safari/537.36",xpyriment,legacy,legacy,0,uniform,0,0,0,0,24,24,24,0,0,72,72,72,72,72,0,72,0,,,,,,0,,10-02-22,10-02-22,20:04:07,Thu Mar 10 2022 20:04:07 GMT+0100 (közép-európai téli idő),The main experiment item,yes,0,0,C:/Users/rrics/Documents/!!ResearchBMECOGSCI/gnet,0,0,0,prototype5.png,no,mono,no,18,no,black,no,no,768,1191,3.5.6,legacy,xpyriment,osweb,1.3.13,0,c,v,c,,63016,57584,63016,,2,legacy,816,1536,24,864,24,0,0,1536,1646939118374,1024,2,48000,-16,experiment,prototype5.png,1,odd,Win32,160,169539,166524,160,160,708245,709753,703244,171056,703244,160,,,,,,visual_patterns,0,0,0,yes,1366
undefined,undefined,undefined,undefined,white,no,Mozilla,Netscape,"5.0 (Windows NT 10.0; Win64; x64) AppleWebKit/537.36 (KHTML, like Gecko) Chrome/99.0.4844.51 Safari/537.36",xpyriment,legacy,legacy,0,uniform,0,0,0,0,24,24,24,0,0,73,73,73,73,73,0,73,0,,,,,,0,,10-02-22,10-02-22,20:04:07,Thu Mar 10 2022 20:04:07 GMT+0100 (közép-európai téli idő),The main experiment item,yes,0,0,C:/Users/rrics/Documents/!!ResearchBMECOGSCI/gnet,0,0,0,prototype5.png,no,mono,no,18,no,black,no,no,768,1191,3.5.6,legacy,xpyriment,osweb,1.3.13,0,c,v,c,,63016,57584,63016,,2,legacy,816,1536,24,864,24,0,0,1536,1646939118374,1024,2,48000,-16,experiment,prototype3.png,1,odd,Win32,160,169539,166524,160,160,714760,716268,709759,171056,709759,160,,,,,,visual_patterns,0,0,0,yes,1366
undefined,undefined,undefined,undefined,white,no,Mozilla,Netscape,"5.0 (Windows NT 10.0; Win64; x64) AppleWebKit/537.36 (KHTML, like Gecko) Chrome/99.0.4844.51 Safari/537.36",xpyriment,legacy,legacy,0,uniform,0,0,0,0,24,24,24,0,0,74,74,74,74,74,0,74,0,,,,,,0,,10-02-22,10-02-22,20:04:07,Thu Mar 10 2022 20:04:07 GMT+0100 (közép-európai téli idő),The main experiment item,yes,0,0,C:/Users/rrics/Documents/!!ResearchBMECOGSCI/gnet,0,0,0,prototype5.png,no,mono,no,18,no,black,no,no,768,1191,3.5.6,legacy,xpyriment,osweb,1.3.13,0,c,v,c,,63016,57584,63016,,2,legacy,816,1536,24,864,24,0,0,1536,1646939118374,1024,2,48000,-16,experiment,prototype2.png,1,odd,Win32,160,169539,166524,160,160,721274,722783,716274,171056,716274,160,,,,,,visual_patterns,0,0,0,yes,1366
undefined,undefined,undefined,undefined,white,no,Mozilla,Netscape,"5.0 (Windows NT 10.0; Win64; x64) AppleWebKit/537.36 (KHTML, like Gecko) Chrome/99.0.4844.51 Safari/537.36",xpyriment,legacy,legacy,0,uniform,0,0,0,0,24,24,24,0,0,74,74,74,74,74,0,74,0,0,0,0,0,0,0,0,10-02-22,10-02-22,20:04:07,Thu Mar 10 2022 20:04:07 GMT+0100 (közép-európai téli idő),The main experiment item,yes,0,0,C:/Users/rrics/Documents/!!ResearchBMECOGSCI/gnet,0,0,0,prototype5.png,no,mono,no,18,no,black,no,no,768,1191,3.5.6,legacy,xpyriment,osweb,1.3.13,0,up,v,c,up,32264,57584,63016,32264,2,legacy,816,1536,24,864,24,0,0,1536,1646939118374,1024,2,48000,-16,experiment,p5sarrsha3.png,1,odd,Win32,160,169539,166524,160,160,721274,722783,716274,171056,716274,160,758072,759588,755074,722785,755073,visual_patterns,0,0,0,yes,1366
undefined,undefined,undefined,undefined,white,no,Mozilla,Netscape,"5.0 (Windows NT 10.0; Win64; x64) AppleWebKit/537.36 (KHTML, like Gecko) Chrome/99.0.4844.51 Safari/537.36",xpyriment,legacy,legacy,0,uniform,0,0,0,0,24,24,24,0,0,74,74,74,74,74,0,74,0,1,1,1,1,1,0,1,10-02-22,10-02-22,20:04:07,Thu Mar 10 2022 20:04:07 GMT+0100 (közép-európai téli idő),The main experiment item,yes,0,0,C:/Users/rrics/Documents/!!ResearchBMECOGSCI/gnet,0,0,0,prototype5.png,no,mono,no,18,no,black,no,no,768,1191,3.5.6,legacy,xpyriment,osweb,1.3.13,0,up,v,c,up,32264,57584,63016,32264,2,legacy,816,1536,24,864,24,0,0,1536,1646939118374,1024,2,48000,-16,experiment,p2sarrshacol1.png,1,odd,Win32,160,169539,166524,160,160,721274,722783,716274,171056,716274,160,762598,764103,759595,722785,759595,visual_patterns,0,0,0,yes,1366
undefined,undefined,undefined,undefined,white,no,Mozilla,Netscape,"5.0 (Windows NT 10.0; Win64; x64) AppleWebKit/537.36 (KHTML, like Gecko) Chrome/99.0.4844.51 Safari/537.36",xpyriment,legacy,legacy,0,uniform,0,0,0,0,24,24,24,0,0,74,74,74,74,74,0,74,0,2,2,2,2,2,0,2,10-02-22,10-02-22,20:04:07,Thu Mar 10 2022 20:04:07 GMT+0100 (közép-európai téli idő),The main experiment item,yes,0,0,C:/Users/rrics/Documents/!!ResearchBMECOGSCI/gnet,0,0,0,prototype5.png,no,mono,no,18,no,black,no,no,768,1191,3.5.6,legacy,xpyriment,osweb,1.3.13,0,up,v,c,up,32264,57584,63016,32264,2,legacy,816,1536,24,864,24,0,0,1536,1646939118374,1024,2,48000,-16,experiment,p4sarr4.png,1,odd,Win32,160,169539,166524,160,160,721274,722783,716274,171056,716274,160,767113,768618,764112,722785,764112,visual_patterns,0,0,0,yes,1366
undefined,undefined,undefined,undefined,white,no,Mozilla,Netscape,"5.0 (Windows NT 10.0; Win64; x64) AppleWebKit/537.36 (KHTML, like Gecko) Chrome/99.0.4844.51 Safari/537.36",xpyriment,legacy,legacy,0,uniform,0,0,0,0,24,24,24,0,0,74,74,74,74,74,0,74,0,3,3,3,3,3,0,3,10-02-22,10-02-22,20:04:07,Thu Mar 10 2022 20:04:07 GMT+0100 (közép-európai téli idő),The main experiment item,yes,0,0,C:/Users/rrics/Documents/!!ResearchBMECOGSCI/gnet,0,0,0,prototype5.png,no,mono,no,18,no,black,no,no,768,1191,3.5.6,legacy,xpyriment,osweb,1.3.13,0,up,v,c,up,32264,57584,63016,32264,2,legacy,816,1536,24,864,24,0,0,1536,1646939118374,1024,2,48000,-16,experiment,p5sarrsha2.png,1,odd,Win32,160,169539,166524,160,160,721274,722783,716274,171056,716274,160,771627,773134,768625,722785,768625,visual_patterns,0,0,0,yes,1366
undefined,undefined,undefined,undefined,white,no,Mozilla,Netscape,"5.0 (Windows NT 10.0; Win64; x64) AppleWebKit/537.36 (KHTML, like Gecko) Chrome/99.0.4844.51 Safari/537.36",xpyriment,legacy,legacy,0,uniform,0,0,0,0,24,24,24,0,0,74,74,74,74,74,0,74,0,4,4,4,4,4,0,4,10-02-22,10-02-22,20:04:07,Thu Mar 10 2022 20:04:07 GMT+0100 (közép-európai téli idő),The main experiment item,yes,0,0,C:/Users/rrics/Documents/!!ResearchBMECOGSCI/gnet,0,0,0,prototype5.png,no,mono,no,18,no,black,no,no,768,1191,3.5.6,legacy,xpyriment,osweb,1.3.13,0,up,v,c,up,32264,57584,63016,32264,2,legacy,816,1536,24,864,24,0,0,1536,1646939118374,1024,2,48000,-16,experiment,p7sarr2.png,1,odd,Win32,160,169539,166524,160,160,721274,722783,716274,171056,716274,160,776144,777649,773141,722785,773141,visual_patterns,0,0,0,yes,1366
undefined,undefined,undefined,undefined,white,no,Mozilla,Netscape,"5.0 (Windows NT 10.0; Win64; x64) AppleWebKit/537.36 (KHTML, like Gecko) Chrome/99.0.4844.51 Safari/537.36",xpyriment,legacy,legacy,0,uniform,0,0,0,0,24,24,24,0,0,74,74,74,74,74,0,74,0,5,5,5,5,5,0,5,10-02-22,10-02-22,20:04:07,Thu Mar 10 2022 20:04:07 GMT+0100 (közép-európai téli idő),The main experiment item,yes,0,0,C:/Users/rrics/Documents/!!ResearchBMECOGSCI/gnet,0,0,0,prototype5.png,no,mono,no,18,no,black,no,no,768,1191,3.5.6,legacy,xpyriment,osweb,1.3.13,0,up,v,c,up,32264,57584,63016,32264,2,legacy,816,1536,24,864,24,0,0,1536,1646939118374,1024,2,48000,-16,experiment,p1sarrsha4.png,1,odd,Win32,160,169539,166524,160,160,721274,722783,716274,171056,716274,160,780661,782164,777658,722785,777658,visual_patterns,0,0,0,yes,1366
undefined,undefined,undefined,undefined,white,no,Mozilla,Netscape,"5.0 (Windows NT 10.0; Win64; x64) AppleWebKit/537.36 (KHTML, like Gecko) Chrome/99.0.4844.51 Safari/537.36",xpyriment,legacy,legacy,0,uniform,0,0,0,0,24,24,24,0,0,74,74,74,74,74,0,74,0,6,6,6,6,6,0,6,10-02-22,10-02-22,20:04:07,Thu Mar 10 2022 20:04:07 GMT+0100 (közép-európai téli idő),The main experiment item,yes,0,0,C:/Users/rrics/Documents/!!ResearchBMECOGSCI/gnet,0,0,0,prototype5.png,no,mono,no,18,no,black,no,no,768,1191,3.5.6,legacy,xpyriment,osweb,1.3.13,0,up,v,c,up,32264,57584,63016,32264,2,legacy,816,1536,24,864,24,0,0,1536,1646939118374,1024,2,48000,-16,experiment,p3sarrcol2.png,1,odd,Win32,160,169539,166524,160,160,721274,722783,716274,171056,716274,160,785174,786679,782171,722785,782171,visual_patterns,0,0,0,yes,1366
undefined,undefined,undefined,undefined,white,no,Mozilla,Netscape,"5.0 (Windows NT 10.0; Win64; x64) AppleWebKit/537.36 (KHTML, like Gecko) Chrome/99.0.4844.51 Safari/537.36",xpyriment,legacy,legacy,0,uniform,0,0,0,0,24,24,24,0,0,74,74,74,74,74,0,74,0,7,7,7,7,7,0,7,10-02-22,10-02-22,20:04:07,Thu Mar 10 2022 20:04:07 GMT+0100 (közép-európai téli idő),The main experiment item,yes,0,0,C:/Users/rrics/Documents/!!ResearchBMECOGSCI/gnet,0,0,0,prototype5.png,no,mono,no,18,no,black,no,no,768,1191,3.5.6,legacy,xpyriment,osweb,1.3.13,0,up,v,c,up,32264,57584,63016,32264,2,legacy,816,1536,24,864,24,0,0,1536,1646939118374,1024,2,48000,-16,experiment,p3sarrcol3.png,1,odd,Win32,160,169539,166524,160,160,721274,722783,716274,171056,716274,160,789699,791211,786700,722785,786700,visual_patterns,0,0,0,yes,1366
undefined,undefined,undefined,undefined,white,no,Mozilla,Netscape,"5.0 (Windows NT 10.0; Win64; x64) AppleWebKit/537.36 (KHTML, like Gecko) Chrome/99.0.4844.51 Safari/537.36",xpyriment,legacy,legacy,0,uniform,0,0,0,0,24,24,24,0,0,74,74,74,74,74,0,74,0,8,8,8,8,8,0,8,10-02-22,10-02-22,20:04:07,Thu Mar 10 2022 20:04:07 GMT+0100 (közép-európai téli idő),The main experiment item,yes,0,0,C:/Users/rrics/Documents/!!ResearchBMECOGSCI/gnet,0,0,0,prototype5.png,no,mono,no,18,no,black,no,no,768,1191,3.5.6,legacy,xpyriment,osweb,1.3.13,0,up,v,c,up,32264,57584,63016,32264,2,legacy,816,1536,24,864,24,0,0,1536,1646939118374,1024,2,48000,-16,experiment,p1sarrsha1.png,1,odd,Win32,160,169539,166524,160,160,721274,722783,716274,171056,716274,160,794219,795727,791218,722785,791218,visual_patterns,0,0,0,yes,1366
undefined,undefined,undefined,undefined,white,no,Mozilla,Netscape,"5.0 (Windows NT 10.0; Win64; x64) AppleWebKit/537.36 (KHTML, like Gecko) Chrome/99.0.4844.51 Safari/537.36",xpyriment,legacy,legacy,0,uniform,0,0,0,0,24,24,24,0,0,74,74,74,74,74,0,74,0,9,9,9,9,9,0,9,10-02-22,10-02-22,20:04:07,Thu Mar 10 2022 20:04:07 GMT+0100 (közép-európai téli idő),The main experiment item,yes,0,0,C:/Users/rrics/Documents/!!ResearchBMECOGSCI/gnet,0,0,0,prototype5.png,no,mono,no,18,no,black,no,no,768,1191,3.5.6,legacy,xpyriment,osweb,1.3.13,0,up,v,c,up,32264,57584,63016,32264,2,legacy,816,1536,24,864,24,0,0,1536,1646939118374,1024,2,48000,-16,experiment,p4sarr1.png,1,odd,Win32,160,169539,166524,160,160,721274,722783,716274,171056,716274,160,798735,800242,795734,722785,795734,visual_patterns,0,0,0,yes,1366
undefined,undefined,undefined,undefined,white,no,Mozilla,Netscape,"5.0 (Windows NT 10.0; Win64; x64) AppleWebKit/537.36 (KHTML, like Gecko) Chrome/99.0.4844.51 Safari/537.36",xpyriment,legacy,legacy,0,uniform,0,0,0,0,24,24,24,0,0,74,74,74,74,74,0,74,0,10,10,10,10,10,0,10,10-02-22,10-02-22,20:04:07,Thu Mar 10 2022 20:04:07 GMT+0100 (közép-európai téli idő),The main experiment item,yes,0,0,C:/Users/rrics/Documents/!!ResearchBMECOGSCI/gnet,0,0,0,prototype5.png,no,mono,no,18,no,black,no,no,768,1191,3.5.6,legacy,xpyriment,osweb,1.3.13,0,up,v,c,up,32264,57584,63016,32264,2,legacy,816,1536,24,864,24,0,0,1536,1646939118374,1024,2,48000,-16,experiment,p9sarr2.png,1,odd,Win32,160,169539,166524,160,160,721274,722783,716274,171056,716274,160,803248,804757,800251,722785,800251,visual_patterns,0,0,0,yes,1366
undefined,undefined,undefined,undefined,white,no,Mozilla,Netscape,"5.0 (Windows NT 10.0; Win64; x64) AppleWebKit/537.36 (KHTML, like Gecko) Chrome/99.0.4844.51 Safari/537.36",xpyriment,legacy,legacy,0,uniform,0,0,0,0,24,24,24,0,0,74,74,74,74,74,0,74,0,11,11,11,11,11,0,11,10-02-22,10-02-22,20:04:07,Thu Mar 10 2022 20:04:07 GMT+0100 (közép-európai téli idő),The main experiment item,yes,0,0,C:/Users/rrics/Documents/!!ResearchBMECOGSCI/gnet,0,0,0,prototype5.png,no,mono,no,18,no,black,no,no,768,1191,3.5.6,legacy,xpyriment,osweb,1.3.13,0,up,v,c,up,32264,57584,63016,32264,2,legacy,816,1536,24,864,24,0,0,1536,1646939118374,1024,2,48000,-16,experiment,p1sarr2.png,1,odd,Win32,160,169539,166524,160,160,721274,722783,716274,171056,716274,160,807766,809273,804764,722785,804764,visual_patterns,0,0,0,yes,1366
undefined,undefined,undefined,undefined,white,no,Mozilla,Netscape,"5.0 (Windows NT 10.0; Win64; x64) AppleWebKit/537.36 (KHTML, like Gecko) Chrome/99.0.4844.51 Safari/537.36",xpyriment,legacy,legacy,0,uniform,0,0,0,0,24,24,24,0,0,74,74,74,74,74,0,74,0,12,12,12,12,12,0,12,10-02-22,10-02-22,20:04:07,Thu Mar 10 2022 20:04:07 GMT+0100 (közép-európai téli idő),The main experiment item,yes,0,0,C:/Users/rrics/Documents/!!ResearchBMECOGSCI/gnet,0,0,0,prototype5.png,no,mono,no,18,no,black,no,no,768,1191,3.5.6,legacy,xpyriment,osweb,1.3.13,0,up,v,c,up,32264,57584,63016,32264,2,legacy,816,1536,24,864,24,0,0,1536,1646939118374,1024,2,48000,-16,experiment,p3sarrcol4.png,1,odd,Win32,160,169539,166524,160,160,721274,722783,716274,171056,716274,160,812280,813788,809281,722785,809281,visual_patterns,0,0,0,yes,1366
undefined,undefined,undefined,undefined,white,no,Mozilla,Netscape,"5.0 (Windows NT 10.0; Win64; x64) AppleWebKit/537.36 (KHTML, like Gecko) Chrome/99.0.4844.51 Safari/537.36",xpyriment,legacy,legacy,0,uniform,0,0,0,0,24,24,24,0,0,74,74,74,74,74,0,74,0,13,13,13,13,13,0,13,10-02-22,10-02-22,20:04:07,Thu Mar 10 2022 20:04:07 GMT+0100 (közép-európai téli idő),The main experiment item,yes,0,0,C:/Users/rrics/Documents/!!ResearchBMECOGSCI/gnet,0,0,0,prototype5.png,no,mono,no,18,no,black,no,no,768,1191,3.5.6,legacy,xpyriment,osweb,1.3.13,0,up,v,c,up,32264,57584,63016,32264,2,legacy,816,1536,24,864,24,0,0,1536,1646939118374,1024,2,48000,-16,experiment,p2sarrshacol2.png,1,odd,Win32,160,169539,166524,160,160,721274,722783,716274,171056,716274,160,816795,818303,813794,722785,813794,visual_patterns,0,0,0,yes,1366
undefined,undefined,undefined,undefined,white,no,Mozilla,Netscape,"5.0 (Windows NT 10.0; Win64; x64) AppleWebKit/537.36 (KHTML, like Gecko) Chrome/99.0.4844.51 Safari/537.36",xpyriment,legacy,legacy,0,uniform,0,0,0,0,24,24,24,0,0,74,74,74,74,74,0,74,0,14,14,14,14,14,0,14,10-02-22,10-02-22,20:04:07,Thu Mar 10 2022 20:04:07 GMT+0100 (közép-európai téli idő),The main experiment item,yes,0,0,C:/Users/rrics/Documents/!!ResearchBMECOGSCI/gnet,0,0,0,prototype5.png,no,mono,no,18,no,black,no,no,768,1191,3.5.6,legacy,xpyriment,osweb,1.3.13,0,up,v,c,up,32264,57584,63016,32264,2,legacy,816,1536,24,864,24,0,0,1536,1646939118374,1024,2,48000,-16,experiment,p6sarr1.png,1,odd,Win32,160,169539,166524,160,160,721274,722783,716274,171056,716274,160,821310,822818,818313,722785,818313,visual_patterns,0,0,0,yes,1366
undefined,undefined,undefined,undefined,white,no,Mozilla,Netscape,"5.0 (Windows NT 10.0; Win64; x64) AppleWebKit/537.36 (KHTML, like Gecko) Chrome/99.0.4844.51 Safari/537.36",xpyriment,legacy,legacy,0,uniform,0,0,0,0,24,24,24,0,0,74,74,74,74,74,0,74,0,15,15,15,15,15,0,15,10-02-22,10-02-22,20:04:07,Thu Mar 10 2022 20:04:07 GMT+0100 (közép-európai téli idő),The main experiment item,yes,0,0,C:/Users/rrics/Documents/!!ResearchBMECOGSCI/gnet,0,0,0,prototype5.png,no,mono,no,18,no,black,no,no,768,1191,3.5.6,legacy,xpyriment,osweb,1.3.13,0,up,v,c,up,32264,57584,63016,32264,2,legacy,816,1536,24,864,24,0,0,1536,1646939118374,1024,2,48000,-16,experiment,p4sarrshacol3.png,1,odd,Win32,160,169539,166524,160,160,721274,722783,716274,171056,716274,160,825830,827334,822827,722785,822827,visual_patterns,0,0,0,yes,1366
undefined,undefined,undefined,undefined,white,no,Mozilla,Netscape,"5.0 (Windows NT 10.0; Win64; x64) AppleWebKit/537.36 (KHTML, like Gecko) Chrome/99.0.4844.51 Safari/537.36",xpyriment,legacy,legacy,0,uniform,0,0,0,0,24,24,24,0,0,74,74,74,74,74,0,74,0,16,16,16,16,16,0,16,10-02-22,10-02-22,20:04:07,Thu Mar 10 2022 20:04:07 GMT+0100 (közép-európai téli idő),The main experiment item,yes,0,0,C:/Users/rrics/Documents/!!ResearchBMECOGSCI/gnet,0,0,0,prototype5.png,no,mono,no,18,no,black,no,no,768,1191,3.5.6,legacy,xpyriment,osweb,1.3.13,0,up,v,c,up,32264,57584,63016,32264,2,legacy,816,1536,24,864,24,0,0,1536,1646939118374,1024,2,48000,-16,experiment,p4sarrshacol4.png,1,odd,Win32,160,169539,166524,160,160,721274,722783,716274,171056,716274,160,830343,831849,827342,722785,827342,visual_patterns,0,0,0,yes,1366
undefined,undefined,undefined,undefined,white,no,Mozilla,Netscape,"5.0 (Windows NT 10.0; Win64; x64) AppleWebKit/537.36 (KHTML, like Gecko) Chrome/99.0.4844.51 Safari/537.36",xpyriment,legacy,legacy,0,uniform,0,0,0,0,24,24,24,0,0,74,74,74,74,74,0,74,0,17,17,17,17,17,0,17,10-02-22,10-02-22,20:04:07,Thu Mar 10 2022 20:04:07 GMT+0100 (közép-európai téli idő),The main experiment item,yes,0,0,C:/Users/rrics/Documents/!!ResearchBMECOGSCI/gnet,0,0,0,prototype5.png,no,mono,no,18,no,black,no,no,768,1191,3.5.6,legacy,xpyriment,osweb,1.3.13,0,up,v,c,up,32264,57584,63016,32264,2,legacy,816,1536,24,864,24,0,0,1536,1646939118374,1024,2,48000,-16,experiment,p2sarrcol1.png,1,odd,Win32,160,169539,166524,160,160,721274,722783,716274,171056,716274,160,834872,836381,831871,722785,831871,visual_patterns,0,0,0,yes,1366
undefined,undefined,undefined,undefined,white,no,Mozilla,Netscape,"5.0 (Windows NT 10.0; Win64; x64) AppleWebKit/537.36 (KHTML, like Gecko) Chrome/99.0.4844.51 Safari/537.36",xpyriment,legacy,legacy,0,uniform,0,0,0,0,24,24,24,0,0,74,74,74,74,74,0,74,0,18,18,18,18,18,0,18,10-02-22,10-02-22,20:04:07,Thu Mar 10 2022 20:04:07 GMT+0100 (közép-európai téli idő),The main experiment item,yes,0,0,C:/Users/rrics/Documents/!!ResearchBMECOGSCI/gnet,0,0,0,prototype5.png,no,mono,no,18,no,black,no,no,768,1191,3.5.6,legacy,xpyriment,osweb,1.3.13,0,up,v,c,up,32264,57584,63016,32264,2,legacy,816,1536,24,864,24,0,0,1536,1646939118374,1024,2,48000,-16,experiment,p1sarr4.png,1,odd,Win32,160,169539,166524,160,160,721274,722783,716274,171056,716274,160,839390,840896,836388,722785,836388,visual_patterns,0,0,0,yes,1366
undefined,undefined,undefined,undefined,white,no,Mozilla,Netscape,"5.0 (Windows NT 10.0; Win64; x64) AppleWebKit/537.36 (KHTML, like Gecko) Chrome/99.0.4844.51 Safari/537.36",xpyriment,legacy,legacy,0,uniform,0,0,0,0,24,24,24,0,0,74,74,74,74,74,0,74,0,19,19,19,19,19,0,19,10-02-22,10-02-22,20:04:07,Thu Mar 10 2022 20:04:07 GMT+0100 (közép-európai téli idő),The main experiment item,yes,0,0,C:/Users/rrics/Documents/!!ResearchBMECOGSCI/gnet,0,0,0,prototype5.png,no,mono,no,18,no,black,no,no,768,1191,3.5.6,legacy,xpyriment,osweb,1.3.13,0,up,v,c,up,32264,57584,63016,32264,2,legacy,816,1536,24,864,24,0,0,1536,1646939118374,1024,2,48000,-16,experiment,p10sarr1.png,1,odd,Win32,160,169539,166524,160,160,721274,722783,716274,171056,716274,160,843906,845411,840903,722785,840903,visual_patterns,0,0,0,yes,1366
undefined,undefined,undefined,undefined,white,no,Mozilla,Netscape,"5.0 (Windows NT 10.0; Win64; x64) AppleWebKit/537.36 (KHTML, like Gecko) Chrome/99.0.4844.51 Safari/537.36",xpyriment,legacy,legacy,0,uniform,0,0,0,0,24,24,24,0,0,74,74,74,74,74,0,74,0,20,20,20,20,20,0,20,10-02-22,10-02-22,20:04:07,Thu Mar 10 2022 20:04:07 GMT+0100 (közép-európai téli idő),The main experiment item,yes,0,0,C:/Users/rrics/Documents/!!ResearchBMECOGSCI/gnet,0,0,0,prototype5.png,no,mono,no,18,no,black,no,no,768,1191,3.5.6,legacy,xpyriment,osweb,1.3.13,0,up,v,c,up,32264,57584,63016,32264,2,legacy,816,1536,24,864,24,0,0,1536,1646939118374,1024,2,48000,-16,experiment,p8sarr3.png,1,odd,Win32,160,169539,166524,160,160,721274,722783,716274,171056,716274,160,848420,849927,845420,722785,845420,visual_patterns,0,0,0,yes,1366
undefined,undefined,undefined,undefined,white,no,Mozilla,Netscape,"5.0 (Windows NT 10.0; Win64; x64) AppleWebKit/537.36 (KHTML, like Gecko) Chrome/99.0.4844.51 Safari/537.36",xpyriment,legacy,legacy,0,uniform,0,0,0,0,24,24,24,0,0,74,74,74,74,74,0,74,0,21,21,21,21,21,0,21,10-02-22,10-02-22,20:04:07,Thu Mar 10 2022 20:04:07 GMT+0100 (közép-európai téli idő),The main experiment item,yes,0,0,C:/Users/rrics/Documents/!!ResearchBMECOGSCI/gnet,0,0,0,prototype5.png,no,mono,no,18,no,black,no,no,768,1191,3.5.6,legacy,xpyriment,osweb,1.3.13,0,up,v,c,up,32264,57584,63016,32264,2,legacy,816,1536,24,864,24,0,0,1536,1646939118374,1024,2,48000,-16,experiment,p9sarr4.png,1,odd,Win32,160,169539,166524,160,160,721274,722783,716274,171056,716274,160,852935,854442,849935,722785,849935,visual_patterns,0,0,0,yes,1366
undefined,undefined,undefined,undefined,white,no,Mozilla,Netscape,"5.0 (Windows NT 10.0; Win64; x64) AppleWebKit/537.36 (KHTML, like Gecko) Chrome/99.0.4844.51 Safari/537.36",xpyriment,legacy,legacy,0,uniform,0,0,0,0,24,24,24,0,0,74,74,74,74,74,0,74,0,22,22,22,22,22,0,22,10-02-22,10-02-22,20:04:07,Thu Mar 10 2022 20:04:07 GMT+0100 (közép-európai téli idő),The main experiment item,yes,0,0,C:/Users/rrics/Documents/!!ResearchBMECOGSCI/gnet,0,0,0,prototype5.png,no,mono,no,18,no,black,no,no,768,1191,3.5.6,legacy,xpyriment,osweb,1.3.13,0,up,v,c,up,32264,57584,63016,32264,2,legacy,816,1536,24,864,24,0,0,1536,1646939118374,1024,2,48000,-16,experiment,p5sarrcol2.png,1,odd,Win32,160,169539,166524,160,160,721274,722783,716274,171056,716274,160,857448,858957,854449,722785,854449,visual_patterns,0,0,0,yes,1366
undefined,undefined,undefined,undefined,white,no,Mozilla,Netscape,"5.0 (Windows NT 10.0; Win64; x64) AppleWebKit/537.36 (KHTML, like Gecko) Chrome/99.0.4844.51 Safari/537.36",xpyriment,legacy,legacy,0,uniform,0,0,0,0,24,24,24,0,0,74,74,74,74,74,0,74,0,23,23,23,23,23,0,23,10-02-22,10-02-22,20:04:07,Thu Mar 10 2022 20:04:07 GMT+0100 (közép-európai téli idő),The main experiment item,yes,0,0,C:/Users/rrics/Documents/!!ResearchBMECOGSCI/gnet,0,0,0,prototype5.png,no,mono,no,18,no,black,no,no,768,1191,3.5.6,legacy,xpyriment,osweb,1.3.13,0,up,v,c,up,32264,57584,63016,32264,2,legacy,816,1536,24,864,24,0,0,1536,1646939118374,1024,2,48000,-16,experiment,p7sarr4.png,1,odd,Win32,160,169539,166524,160,160,721274,722783,716274,171056,716274,160,861964,863472,858965,722785,858965,visual_patterns,0,0,0,yes,1366
undefined,undefined,undefined,undefined,white,no,Mozilla,Netscape,"5.0 (Windows NT 10.0; Win64; x64) AppleWebKit/537.36 (KHTML, like Gecko) Chrome/99.0.4844.51 Safari/537.36",xpyriment,legacy,legacy,0,uniform,0,0,0,0,24,24,24,0,0,74,74,74,74,74,0,74,0,24,24,24,24,24,0,24,10-02-22,10-02-22,20:04:07,Thu Mar 10 2022 20:04:07 GMT+0100 (közép-európai téli idő),The main experiment item,yes,0,0,C:/Users/rrics/Documents/!!ResearchBMECOGSCI/gnet,0,0,0,prototype5.png,no,mono,no,18,no,black,no,no,768,1191,3.5.6,legacy,xpyriment,osweb,1.3.13,0,up,v,c,up,32264,57584,63016,32264,2,legacy,816,1536,24,864,24,0,0,1536,1646939118374,1024,2,48000,-16,experiment,p3sarrsha3.png,1,odd,Win32,160,169539,166524,160,160,721274,722783,716274,171056,716274,160,866482,867988,863480,722785,863480,visual_patterns,0,0,0,yes,1366
undefined,undefined,undefined,undefined,white,no,Mozilla,Netscape,"5.0 (Windows NT 10.0; Win64; x64) AppleWebKit/537.36 (KHTML, like Gecko) Chrome/99.0.4844.51 Safari/537.36",xpyriment,legacy,legacy,0,uniform,0,0,0,0,24,24,24,0,0,74,74,74,74,74,0,74,0,25,25,25,25,25,0,25,10-02-22,10-02-22,20:04:07,Thu Mar 10 2022 20:04:07 GMT+0100 (közép-európai téli idő),The main experiment item,yes,0,0,C:/Users/rrics/Documents/!!ResearchBMECOGSCI/gnet,0,0,0,prototype5.png,no,mono,no,18,no,black,no,no,768,1191,3.5.6,legacy,xpyriment,osweb,1.3.13,0,up,v,c,up,32264,57584,63016,32264,2,legacy,816,1536,24,864,24,0,0,1536,1646939118374,1024,2,48000,-16,experiment,p8sarr4.png,1,odd,Win32,160,169539,166524,160,160,721274,722783,716274,171056,716274,160,870998,872503,867996,722785,867996,visual_patterns,0,0,0,yes,1366
undefined,undefined,undefined,undefined,white,no,Mozilla,Netscape,"5.0 (Windows NT 10.0; Win64; x64) AppleWebKit/537.36 (KHTML, like Gecko) Chrome/99.0.4844.51 Safari/537.36",xpyriment,legacy,legacy,0,uniform,0,0,0,0,24,24,24,0,0,74,74,74,74,74,0,74,0,26,26,26,26,26,0,26,10-02-22,10-02-22,20:04:07,Thu Mar 10 2022 20:04:07 GMT+0100 (közép-európai téli idő),The main experiment item,yes,0,0,C:/Users/rrics/Documents/!!ResearchBMECOGSCI/gnet,0,0,0,prototype5.png,no,mono,no,18,no,black,no,no,768,1191,3.5.6,legacy,xpyriment,osweb,1.3.13,0,up,v,c,up,32264,57584,63016,32264,2,legacy,816,1536,24,864,24,0,0,1536,1646939118374,1024,2,48000,-16,experiment,p2sarrshacol4.png,1,odd,Win32,160,169539,166524,160,160,721274,722783,716274,171056,716274,160,875512,877018,872511,722785,872511,visual_patterns,0,0,0,yes,1366
undefined,undefined,undefined,undefined,white,no,Mozilla,Netscape,"5.0 (Windows NT 10.0; Win64; x64) AppleWebKit/537.36 (KHTML, like Gecko) Chrome/99.0.4844.51 Safari/537.36",xpyriment,legacy,legacy,0,uniform,0,0,0,0,24,24,24,0,0,74,74,74,74,74,0,74,0,27,27,27,27,27,0,27,10-02-22,10-02-22,20:04:07,Thu Mar 10 2022 20:04:07 GMT+0100 (közép-európai téli idő),The main experiment item,yes,0,0,C:/Users/rrics/Documents/!!ResearchBMECOGSCI/gnet,0,0,0,prototype5.png,no,mono,no,18,no,black,no,no,768,1191,3.5.6,legacy,xpyriment,osweb,1.3.13,0,up,v,c,up,32264,57584,63016,32264,2,legacy,816,1536,24,864,24,0,0,1536,1646939118374,1024,2,48000,-16,experiment,p4sarrshacol1.png,1,odd,Win32,160,169539,166524,160,160,721274,722783,716274,171056,716274,160,880027,881533,877025,722785,877025,visual_patterns,0,0,0,yes,1366
undefined,undefined,undefined,undefined,white,no,Mozilla,Netscape,"5.0 (Windows NT 10.0; Win64; x64) AppleWebKit/537.36 (KHTML, like Gecko) Chrome/99.0.4844.51 Safari/537.36",xpyriment,legacy,legacy,0,uniform,0,0,0,0,24,24,24,0,0,74,74,74,74,74,0,74,0,28,28,28,28,28,0,28,10-02-22,10-02-22,20:04:07,Thu Mar 10 2022 20:04:07 GMT+0100 (közép-európai téli idő),The main experiment item,yes,0,0,C:/Users/rrics/Documents/!!ResearchBMECOGSCI/gnet,0,0,0,prototype5.png,no,mono,no,18,no,black,no,no,768,1191,3.5.6,legacy,xpyriment,osweb,1.3.13,0,up,v,c,up,32264,57584,63016,32264,2,legacy,816,1536,24,864,24,0,0,1536,1646939118374,1024,2,48000,-16,experiment,p1sarrshacol3.png,1,odd,Win32,160,169539,166524,160,160,721274,722783,716274,171056,716274,160,884540,886048,881543,722785,881543,visual_patterns,0,0,0,yes,1366
undefined,undefined,undefined,undefined,white,no,Mozilla,Netscape,"5.0 (Windows NT 10.0; Win64; x64) AppleWebKit/537.36 (KHTML, like Gecko) Chrome/99.0.4844.51 Safari/537.36",xpyriment,legacy,legacy,0,uniform,0,0,0,0,24,24,24,0,0,74,74,74,74,74,0,74,0,29,29,29,29,29,0,29,10-02-22,10-02-22,20:04:07,Thu Mar 10 2022 20:04:07 GMT+0100 (közép-európai téli idő),The main experiment item,yes,0,0,C:/Users/rrics/Documents/!!ResearchBMECOGSCI/gnet,0,0,0,prototype5.png,no,mono,no,18,no,black,no,no,768,1191,3.5.6,legacy,xpyriment,osweb,1.3.13,0,up,v,c,up,32264,57584,63016,32264,2,legacy,816,1536,24,864,24,0,0,1536,1646939118374,1024,2,48000,-16,experiment,p2sarrsha1.png,1,odd,Win32,160,169539,166524,160,160,721274,722783,716274,171056,716274,160,889054,890564,886055,722785,886055,visual_patterns,0,0,0,yes,1366
undefined,undefined,undefined,undefined,white,no,Mozilla,Netscape,"5.0 (Windows NT 10.0; Win64; x64) AppleWebKit/537.36 (KHTML, like Gecko) Chrome/99.0.4844.51 Safari/537.36",xpyriment,legacy,legacy,0,uniform,0,0,0,0,24,24,24,0,0,74,74,74,74,74,0,74,0,30,30,30,30,30,0,30,10-02-22,10-02-22,20:04:07,Thu Mar 10 2022 20:04:07 GMT+0100 (közép-európai téli idő),The main experiment item,yes,0,0,C:/Users/rrics/Documents/!!ResearchBMECOGSCI/gnet,0,0,0,prototype5.png,no,mono,no,18,no,black,no,no,768,1191,3.5.6,legacy,xpyriment,osweb,1.3.13,0,up,v,c,up,32264,57584,63016,32264,2,legacy,816,1536,24,864,24,0,0,1536,1646939118374,1024,2,48000,-16,experiment,p3sarr2.png,1,odd,Win32,160,169539,166524,160,160,721274,722783,716274,171056,716274,160,893570,895080,890571,722785,890571,visual_patterns,0,0,0,yes,1366
undefined,undefined,undefined,undefined,white,no,Mozilla,Netscape,"5.0 (Windows NT 10.0; Win64; x64) AppleWebKit/537.36 (KHTML, like Gecko) Chrome/99.0.4844.51 Safari/537.36",xpyriment,legacy,legacy,0,uniform,0,0,0,0,24,24,24,0,0,74,74,74,74,74,0,74,0,31,31,31,31,31,0,31,10-02-22,10-02-22,20:04:07,Thu Mar 10 2022 20:04:07 GMT+0100 (közép-európai téli idő),The main experiment item,yes,0,0,C:/Users/rrics/Documents/!!ResearchBMECOGSCI/gnet,0,0,0,prototype5.png,no,mono,no,18,no,black,no,no,768,1191,3.5.6,legacy,xpyriment,osweb,1.3.13,0,up,v,c,up,32264,57584,63016,32264,2,legacy,816,1536,24,864,24,0,0,1536,1646939118374,1024,2,48000,-16,experiment,p3sarrshacol3.png,1,odd,Win32,160,169539,166524,160,160,721274,722783,716274,171056,716274,160,898086,899594,895088,722785,895088,visual_patterns,0,0,0,yes,1366
undefined,undefined,undefined,undefined,white,no,Mozilla,Netscape,"5.0 (Windows NT 10.0; Win64; x64) AppleWebKit/537.36 (KHTML, like Gecko) Chrome/99.0.4844.51 Safari/537.36",xpyriment,legacy,legacy,0,uniform,0,0,0,0,24,24,24,0,0,74,74,74,74,74,0,74,0,32,32,32,32,32,0,32,10-02-22,10-02-22,20:04:07,Thu Mar 10 2022 20:04:07 GMT+0100 (közép-európai téli idő),The main experiment item,yes,0,0,C:/Users/rrics/Documents/!!ResearchBMECOGSCI/gnet,0,0,0,prototype5.png,no,mono,no,18,no,black,no,no,768,1191,3.5.6,legacy,xpyriment,osweb,1.3.13,0,up,v,c,up,32264,57584,63016,32264,2,legacy,816,1536,24,864,24,0,0,1536,1646939118374,1024,2,48000,-16,experiment,p2sarrcol4.png,1,odd,Win32,160,169539,166524,160,160,721274,722783,716274,171056,716274,160,902616,904126,899618,722785,899618,visual_patterns,0,0,0,yes,1366
undefined,undefined,undefined,undefined,white,no,Mozilla,Netscape,"5.0 (Windows NT 10.0; Win64; x64) AppleWebKit/537.36 (KHTML, like Gecko) Chrome/99.0.4844.51 Safari/537.36",xpyriment,legacy,legacy,0,uniform,0,0,0,0,24,24,24,0,0,74,74,74,74,74,0,74,0,33,33,33,33,33,0,33,10-02-22,10-02-22,20:04:07,Thu Mar 10 2022 20:04:07 GMT+0100 (közép-európai téli idő),The main experiment item,yes,0,0,C:/Users/rrics/Documents/!!ResearchBMECOGSCI/gnet,0,0,0,prototype5.png,no,mono,no,18,no,black,no,no,768,1191,3.5.6,legacy,xpyriment,osweb,1.3.13,0,up,v,c,up,32264,57584,63016,32264,2,legacy,816,1536,24,864,24,0,0,1536,1646939118374,1024,2,48000,-16,experiment,p5sarrcol1.png,1,odd,Win32,160,169539,166524,160,160,721274,722783,716274,171056,716274,160,907135,908642,904135,722785,904135,visual_patterns,0,0,0,yes,1366
undefined,undefined,undefined,undefined,white,no,Mozilla,Netscape,"5.0 (Windows NT 10.0; Win64; x64) AppleWebKit/537.36 (KHTML, like Gecko) Chrome/99.0.4844.51 Safari/537.36",xpyriment,legacy,legacy,0,uniform,0,0,0,0,24,24,24,0,0,74,74,74,74,74,0,74,0,34,34,34,34,34,0,34,10-02-22,10-02-22,20:04:07,Thu Mar 10 2022 20:04:07 GMT+0100 (közép-európai téli idő),The main experiment item,yes,0,0,C:/Users/rrics/Documents/!!ResearchBMECOGSCI/gnet,0,0,0,prototype5.png,no,mono,no,18,no,black,no,no,768,1191,3.5.6,legacy,xpyriment,osweb,1.3.13,0,up,v,c,up,32264,57584,63016,32264,2,legacy,816,1536,24,864,24,0,0,1536,1646939118374,1024,2,48000,-16,experiment,p8sarr2.png,1,odd,Win32,160,169539,166524,160,160,721274,722783,716274,171056,716274,160,911650,913157,908649,722785,908649,visual_patterns,0,0,0,yes,1366
undefined,undefined,undefined,undefined,white,no,Mozilla,Netscape,"5.0 (Windows NT 10.0; Win64; x64) AppleWebKit/537.36 (KHTML, like Gecko) Chrome/99.0.4844.51 Safari/537.36",xpyriment,legacy,legacy,0,uniform,0,0,0,0,24,24,24,0,0,74,74,74,74,74,0,74,0,35,35,35,35,35,0,35,10-02-22,10-02-22,20:04:07,Thu Mar 10 2022 20:04:07 GMT+0100 (közép-európai téli idő),The main experiment item,yes,0,0,C:/Users/rrics/Documents/!!ResearchBMECOGSCI/gnet,0,0,0,prototype5.png,no,mono,no,18,no,black,no,no,768,1191,3.5.6,legacy,xpyriment,osweb,1.3.13,0,up,v,c,up,32264,57584,63016,32264,2,legacy,816,1536,24,864,24,0,0,1536,1646939118374,1024,2,48000,-16,experiment,p5sarr3.png,1,odd,Win32,160,169539,166524,160,160,721274,722783,716274,171056,716274,160,916166,917672,913165,722785,913165,visual_patterns,0,0,0,yes,1366
undefined,undefined,undefined,undefined,white,no,Mozilla,Netscape,"5.0 (Windows NT 10.0; Win64; x64) AppleWebKit/537.36 (KHTML, like Gecko) Chrome/99.0.4844.51 Safari/537.36",xpyriment,legacy,legacy,0,uniform,0,0,0,0,24,24,24,0,0,74,74,74,74,74,0,74,0,36,36,36,36,36,0,36,10-02-22,10-02-22,20:04:07,Thu Mar 10 2022 20:04:07 GMT+0100 (közép-európai téli idő),The main experiment item,yes,0,0,C:/Users/rrics/Documents/!!ResearchBMECOGSCI/gnet,0,0,0,prototype5.png,no,mono,no,18,no,black,no,no,768,1191,3.5.6,legacy,xpyriment,osweb,1.3.13,0,up,v,c,up,32264,57584,63016,32264,2,legacy,816,1536,24,864,24,0,0,1536,1646939118374,1024,2,48000,-16,experiment,p7sarr1.png,1,odd,Win32,160,169539,166524,160,160,721274,722783,716274,171056,716274,160,920679,922187,917680,722785,917680,visual_patterns,0,0,0,yes,1366
undefined,undefined,undefined,undefined,white,no,Mozilla,Netscape,"5.0 (Windows NT 10.0; Win64; x64) AppleWebKit/537.36 (KHTML, like Gecko) Chrome/99.0.4844.51 Safari/537.36",xpyriment,legacy,legacy,0,uniform,0,0,0,0,24,24,24,0,0,74,74,74,74,74,0,74,0,37,37,37,37,37,0,37,10-02-22,10-02-22,20:04:07,Thu Mar 10 2022 20:04:07 GMT+0100 (közép-európai téli idő),The main experiment item,yes,0,0,C:/Users/rrics/Documents/!!ResearchBMECOGSCI/gnet,0,0,0,prototype5.png,no,mono,no,18,no,black,no,no,768,1191,3.5.6,legacy,xpyriment,osweb,1.3.13,0,up,v,c,up,32264,57584,63016,32264,2,legacy,816,1536,24,864,24,0,0,1536,1646939118374,1024,2,48000,-16,experiment,p1sarrcol4.png,1,odd,Win32,160,169539,166524,160,160,721274,722783,716274,171056,716274,160,925211,926719,922211,722785,922211,visual_patterns,0,0,0,yes,1366
undefined,undefined,undefined,undefined,white,no,Mozilla,Netscape,"5.0 (Windows NT 10.0; Win64; x64) AppleWebKit/537.36 (KHTML, like Gecko) Chrome/99.0.4844.51 Safari/537.36",xpyriment,legacy,legacy,0,uniform,0,0,0,0,24,24,24,0,0,74,74,74,74,74,0,74,0,38,38,38,38,38,0,38,10-02-22,10-02-22,20:04:07,Thu Mar 10 2022 20:04:07 GMT+0100 (közép-európai téli idő),The main experiment item,yes,0,0,C:/Users/rrics/Documents/!!ResearchBMECOGSCI/gnet,0,0,0,prototype5.png,no,mono,no,18,no,black,no,no,768,1191,3.5.6,legacy,xpyriment,osweb,1.3.13,0,up,v,c,up,32264,57584,63016,32264,2,legacy,816,1536,24,864,24,0,0,1536,1646939118374,1024,2,48000,-16,experiment,p3sarrsha4.png,1,odd,Win32,160,169539,166524,160,160,721274,722783,716274,171056,716274,160,929729,931235,926727,722785,926727,visual_patterns,0,0,0,yes,1366
undefined,undefined,undefined,undefined,white,no,Mozilla,Netscape,"5.0 (Windows NT 10.0; Win64; x64) AppleWebKit/537.36 (KHTML, like Gecko) Chrome/99.0.4844.51 Safari/537.36",xpyriment,legacy,legacy,0,uniform,0,0,0,0,24,24,24,0,0,74,74,74,74,74,0,74,0,39,39,39,39,39,0,39,10-02-22,10-02-22,20:04:07,Thu Mar 10 2022 20:04:07 GMT+0100 (közép-európai téli idő),The main experiment item,yes,0,0,C:/Users/rrics/Documents/!!ResearchBMECOGSCI/gnet,0,0,0,prototype5.png,no,mono,no,18,no,black,no,no,768,1191,3.5.6,legacy,xpyriment,osweb,1.3.13,0,up,v,c,up,32264,57584,63016,32264,2,legacy,816,1536,24,864,24,0,0,1536,1646939118374,1024,2,48000,-16,experiment,p3sarr1.png,1,odd,Win32,160,169539,166524,160,160,721274,722783,716274,171056,716274,160,934240,935750,931242,722785,931242,visual_patterns,0,0,0,yes,1366
undefined,undefined,undefined,undefined,white,no,Mozilla,Netscape,"5.0 (Windows NT 10.0; Win64; x64) AppleWebKit/537.36 (KHTML, like Gecko) Chrome/99.0.4844.51 Safari/537.36",xpyriment,legacy,legacy,0,uniform,0,0,0,0,24,24,24,0,0,74,74,74,74,74,0,74,0,40,40,40,40,40,0,40,10-02-22,10-02-22,20:04:07,Thu Mar 10 2022 20:04:07 GMT+0100 (közép-európai téli idő),The main experiment item,yes,0,0,C:/Users/rrics/Documents/!!ResearchBMECOGSCI/gnet,0,0,0,prototype5.png,no,mono,no,18,no,black,no,no,768,1191,3.5.6,legacy,xpyriment,osweb,1.3.13,0,up,v,c,up,32264,57584,63016,32264,2,legacy,816,1536,24,864,24,0,0,1536,1646939118374,1024,2,48000,-16,experiment,p2sarrsha3.png,1,odd,Win32,160,169539,166524,160,160,721274,722783,716274,171056,716274,160,938758,940265,935757,722785,935757,visual_patterns,0,0,0,yes,1366
undefined,undefined,undefined,undefined,white,no,Mozilla,Netscape,"5.0 (Windows NT 10.0; Win64; x64) AppleWebKit/537.36 (KHTML, like Gecko) Chrome/99.0.4844.51 Safari/537.36",xpyriment,legacy,legacy,0,uniform,0,0,0,0,24,24,24,0,0,74,74,74,74,74,0,74,0,41,41,41,41,41,0,41,10-02-22,10-02-22,20:04:07,Thu Mar 10 2022 20:04:07 GMT+0100 (közép-európai téli idő),The main experiment item,yes,0,0,C:/Users/rrics/Documents/!!ResearchBMECOGSCI/gnet,0,0,0,prototype5.png,no,mono,no,18,no,black,no,no,768,1191,3.5.6,legacy,xpyriment,osweb,1.3.13,0,up,v,c,up,32264,57584,63016,32264,2,legacy,816,1536,24,864,24,0,0,1536,1646939118374,1024,2,48000,-16,experiment,p9sarr3.png,1,odd,Win32,160,169539,166524,160,160,721274,722783,716274,171056,716274,160,943275,944780,940273,722785,940273,visual_patterns,0,0,0,yes,1366
undefined,undefined,undefined,undefined,white,no,Mozilla,Netscape,"5.0 (Windows NT 10.0; Win64; x64) AppleWebKit/537.36 (KHTML, like Gecko) Chrome/99.0.4844.51 Safari/537.36",xpyriment,legacy,legacy,0,uniform,0,0,0,0,24,24,24,0,0,74,74,74,74,74,0,74,0,42,42,42,42,42,0,42,10-02-22,10-02-22,20:04:07,Thu Mar 10 2022 20:04:07 GMT+0100 (közép-európai téli idő),The main experiment item,yes,0,0,C:/Users/rrics/Documents/!!ResearchBMECOGSCI/gnet,0,0,0,prototype5.png,no,mono,no,18,no,black,no,no,768,1191,3.5.6,legacy,xpyriment,osweb,1.3.13,0,up,v,c,up,32264,57584,63016,32264,2,legacy,816,1536,24,864,24,0,0,1536,1646939118374,1024,2,48000,-16,experiment,p10sarr4.png,1,odd,Win32,160,169539,166524,160,160,721274,722783,716274,171056,716274,160,947805,949312,944804,722785,944803,visual_patterns,0,0,0,yes,1366
undefined,undefined,undefined,undefined,white,no,Mozilla,Netscape,"5.0 (Windows NT 10.0; Win64; x64) AppleWebKit/537.36 (KHTML, like Gecko) Chrome/99.0.4844.51 Safari/537.36",xpyriment,legacy,legacy,0,uniform,0,0,0,0,24,24,24,0,0,74,74,74,74,74,0,74,0,43,43,43,43,43,0,43,10-02-22,10-02-22,20:04:07,Thu Mar 10 2022 20:04:07 GMT+0100 (közép-európai téli idő),The main experiment item,yes,0,0,C:/Users/rrics/Documents/!!ResearchBMECOGSCI/gnet,0,0,0,prototype5.png,no,mono,no,18,no,black,no,no,768,1191,3.5.6,legacy,xpyriment,osweb,1.3.13,0,up,v,c,up,32264,57584,63016,32264,2,legacy,816,1536,24,864,24,0,0,1536,1646939118374,1024,2,48000,-16,experiment,p4sarrcol1.png,1,odd,Win32,160,169539,166524,160,160,721274,722783,716274,171056,716274,160,952323,953827,949321,722785,949321,visual_patterns,0,0,0,yes,1366
undefined,undefined,undefined,undefined,white,no,Mozilla,Netscape,"5.0 (Windows NT 10.0; Win64; x64) AppleWebKit/537.36 (KHTML, like Gecko) Chrome/99.0.4844.51 Safari/537.36",xpyriment,legacy,legacy,0,uniform,0,0,0,0,24,24,24,0,0,74,74,74,74,74,0,74,0,44,44,44,44,44,0,44,10-02-22,10-02-22,20:04:07,Thu Mar 10 2022 20:04:07 GMT+0100 (közép-európai téli idő),The main experiment item,yes,0,0,C:/Users/rrics/Documents/!!ResearchBMECOGSCI/gnet,0,0,0,prototype5.png,no,mono,no,18,no,black,no,no,768,1191,3.5.6,legacy,xpyriment,osweb,1.3.13,0,up,v,c,up,32264,57584,63016,32264,2,legacy,816,1536,24,864,24,0,0,1536,1646939118374,1024,2,48000,-16,experiment,p5sarrshacol4.png,1,odd,Win32,160,169539,166524,160,160,721274,722783,716274,171056,716274,160,956835,958343,953836,722785,953836,visual_patterns,0,0,0,yes,1366
undefined,undefined,undefined,undefined,white,no,Mozilla,Netscape,"5.0 (Windows NT 10.0; Win64; x64) AppleWebKit/537.36 (KHTML, like Gecko) Chrome/99.0.4844.51 Safari/537.36",xpyriment,legacy,legacy,0,uniform,0,0,0,0,24,24,24,0,0,74,74,74,74,74,0,74,0,45,45,45,45,45,0,45,10-02-22,10-02-22,20:04:07,Thu Mar 10 2022 20:04:07 GMT+0100 (közép-európai téli idő),The main experiment item,yes,0,0,C:/Users/rrics/Documents/!!ResearchBMECOGSCI/gnet,0,0,0,prototype5.png,no,mono,no,18,no,black,no,no,768,1191,3.5.6,legacy,xpyriment,osweb,1.3.13,0,up,v,c,up,32264,57584,63016,32264,2,legacy,816,1536,24,864,24,0,0,1536,1646939118374,1024,2,48000,-16,experiment,p3sarr3.png,1,odd,Win32,160,169539,166524,160,160,721274,722783,716274,171056,716274,160,961352,962858,958351,722785,958351,visual_patterns,0,0,0,yes,1366
undefined,undefined,undefined,undefined,white,no,Mozilla,Netscape,"5.0 (Windows NT 10.0; Win64; x64) AppleWebKit/537.36 (KHTML, like Gecko) Chrome/99.0.4844.51 Safari/537.36",xpyriment,legacy,legacy,0,uniform,0,0,0,0,24,24,24,0,0,74,74,74,74,74,0,74,0,46,46,46,46,46,0,46,10-02-22,10-02-22,20:04:07,Thu Mar 10 2022 20:04:07 GMT+0100 (közép-európai téli idő),The main experiment item,yes,0,0,C:/Users/rrics/Documents/!!ResearchBMECOGSCI/gnet,0,0,0,prototype5.png,no,mono,no,18,no,black,no,no,768,1191,3.5.6,legacy,xpyriment,osweb,1.3.13,0,up,v,c,up,32264,57584,63016,32264,2,legacy,816,1536,24,864,24,0,0,1536,1646939118374,1024,2,48000,-16,experiment,p2sarr3.png,1,odd,Win32,160,169539,166524,160,160,721274,722783,716274,171056,716274,160,965868,967373,962867,722785,962867,visual_patterns,0,0,0,yes,1366
undefined,undefined,undefined,undefined,white,no,Mozilla,Netscape,"5.0 (Windows NT 10.0; Win64; x64) AppleWebKit/537.36 (KHTML, like Gecko) Chrome/99.0.4844.51 Safari/537.36",xpyriment,legacy,legacy,0,uniform,0,0,0,0,24,24,24,0,0,74,74,74,74,74,0,74,0,47,47,47,47,47,0,47,10-02-22,10-02-22,20:04:07,Thu Mar 10 2022 20:04:07 GMT+0100 (közép-európai téli idő),The main experiment item,yes,0,0,C:/Users/rrics/Documents/!!ResearchBMECOGSCI/gnet,0,0,0,prototype5.png,no,mono,no,18,no,black,no,no,768,1191,3.5.6,legacy,xpyriment,osweb,1.3.13,0,up,v,c,up,32264,57584,63016,32264,2,legacy,816,1536,24,864,24,0,0,1536,1646939118374,1024,2,48000,-16,experiment,p4sarr2.png,1,odd,Win32,160,169539,166524,160,160,721274,722783,716274,171056,716274,160,970381,971888,967381,722785,967381,visual_patterns,0,0,0,yes,1366
undefined,undefined,undefined,undefined,white,no,Mozilla,Netscape,"5.0 (Windows NT 10.0; Win64; x64) AppleWebKit/537.36 (KHTML, like Gecko) Chrome/99.0.4844.51 Safari/537.36",xpyriment,legacy,legacy,0,uniform,0,0,0,0,24,24,24,0,0,74,74,74,74,74,0,74,0,48,48,48,48,48,0,48,10-02-22,10-02-22,20:04:07,Thu Mar 10 2022 20:04:07 GMT+0100 (közép-európai téli idő),The main experiment item,yes,0,0,C:/Users/rrics/Documents/!!ResearchBMECOGSCI/gnet,0,0,0,prototype5.png,no,mono,no,18,no,black,no,no,768,1191,3.5.6,legacy,xpyriment,osweb,1.3.13,0,up,v,c,up,32264,57584,63016,32264,2,legacy,816,1536,24,864,24,0,0,1536,1646939118374,1024,2,48000,-16,experiment,p2sarrshacol3.png,1,odd,Win32,160,169539,166524,160,160,721274,722783,716274,171056,716274,160,974898,976404,971897,722785,971896,visual_patterns,0,0,0,yes,1366
undefined,undefined,undefined,undefined,white,no,Mozilla,Netscape,"5.0 (Windows NT 10.0; Win64; x64) AppleWebKit/537.36 (KHTML, like Gecko) Chrome/99.0.4844.51 Safari/537.36",xpyriment,legacy,legacy,0,uniform,0,0,0,0,24,24,24,0,0,74,74,74,74,74,0,74,0,49,49,49,49,49,0,49,10-02-22,10-02-22,20:04:07,Thu Mar 10 2022 20:04:07 GMT+0100 (közép-európai téli idő),The main experiment item,yes,0,0,C:/Users/rrics/Documents/!!ResearchBMECOGSCI/gnet,0,0,0,prototype5.png,no,mono,no,18,no,black,no,no,768,1191,3.5.6,legacy,xpyriment,osweb,1.3.13,0,up,v,c,up,32264,57584,63016,32264,2,legacy,816,1536,24,864,24,0,0,1536,1646939118374,1024,2,48000,-16,experiment,p2sarrcol2.png,1,odd,Win32,160,169539,166524,160,160,721274,722783,716274,171056,716274,160,979414,980919,976411,722785,976411,visual_patterns,0,0,0,yes,1366
undefined,undefined,undefined,undefined,white,no,Mozilla,Netscape,"5.0 (Windows NT 10.0; Win64; x64) AppleWebKit/537.36 (KHTML, like Gecko) Chrome/99.0.4844.51 Safari/537.36",xpyriment,legacy,legacy,0,uniform,0,0,0,0,24,24,24,0,0,74,74,74,74,74,0,74,0,50,50,50,50,50,0,50,10-02-22,10-02-22,20:04:07,Thu Mar 10 2022 20:04:07 GMT+0100 (közép-európai téli idő),The main experiment item,yes,0,0,C:/Users/rrics/Documents/!!ResearchBMECOGSCI/gnet,0,0,0,prototype5.png,no,mono,no,18,no,black,no,no,768,1191,3.5.6,legacy,xpyriment,osweb,1.3.13,0,up,v,c,up,32264,57584,63016,32264,2,legacy,816,1536,24,864,24,0,0,1536,1646939118374,1024,2,48000,-16,experiment,p4sarrsha3.png,1,odd,Win32,160,169539,166524,160,160,721274,722783,716274,171056,716274,160,983930,985434,980927,722785,980927,visual_patterns,0,0,0,yes,1366
