acc,accuracy,average_response_time,avg_rt,background,bidi,browser_codename,browser_name,browser_version,canvas_backend,clock_backend,color_backend,compensation,coordinates,count_end,count_experiment,count_osweb,count_prestudy,count_prestudy_isi,count_prestudy_sequence,count_prestudy_stimpres,count_start,count_study,count_study_coroutines,count_study_isi,count_study_logger,count_study_response,count_study_sequence,count_study_start,count_study_stimpres,count_test,count_test_coroutines,count_test_isi,count_test_logger,count_test_response,count_test_sequence,count_test_start,count_test_stimpres,date_startdate,date_startdateUTC,date_starttime,datetime,description,disable_garbage_collection,experiment_debug,experiment_parameters,experiment_path,experiment_pilot,experiment_taskname,experiment_taskversion,fampict,font_bold,font_family,font_italic,font_size,font_underline,foreground,form_clicks,fullscreen,height,jatosStudyResultId,jatosVersion,keyboard_backend,mouse_backend,opensesame_codename,opensesame_version,repeat_cycle,response,response_start,response_study_start,response_test_start,response_time,response_time_start,response_time_study_start,response_time_test_start,round_decimals,sampler_backend,screen_availableHeight,screen_availableWidth,screen_colorDepth,screen_height,screen_pixelDepth,screen_screenX,screen_screenY,screen_width,sessionid,sound_buf_size,sound_channels,sound_freq,sound_sample_size,start,stim,subject_nr,subject_parity,system_os,time_prestudy,time_prestudy_isi,time_prestudy_stimpres,time_start,time_study,time_study_isi,time_study_logger,time_study_response,time_study_start,time_study_stimpres,time_test,time_test_isi,time_test_logger,time_test_response,time_test_start,time_test_stimpres,title,total_correct,total_response_time,total_responses,uniform_coordinates,width
undefined,undefined,undefined,undefined,white,no,Mozilla,Netscape,"5.0 (Windows NT 10.0; Win64; x64) AppleWebKit/537.36 (KHTML, like Gecko) Chrome/99.0.4844.51 Safari/537.36",xpyriment,legacy,legacy,0,uniform,0,0,0,0,24,24,24,0,0,0,0,0,0,0,0,0,0,,,,,,0,,11-02-22,11-02-22,08:04:20,Fri Mar 11 2022 08:04:20 GMT+0100 (közép-európai téli idő),The main experiment item,yes,0,0,C:/Users/rrics/Documents/!!ResearchBMECOGSCI/gnet,0,0,0,prototype4.png,no,mono,no,18,no,black,no,no,768,1192,3.5.6,legacy,xpyriment,osweb,1.3.13,0,l,k,l,,51189,70445,51189,,2,legacy,860,1600,24,900,24,0,0,1600,1646982285247,1024,2,48000,-16,experiment,p6sarr1.png,0,even,Win32,731,183328,180315,731,731,241083,242602,236095,184846,236095,731,,,,,,visual_patterns,0,0,0,yes,1366
undefined,undefined,undefined,undefined,white,no,Mozilla,Netscape,"5.0 (Windows NT 10.0; Win64; x64) AppleWebKit/537.36 (KHTML, like Gecko) Chrome/99.0.4844.51 Safari/537.36",xpyriment,legacy,legacy,0,uniform,0,0,0,0,24,24,24,0,0,1,1,1,1,1,0,1,0,,,,,,0,,11-02-22,11-02-22,08:04:20,Fri Mar 11 2022 08:04:20 GMT+0100 (közép-európai téli idő),The main experiment item,yes,0,0,C:/Users/rrics/Documents/!!ResearchBMECOGSCI/gnet,0,0,0,prototype4.png,no,mono,no,18,no,black,no,no,768,1192,3.5.6,legacy,xpyriment,osweb,1.3.13,0,l,k,l,,51189,70445,51189,,2,legacy,860,1600,24,900,24,0,0,1600,1646982285247,1024,2,48000,-16,experiment,prototype3.png,0,even,Win32,731,183328,180315,731,731,247631,249133,242648,184846,242648,731,,,,,,visual_patterns,0,0,0,yes,1366
undefined,undefined,undefined,undefined,white,no,Mozilla,Netscape,"5.0 (Windows NT 10.0; Win64; x64) AppleWebKit/537.36 (KHTML, like Gecko) Chrome/99.0.4844.51 Safari/537.36",xpyriment,legacy,legacy,0,uniform,0,0,0,0,24,24,24,0,0,2,2,2,2,2,0,2,0,,,,,,0,,11-02-22,11-02-22,08:04:20,Fri Mar 11 2022 08:04:20 GMT+0100 (közép-európai téli idő),The main experiment item,yes,0,0,C:/Users/rrics/Documents/!!ResearchBMECOGSCI/gnet,0,0,0,prototype4.png,no,mono,no,18,no,black,no,no,768,1192,3.5.6,legacy,xpyriment,osweb,1.3.13,0,l,k,l,,51189,70445,51189,,2,legacy,860,1600,24,900,24,0,0,1600,1646982285247,1024,2,48000,-16,experiment,p3sarr1.png,0,even,Win32,731,183328,180315,731,731,254160,255665,249173,184846,249173,731,,,,,,visual_patterns,0,0,0,yes,1366
undefined,undefined,undefined,undefined,white,no,Mozilla,Netscape,"5.0 (Windows NT 10.0; Win64; x64) AppleWebKit/537.36 (KHTML, like Gecko) Chrome/99.0.4844.51 Safari/537.36",xpyriment,legacy,legacy,0,uniform,0,0,0,0,24,24,24,0,0,3,3,3,3,3,0,3,0,,,,,,0,,11-02-22,11-02-22,08:04:20,Fri Mar 11 2022 08:04:20 GMT+0100 (közép-európai téli idő),The main experiment item,yes,0,0,C:/Users/rrics/Documents/!!ResearchBMECOGSCI/gnet,0,0,0,prototype4.png,no,mono,no,18,no,black,no,no,768,1192,3.5.6,legacy,xpyriment,osweb,1.3.13,0,l,k,l,,51189,70445,51189,,2,legacy,860,1600,24,900,24,0,0,1600,1646982285247,1024,2,48000,-16,experiment,p9sarr2.png,0,even,Win32,731,183328,180315,731,731,260689,262198,255700,184846,255700,731,,,,,,visual_patterns,0,0,0,yes,1366
undefined,undefined,undefined,undefined,white,no,Mozilla,Netscape,"5.0 (Windows NT 10.0; Win64; x64) AppleWebKit/537.36 (KHTML, like Gecko) Chrome/99.0.4844.51 Safari/537.36",xpyriment,legacy,legacy,0,uniform,0,0,0,0,24,24,24,0,0,4,4,4,4,4,0,4,0,,,,,,0,,11-02-22,11-02-22,08:04:20,Fri Mar 11 2022 08:04:20 GMT+0100 (közép-európai téli idő),The main experiment item,yes,0,0,C:/Users/rrics/Documents/!!ResearchBMECOGSCI/gnet,0,0,0,prototype4.png,no,mono,no,18,no,black,no,no,768,1192,3.5.6,legacy,xpyriment,osweb,1.3.13,0,l,k,l,,51189,70445,51189,,2,legacy,860,1600,24,900,24,0,0,1600,1646982285247,1024,2,48000,-16,experiment,p4sarr2.png,0,even,Win32,731,183328,180315,731,731,267214,268730,262235,184846,262235,731,,,,,,visual_patterns,0,0,0,yes,1366
undefined,undefined,undefined,undefined,white,no,Mozilla,Netscape,"5.0 (Windows NT 10.0; Win64; x64) AppleWebKit/537.36 (KHTML, like Gecko) Chrome/99.0.4844.51 Safari/537.36",xpyriment,legacy,legacy,0,uniform,0,0,0,0,24,24,24,0,0,5,5,5,5,5,0,5,0,,,,,,0,,11-02-22,11-02-22,08:04:20,Fri Mar 11 2022 08:04:20 GMT+0100 (közép-európai téli idő),The main experiment item,yes,0,0,C:/Users/rrics/Documents/!!ResearchBMECOGSCI/gnet,0,0,0,prototype4.png,no,mono,no,18,no,black,no,no,768,1192,3.5.6,legacy,xpyriment,osweb,1.3.13,0,l,k,l,,51189,70445,51189,,2,legacy,860,1600,24,900,24,0,0,1600,1646982285247,1024,2,48000,-16,experiment,p4sarrshacol2.png,0,even,Win32,731,183328,180315,731,731,273755,275262,268765,184846,268765,731,,,,,,visual_patterns,0,0,0,yes,1366
undefined,undefined,undefined,undefined,white,no,Mozilla,Netscape,"5.0 (Windows NT 10.0; Win64; x64) AppleWebKit/537.36 (KHTML, like Gecko) Chrome/99.0.4844.51 Safari/537.36",xpyriment,legacy,legacy,0,uniform,0,0,0,0,24,24,24,0,0,6,6,6,6,6,0,6,0,,,,,,0,,11-02-22,11-02-22,08:04:20,Fri Mar 11 2022 08:04:20 GMT+0100 (közép-európai téli idő),The main experiment item,yes,0,0,C:/Users/rrics/Documents/!!ResearchBMECOGSCI/gnet,0,0,0,prototype4.png,no,mono,no,18,no,black,no,no,768,1192,3.5.6,legacy,xpyriment,osweb,1.3.13,0,l,k,l,,51189,70445,51189,,2,legacy,860,1600,24,900,24,0,0,1600,1646982285247,1024,2,48000,-16,experiment,p5sarrsha2.png,0,even,Win32,731,183328,180315,731,731,280277,281779,275286,184846,275285,731,,,,,,visual_patterns,0,0,0,yes,1366
undefined,undefined,undefined,undefined,white,no,Mozilla,Netscape,"5.0 (Windows NT 10.0; Win64; x64) AppleWebKit/537.36 (KHTML, like Gecko) Chrome/99.0.4844.51 Safari/537.36",xpyriment,legacy,legacy,0,uniform,0,0,0,0,24,24,24,0,0,7,7,7,7,7,0,7,0,,,,,,0,,11-02-22,11-02-22,08:04:20,Fri Mar 11 2022 08:04:20 GMT+0100 (közép-európai téli idő),The main experiment item,yes,0,0,C:/Users/rrics/Documents/!!ResearchBMECOGSCI/gnet,0,0,0,prototype4.png,no,mono,no,18,no,black,no,no,768,1192,3.5.6,legacy,xpyriment,osweb,1.3.13,0,l,k,l,,51189,70445,51189,,2,legacy,860,1600,24,900,24,0,0,1600,1646982285247,1024,2,48000,-16,experiment,p2sarr1.png,0,even,Win32,731,183328,180315,731,731,286795,288311,281819,184846,281819,731,,,,,,visual_patterns,0,0,0,yes,1366
undefined,undefined,undefined,undefined,white,no,Mozilla,Netscape,"5.0 (Windows NT 10.0; Win64; x64) AppleWebKit/537.36 (KHTML, like Gecko) Chrome/99.0.4844.51 Safari/537.36",xpyriment,legacy,legacy,0,uniform,0,0,0,0,24,24,24,0,0,8,8,8,8,8,0,8,0,,,,,,0,,11-02-22,11-02-22,08:04:20,Fri Mar 11 2022 08:04:20 GMT+0100 (közép-európai téli idő),The main experiment item,yes,0,0,C:/Users/rrics/Documents/!!ResearchBMECOGSCI/gnet,0,0,0,prototype4.png,no,mono,no,18,no,black,no,no,768,1192,3.5.6,legacy,xpyriment,osweb,1.3.13,0,l,k,l,,51189,70445,51189,,2,legacy,860,1600,24,900,24,0,0,1600,1646982285247,1024,2,48000,-16,experiment,prototype4.png,0,even,Win32,731,183328,180315,731,731,293325,294827,288354,184846,288353,731,,,,,,visual_patterns,0,0,0,yes,1366
undefined,undefined,undefined,undefined,white,no,Mozilla,Netscape,"5.0 (Windows NT 10.0; Win64; x64) AppleWebKit/537.36 (KHTML, like Gecko) Chrome/99.0.4844.51 Safari/537.36",xpyriment,legacy,legacy,0,uniform,0,0,0,0,24,24,24,0,0,9,9,9,9,9,0,9,0,,,,,,0,,11-02-22,11-02-22,08:04:20,Fri Mar 11 2022 08:04:20 GMT+0100 (közép-európai téli idő),The main experiment item,yes,0,0,C:/Users/rrics/Documents/!!ResearchBMECOGSCI/gnet,0,0,0,prototype4.png,no,mono,no,18,no,black,no,no,768,1192,3.5.6,legacy,xpyriment,osweb,1.3.13,0,l,k,l,,51189,70445,51189,,2,legacy,860,1600,24,900,24,0,0,1600,1646982285247,1024,2,48000,-16,experiment,p5sarrsha1.png,0,even,Win32,731,183328,180315,731,731,299844,301359,294873,184846,294873,731,,,,,,visual_patterns,0,0,0,yes,1366
undefined,undefined,undefined,undefined,white,no,Mozilla,Netscape,"5.0 (Windows NT 10.0; Win64; x64) AppleWebKit/537.36 (KHTML, like Gecko) Chrome/99.0.4844.51 Safari/537.36",xpyriment,legacy,legacy,0,uniform,0,0,0,0,24,24,24,0,0,10,10,10,10,10,0,10,0,,,,,,0,,11-02-22,11-02-22,08:04:20,Fri Mar 11 2022 08:04:20 GMT+0100 (közép-európai téli idő),The main experiment item,yes,0,0,C:/Users/rrics/Documents/!!ResearchBMECOGSCI/gnet,0,0,0,prototype4.png,no,mono,no,18,no,black,no,no,768,1192,3.5.6,legacy,xpyriment,osweb,1.3.13,0,l,k,l,,51189,70445,51189,,2,legacy,860,1600,24,900,24,0,0,1600,1646982285247,1024,2,48000,-16,experiment,p5sarrcol1.png,0,even,Win32,731,183328,180315,731,731,306376,307892,301394,184846,301394,731,,,,,,visual_patterns,0,0,0,yes,1366
undefined,undefined,undefined,undefined,white,no,Mozilla,Netscape,"5.0 (Windows NT 10.0; Win64; x64) AppleWebKit/537.36 (KHTML, like Gecko) Chrome/99.0.4844.51 Safari/537.36",xpyriment,legacy,legacy,0,uniform,0,0,0,0,24,24,24,0,0,11,11,11,11,11,0,11,0,,,,,,0,,11-02-22,11-02-22,08:04:20,Fri Mar 11 2022 08:04:20 GMT+0100 (közép-európai téli idő),The main experiment item,yes,0,0,C:/Users/rrics/Documents/!!ResearchBMECOGSCI/gnet,0,0,0,prototype4.png,no,mono,no,18,no,black,no,no,768,1192,3.5.6,legacy,xpyriment,osweb,1.3.13,0,l,k,l,,51189,70445,51189,,2,legacy,860,1600,24,900,24,0,0,1600,1646982285247,1024,2,48000,-16,experiment,p8sarr2.png,0,even,Win32,731,183328,180315,731,731,312909,314424,307928,184846,307928,731,,,,,,visual_patterns,0,0,0,yes,1366
undefined,undefined,undefined,undefined,white,no,Mozilla,Netscape,"5.0 (Windows NT 10.0; Win64; x64) AppleWebKit/537.36 (KHTML, like Gecko) Chrome/99.0.4844.51 Safari/537.36",xpyriment,legacy,legacy,0,uniform,0,0,0,0,24,24,24,0,0,12,12,12,12,12,0,12,0,,,,,,0,,11-02-22,11-02-22,08:04:20,Fri Mar 11 2022 08:04:20 GMT+0100 (közép-európai téli idő),The main experiment item,yes,0,0,C:/Users/rrics/Documents/!!ResearchBMECOGSCI/gnet,0,0,0,prototype4.png,no,mono,no,18,no,black,no,no,768,1192,3.5.6,legacy,xpyriment,osweb,1.3.13,0,l,k,l,,51189,70445,51189,,2,legacy,860,1600,24,900,24,0,0,1600,1646982285247,1024,2,48000,-16,experiment,p5sarrshacol2.png,0,even,Win32,731,183328,180315,731,731,319440,320957,314460,184846,314460,731,,,,,,visual_patterns,0,0,0,yes,1366
undefined,undefined,undefined,undefined,white,no,Mozilla,Netscape,"5.0 (Windows NT 10.0; Win64; x64) AppleWebKit/537.36 (KHTML, like Gecko) Chrome/99.0.4844.51 Safari/537.36",xpyriment,legacy,legacy,0,uniform,0,0,0,0,24,24,24,0,0,13,13,13,13,13,0,13,0,,,,,,0,,11-02-22,11-02-22,08:04:20,Fri Mar 11 2022 08:04:20 GMT+0100 (közép-európai téli idő),The main experiment item,yes,0,0,C:/Users/rrics/Documents/!!ResearchBMECOGSCI/gnet,0,0,0,prototype4.png,no,mono,no,18,no,black,no,no,768,1192,3.5.6,legacy,xpyriment,osweb,1.3.13,0,l,k,l,,51189,70445,51189,,2,legacy,860,1600,24,900,24,0,0,1600,1646982285247,1024,2,48000,-16,experiment,p8sarr1.png,0,even,Win32,731,183328,180315,731,731,325974,327490,320991,184846,320991,731,,,,,,visual_patterns,0,0,0,yes,1366
undefined,undefined,undefined,undefined,white,no,Mozilla,Netscape,"5.0 (Windows NT 10.0; Win64; x64) AppleWebKit/537.36 (KHTML, like Gecko) Chrome/99.0.4844.51 Safari/537.36",xpyriment,legacy,legacy,0,uniform,0,0,0,0,24,24,24,0,0,14,14,14,14,14,0,14,0,,,,,,0,,11-02-22,11-02-22,08:04:20,Fri Mar 11 2022 08:04:20 GMT+0100 (közép-európai téli idő),The main experiment item,yes,0,0,C:/Users/rrics/Documents/!!ResearchBMECOGSCI/gnet,0,0,0,prototype4.png,no,mono,no,18,no,black,no,no,768,1192,3.5.6,legacy,xpyriment,osweb,1.3.13,0,l,k,l,,51189,70445,51189,,2,legacy,860,1600,24,900,24,0,0,1600,1646982285247,1024,2,48000,-16,experiment,p3sarrcol1.png,0,even,Win32,731,183328,180315,731,731,332504,334005,327523,184846,327523,731,,,,,,visual_patterns,0,0,0,yes,1366
undefined,undefined,undefined,undefined,white,no,Mozilla,Netscape,"5.0 (Windows NT 10.0; Win64; x64) AppleWebKit/537.36 (KHTML, like Gecko) Chrome/99.0.4844.51 Safari/537.36",xpyriment,legacy,legacy,0,uniform,0,0,0,0,24,24,24,0,0,15,15,15,15,15,0,15,0,,,,,,0,,11-02-22,11-02-22,08:04:20,Fri Mar 11 2022 08:04:20 GMT+0100 (közép-európai téli idő),The main experiment item,yes,0,0,C:/Users/rrics/Documents/!!ResearchBMECOGSCI/gnet,0,0,0,prototype4.png,no,mono,no,18,no,black,no,no,768,1192,3.5.6,legacy,xpyriment,osweb,1.3.13,0,l,k,l,,51189,70445,51189,,2,legacy,860,1600,24,900,24,0,0,1600,1646982285247,1024,2,48000,-16,experiment,prototype1.png,0,even,Win32,731,183328,180315,731,731,339022,340538,334044,184846,334044,731,,,,,,visual_patterns,0,0,0,yes,1366
undefined,undefined,undefined,undefined,white,no,Mozilla,Netscape,"5.0 (Windows NT 10.0; Win64; x64) AppleWebKit/537.36 (KHTML, like Gecko) Chrome/99.0.4844.51 Safari/537.36",xpyriment,legacy,legacy,0,uniform,0,0,0,0,24,24,24,0,0,16,16,16,16,16,0,16,0,,,,,,0,,11-02-22,11-02-22,08:04:20,Fri Mar 11 2022 08:04:20 GMT+0100 (közép-európai téli idő),The main experiment item,yes,0,0,C:/Users/rrics/Documents/!!ResearchBMECOGSCI/gnet,0,0,0,prototype4.png,no,mono,no,18,no,black,no,no,768,1192,3.5.6,legacy,xpyriment,osweb,1.3.13,0,l,k,l,,51189,70445,51189,,2,legacy,860,1600,24,900,24,0,0,1600,1646982285247,1024,2,48000,-16,experiment,p2sarr2.png,0,even,Win32,731,183328,180315,731,731,345554,347071,340577,184846,340577,731,,,,,,visual_patterns,0,0,0,yes,1366
undefined,undefined,undefined,undefined,white,no,Mozilla,Netscape,"5.0 (Windows NT 10.0; Win64; x64) AppleWebKit/537.36 (KHTML, like Gecko) Chrome/99.0.4844.51 Safari/537.36",xpyriment,legacy,legacy,0,uniform,0,0,0,0,24,24,24,0,0,17,17,17,17,17,0,17,0,,,,,,0,,11-02-22,11-02-22,08:04:20,Fri Mar 11 2022 08:04:20 GMT+0100 (közép-európai téli idő),The main experiment item,yes,0,0,C:/Users/rrics/Documents/!!ResearchBMECOGSCI/gnet,0,0,0,prototype4.png,no,mono,no,18,no,black,no,no,768,1192,3.5.6,legacy,xpyriment,osweb,1.3.13,0,l,k,l,,51189,70445,51189,,2,legacy,860,1600,24,900,24,0,0,1600,1646982285247,1024,2,48000,-16,experiment,p3sarrsha2.png,0,even,Win32,731,183328,180315,731,731,352093,353603,347104,184846,347104,731,,,,,,visual_patterns,0,0,0,yes,1366
undefined,undefined,undefined,undefined,white,no,Mozilla,Netscape,"5.0 (Windows NT 10.0; Win64; x64) AppleWebKit/537.36 (KHTML, like Gecko) Chrome/99.0.4844.51 Safari/537.36",xpyriment,legacy,legacy,0,uniform,0,0,0,0,24,24,24,0,0,18,18,18,18,18,0,18,0,,,,,,0,,11-02-22,11-02-22,08:04:20,Fri Mar 11 2022 08:04:20 GMT+0100 (közép-európai téli idő),The main experiment item,yes,0,0,C:/Users/rrics/Documents/!!ResearchBMECOGSCI/gnet,0,0,0,prototype4.png,no,mono,no,18,no,black,no,no,768,1192,3.5.6,legacy,xpyriment,osweb,1.3.13,0,l,k,l,,51189,70445,51189,,2,legacy,860,1600,24,900,24,0,0,1600,1646982285247,1024,2,48000,-16,experiment,prototype4.png,0,even,Win32,731,183328,180315,731,731,358628,360136,353666,184846,353666,731,,,,,,visual_patterns,0,0,0,yes,1366
undefined,undefined,undefined,undefined,white,no,Mozilla,Netscape,"5.0 (Windows NT 10.0; Win64; x64) AppleWebKit/537.36 (KHTML, like Gecko) Chrome/99.0.4844.51 Safari/537.36",xpyriment,legacy,legacy,0,uniform,0,0,0,0,24,24,24,0,0,19,19,19,19,19,0,19,0,,,,,,0,,11-02-22,11-02-22,08:04:20,Fri Mar 11 2022 08:04:20 GMT+0100 (közép-európai téli idő),The main experiment item,yes,0,0,C:/Users/rrics/Documents/!!ResearchBMECOGSCI/gnet,0,0,0,prototype4.png,no,mono,no,18,no,black,no,no,768,1192,3.5.6,legacy,xpyriment,osweb,1.3.13,0,l,k,l,,51189,70445,51189,,2,legacy,860,1600,24,900,24,0,0,1600,1646982285247,1024,2,48000,-16,experiment,p3sarrsha1.png,0,even,Win32,731,183328,180315,731,731,365159,366668,360182,184846,360182,731,,,,,,visual_patterns,0,0,0,yes,1366
undefined,undefined,undefined,undefined,white,no,Mozilla,Netscape,"5.0 (Windows NT 10.0; Win64; x64) AppleWebKit/537.36 (KHTML, like Gecko) Chrome/99.0.4844.51 Safari/537.36",xpyriment,legacy,legacy,0,uniform,0,0,0,0,24,24,24,0,0,20,20,20,20,20,0,20,0,,,,,,0,,11-02-22,11-02-22,08:04:20,Fri Mar 11 2022 08:04:20 GMT+0100 (közép-európai téli idő),The main experiment item,yes,0,0,C:/Users/rrics/Documents/!!ResearchBMECOGSCI/gnet,0,0,0,prototype4.png,no,mono,no,18,no,black,no,no,768,1192,3.5.6,legacy,xpyriment,osweb,1.3.13,0,l,k,l,,51189,70445,51189,,2,legacy,860,1600,24,900,24,0,0,1600,1646982285247,1024,2,48000,-16,experiment,prototype2.png,0,even,Win32,731,183328,180315,731,731,371718,373234,366731,184846,366731,731,,,,,,visual_patterns,0,0,0,yes,1366
undefined,undefined,undefined,undefined,white,no,Mozilla,Netscape,"5.0 (Windows NT 10.0; Win64; x64) AppleWebKit/537.36 (KHTML, like Gecko) Chrome/99.0.4844.51 Safari/537.36",xpyriment,legacy,legacy,0,uniform,0,0,0,0,24,24,24,0,0,21,21,21,21,21,0,21,0,,,,,,0,,11-02-22,11-02-22,08:04:20,Fri Mar 11 2022 08:04:20 GMT+0100 (közép-európai téli idő),The main experiment item,yes,0,0,C:/Users/rrics/Documents/!!ResearchBMECOGSCI/gnet,0,0,0,prototype4.png,no,mono,no,18,no,black,no,no,768,1192,3.5.6,legacy,xpyriment,osweb,1.3.13,0,l,k,l,,51189,70445,51189,,2,legacy,860,1600,24,900,24,0,0,1600,1646982285247,1024,2,48000,-16,experiment,p4sarrcol2.png,0,even,Win32,731,183328,180315,731,731,378251,379766,373270,184846,373270,731,,,,,,visual_patterns,0,0,0,yes,1366
undefined,undefined,undefined,undefined,white,no,Mozilla,Netscape,"5.0 (Windows NT 10.0; Win64; x64) AppleWebKit/537.36 (KHTML, like Gecko) Chrome/99.0.4844.51 Safari/537.36",xpyriment,legacy,legacy,0,uniform,0,0,0,0,24,24,24,0,0,22,22,22,22,22,0,22,0,,,,,,0,,11-02-22,11-02-22,08:04:20,Fri Mar 11 2022 08:04:20 GMT+0100 (közép-európai téli idő),The main experiment item,yes,0,0,C:/Users/rrics/Documents/!!ResearchBMECOGSCI/gnet,0,0,0,prototype4.png,no,mono,no,18,no,black,no,no,768,1192,3.5.6,legacy,xpyriment,osweb,1.3.13,0,l,k,l,,51189,70445,51189,,2,legacy,860,1600,24,900,24,0,0,1600,1646982285247,1024,2,48000,-16,experiment,p5sarrshacol1.png,0,even,Win32,731,183328,180315,731,731,384782,386299,379808,184846,379808,731,,,,,,visual_patterns,0,0,0,yes,1366
undefined,undefined,undefined,undefined,white,no,Mozilla,Netscape,"5.0 (Windows NT 10.0; Win64; x64) AppleWebKit/537.36 (KHTML, like Gecko) Chrome/99.0.4844.51 Safari/537.36",xpyriment,legacy,legacy,0,uniform,0,0,0,0,24,24,24,0,0,23,23,23,23,23,0,23,0,,,,,,0,,11-02-22,11-02-22,08:04:20,Fri Mar 11 2022 08:04:20 GMT+0100 (közép-európai téli idő),The main experiment item,yes,0,0,C:/Users/rrics/Documents/!!ResearchBMECOGSCI/gnet,0,0,0,prototype4.png,no,mono,no,18,no,black,no,no,768,1192,3.5.6,legacy,xpyriment,osweb,1.3.13,0,l,k,l,,51189,70445,51189,,2,legacy,860,1600,24,900,24,0,0,1600,1646982285247,1024,2,48000,-16,experiment,prototype2.png,0,even,Win32,731,183328,180315,731,731,391315,392831,386319,184846,386319,731,,,,,,visual_patterns,0,0,0,yes,1366
undefined,undefined,undefined,undefined,white,no,Mozilla,Netscape,"5.0 (Windows NT 10.0; Win64; x64) AppleWebKit/537.36 (KHTML, like Gecko) Chrome/99.0.4844.51 Safari/537.36",xpyriment,legacy,legacy,0,uniform,0,0,0,0,24,24,24,0,0,24,24,24,24,24,0,24,0,,,,,,0,,11-02-22,11-02-22,08:04:20,Fri Mar 11 2022 08:04:20 GMT+0100 (közép-európai téli idő),The main experiment item,yes,0,0,C:/Users/rrics/Documents/!!ResearchBMECOGSCI/gnet,0,0,0,prototype4.png,no,mono,no,18,no,black,no,no,768,1192,3.5.6,legacy,xpyriment,osweb,1.3.13,0,l,k,l,,51189,70445,51189,,2,legacy,860,1600,24,900,24,0,0,1600,1646982285247,1024,2,48000,-16,experiment,p4sarrsha2.png,0,even,Win32,731,183328,180315,731,731,397842,399347,392842,184846,392842,731,,,,,,visual_patterns,0,0,0,yes,1366
undefined,undefined,undefined,undefined,white,no,Mozilla,Netscape,"5.0 (Windows NT 10.0; Win64; x64) AppleWebKit/537.36 (KHTML, like Gecko) Chrome/99.0.4844.51 Safari/537.36",xpyriment,legacy,legacy,0,uniform,0,0,0,0,24,24,24,0,0,25,25,25,25,25,0,25,0,,,,,,0,,11-02-22,11-02-22,08:04:20,Fri Mar 11 2022 08:04:20 GMT+0100 (közép-európai téli idő),The main experiment item,yes,0,0,C:/Users/rrics/Documents/!!ResearchBMECOGSCI/gnet,0,0,0,prototype4.png,no,mono,no,18,no,black,no,no,768,1192,3.5.6,legacy,xpyriment,osweb,1.3.13,0,l,k,l,,51189,70445,51189,,2,legacy,860,1600,24,900,24,0,0,1600,1646982285247,1024,2,48000,-16,experiment,p9sarr1.png,0,even,Win32,731,183328,180315,731,731,404496,406013,399497,184846,399497,731,,,,,,visual_patterns,0,0,0,yes,1366
undefined,undefined,undefined,undefined,white,no,Mozilla,Netscape,"5.0 (Windows NT 10.0; Win64; x64) AppleWebKit/537.36 (KHTML, like Gecko) Chrome/99.0.4844.51 Safari/537.36",xpyriment,legacy,legacy,0,uniform,0,0,0,0,24,24,24,0,0,26,26,26,26,26,0,26,0,,,,,,0,,11-02-22,11-02-22,08:04:20,Fri Mar 11 2022 08:04:20 GMT+0100 (közép-európai téli idő),The main experiment item,yes,0,0,C:/Users/rrics/Documents/!!ResearchBMECOGSCI/gnet,0,0,0,prototype4.png,no,mono,no,18,no,black,no,no,768,1192,3.5.6,legacy,xpyriment,osweb,1.3.13,0,l,k,l,,51189,70445,51189,,2,legacy,860,1600,24,900,24,0,0,1600,1646982285247,1024,2,48000,-16,experiment,prototype1.png,0,even,Win32,731,183328,180315,731,731,411027,412529,406032,184846,406032,731,,,,,,visual_patterns,0,0,0,yes,1366
undefined,undefined,undefined,undefined,white,no,Mozilla,Netscape,"5.0 (Windows NT 10.0; Win64; x64) AppleWebKit/537.36 (KHTML, like Gecko) Chrome/99.0.4844.51 Safari/537.36",xpyriment,legacy,legacy,0,uniform,0,0,0,0,24,24,24,0,0,27,27,27,27,27,0,27,0,,,,,,0,,11-02-22,11-02-22,08:04:20,Fri Mar 11 2022 08:04:20 GMT+0100 (közép-európai téli idő),The main experiment item,yes,0,0,C:/Users/rrics/Documents/!!ResearchBMECOGSCI/gnet,0,0,0,prototype4.png,no,mono,no,18,no,black,no,no,768,1192,3.5.6,legacy,xpyriment,osweb,1.3.13,0,l,k,l,,51189,70445,51189,,2,legacy,860,1600,24,900,24,0,0,1600,1646982285247,1024,2,48000,-16,experiment,p4sarrcol1.png,0,even,Win32,731,183328,180315,731,731,417546,419061,412552,184846,412552,731,,,,,,visual_patterns,0,0,0,yes,1366
undefined,undefined,undefined,undefined,white,no,Mozilla,Netscape,"5.0 (Windows NT 10.0; Win64; x64) AppleWebKit/537.36 (KHTML, like Gecko) Chrome/99.0.4844.51 Safari/537.36",xpyriment,legacy,legacy,0,uniform,0,0,0,0,24,24,24,0,0,28,28,28,28,28,0,28,0,,,,,,0,,11-02-22,11-02-22,08:04:20,Fri Mar 11 2022 08:04:20 GMT+0100 (közép-európai téli idő),The main experiment item,yes,0,0,C:/Users/rrics/Documents/!!ResearchBMECOGSCI/gnet,0,0,0,prototype4.png,no,mono,no,18,no,black,no,no,768,1192,3.5.6,legacy,xpyriment,osweb,1.3.13,0,l,k,l,,51189,70445,51189,,2,legacy,860,1600,24,900,24,0,0,1600,1646982285247,1024,2,48000,-16,experiment,prototype4.png,0,even,Win32,731,183328,180315,731,731,424071,425577,419071,184846,419071,731,,,,,,visual_patterns,0,0,0,yes,1366
undefined,undefined,undefined,undefined,white,no,Mozilla,Netscape,"5.0 (Windows NT 10.0; Win64; x64) AppleWebKit/537.36 (KHTML, like Gecko) Chrome/99.0.4844.51 Safari/537.36",xpyriment,legacy,legacy,0,uniform,0,0,0,0,24,24,24,0,0,29,29,29,29,29,0,29,0,,,,,,0,,11-02-22,11-02-22,08:04:20,Fri Mar 11 2022 08:04:20 GMT+0100 (közép-európai téli idő),The main experiment item,yes,0,0,C:/Users/rrics/Documents/!!ResearchBMECOGSCI/gnet,0,0,0,prototype4.png,no,mono,no,18,no,black,no,no,768,1192,3.5.6,legacy,xpyriment,osweb,1.3.13,0,l,k,l,,51189,70445,51189,,2,legacy,860,1600,24,900,24,0,0,1600,1646982285247,1024,2,48000,-16,experiment,prototype5.png,0,even,Win32,731,183328,180315,731,731,430594,432110,425599,184846,425599,731,,,,,,visual_patterns,0,0,0,yes,1366
undefined,undefined,undefined,undefined,white,no,Mozilla,Netscape,"5.0 (Windows NT 10.0; Win64; x64) AppleWebKit/537.36 (KHTML, like Gecko) Chrome/99.0.4844.51 Safari/537.36",xpyriment,legacy,legacy,0,uniform,0,0,0,0,24,24,24,0,0,30,30,30,30,30,0,30,0,,,,,,0,,11-02-22,11-02-22,08:04:20,Fri Mar 11 2022 08:04:20 GMT+0100 (közép-európai téli idő),The main experiment item,yes,0,0,C:/Users/rrics/Documents/!!ResearchBMECOGSCI/gnet,0,0,0,prototype4.png,no,mono,no,18,no,black,no,no,768,1192,3.5.6,legacy,xpyriment,osweb,1.3.13,0,l,k,l,,51189,70445,51189,,2,legacy,860,1600,24,900,24,0,0,1600,1646982285247,1024,2,48000,-16,experiment,p5sarrcol2.png,0,even,Win32,731,183328,180315,731,731,437157,438659,432162,184846,432162,731,,,,,,visual_patterns,0,0,0,yes,1366
undefined,undefined,undefined,undefined,white,no,Mozilla,Netscape,"5.0 (Windows NT 10.0; Win64; x64) AppleWebKit/537.36 (KHTML, like Gecko) Chrome/99.0.4844.51 Safari/537.36",xpyriment,legacy,legacy,0,uniform,0,0,0,0,24,24,24,0,0,31,31,31,31,31,0,31,0,,,,,,0,,11-02-22,11-02-22,08:04:20,Fri Mar 11 2022 08:04:20 GMT+0100 (közép-európai téli idő),The main experiment item,yes,0,0,C:/Users/rrics/Documents/!!ResearchBMECOGSCI/gnet,0,0,0,prototype4.png,no,mono,no,18,no,black,no,no,768,1192,3.5.6,legacy,xpyriment,osweb,1.3.13,0,l,k,l,,51189,70445,51189,,2,legacy,860,1600,24,900,24,0,0,1600,1646982285247,1024,2,48000,-16,experiment,p2sarrsha2.png,0,even,Win32,731,183328,180315,731,731,443673,445175,438677,184846,438677,731,,,,,,visual_patterns,0,0,0,yes,1366
undefined,undefined,undefined,undefined,white,no,Mozilla,Netscape,"5.0 (Windows NT 10.0; Win64; x64) AppleWebKit/537.36 (KHTML, like Gecko) Chrome/99.0.4844.51 Safari/537.36",xpyriment,legacy,legacy,0,uniform,0,0,0,0,24,24,24,0,0,32,32,32,32,32,0,32,0,,,,,,0,,11-02-22,11-02-22,08:04:20,Fri Mar 11 2022 08:04:20 GMT+0100 (közép-európai téli idő),The main experiment item,yes,0,0,C:/Users/rrics/Documents/!!ResearchBMECOGSCI/gnet,0,0,0,prototype4.png,no,mono,no,18,no,black,no,no,768,1192,3.5.6,legacy,xpyriment,osweb,1.3.13,0,l,k,l,,51189,70445,51189,,2,legacy,860,1600,24,900,24,0,0,1600,1646982285247,1024,2,48000,-16,experiment,p5sarr1.png,0,even,Win32,731,183328,180315,731,731,450191,451707,445195,184846,445195,731,,,,,,visual_patterns,0,0,0,yes,1366
undefined,undefined,undefined,undefined,white,no,Mozilla,Netscape,"5.0 (Windows NT 10.0; Win64; x64) AppleWebKit/537.36 (KHTML, like Gecko) Chrome/99.0.4844.51 Safari/537.36",xpyriment,legacy,legacy,0,uniform,0,0,0,0,24,24,24,0,0,33,33,33,33,33,0,33,0,,,,,,0,,11-02-22,11-02-22,08:04:20,Fri Mar 11 2022 08:04:20 GMT+0100 (közép-európai téli idő),The main experiment item,yes,0,0,C:/Users/rrics/Documents/!!ResearchBMECOGSCI/gnet,0,0,0,prototype4.png,no,mono,no,18,no,black,no,no,768,1192,3.5.6,legacy,xpyriment,osweb,1.3.13,0,l,k,l,,51189,70445,51189,,2,legacy,860,1600,24,900,24,0,0,1600,1646982285247,1024,2,48000,-16,experiment,p3sarrshacol1.png,0,even,Win32,731,183328,180315,731,731,456736,458240,451734,184846,451734,731,,,,,,visual_patterns,0,0,0,yes,1366
undefined,undefined,undefined,undefined,white,no,Mozilla,Netscape,"5.0 (Windows NT 10.0; Win64; x64) AppleWebKit/537.36 (KHTML, like Gecko) Chrome/99.0.4844.51 Safari/537.36",xpyriment,legacy,legacy,0,uniform,0,0,0,0,24,24,24,0,0,34,34,34,34,34,0,34,0,,,,,,0,,11-02-22,11-02-22,08:04:20,Fri Mar 11 2022 08:04:20 GMT+0100 (közép-európai téli idő),The main experiment item,yes,0,0,C:/Users/rrics/Documents/!!ResearchBMECOGSCI/gnet,0,0,0,prototype4.png,no,mono,no,18,no,black,no,no,768,1192,3.5.6,legacy,xpyriment,osweb,1.3.13,0,l,k,l,,51189,70445,51189,,2,legacy,860,1600,24,900,24,0,0,1600,1646982285247,1024,2,48000,-16,experiment,prototype1.png,0,even,Win32,731,183328,180315,731,731,463256,464772,458258,184846,458258,731,,,,,,visual_patterns,0,0,0,yes,1366
undefined,undefined,undefined,undefined,white,no,Mozilla,Netscape,"5.0 (Windows NT 10.0; Win64; x64) AppleWebKit/537.36 (KHTML, like Gecko) Chrome/99.0.4844.51 Safari/537.36",xpyriment,legacy,legacy,0,uniform,0,0,0,0,24,24,24,0,0,35,35,35,35,35,0,35,0,,,,,,0,,11-02-22,11-02-22,08:04:20,Fri Mar 11 2022 08:04:20 GMT+0100 (közép-európai téli idő),The main experiment item,yes,0,0,C:/Users/rrics/Documents/!!ResearchBMECOGSCI/gnet,0,0,0,prototype4.png,no,mono,no,18,no,black,no,no,768,1192,3.5.6,legacy,xpyriment,osweb,1.3.13,0,l,k,l,,51189,70445,51189,,2,legacy,860,1600,24,900,24,0,0,1600,1646982285247,1024,2,48000,-16,experiment,p4sarrshacol1.png,0,even,Win32,731,183328,180315,731,731,469789,471305,464796,184846,464796,731,,,,,,visual_patterns,0,0,0,yes,1366
undefined,undefined,undefined,undefined,white,no,Mozilla,Netscape,"5.0 (Windows NT 10.0; Win64; x64) AppleWebKit/537.36 (KHTML, like Gecko) Chrome/99.0.4844.51 Safari/537.36",xpyriment,legacy,legacy,0,uniform,0,0,0,0,24,24,24,0,0,36,36,36,36,36,0,36,0,,,,,,0,,11-02-22,11-02-22,08:04:20,Fri Mar 11 2022 08:04:20 GMT+0100 (közép-európai téli idő),The main experiment item,yes,0,0,C:/Users/rrics/Documents/!!ResearchBMECOGSCI/gnet,0,0,0,prototype4.png,no,mono,no,18,no,black,no,no,768,1192,3.5.6,legacy,xpyriment,osweb,1.3.13,0,l,k,l,,51189,70445,51189,,2,legacy,860,1600,24,900,24,0,0,1600,1646982285247,1024,2,48000,-16,experiment,prototype3.png,0,even,Win32,731,183328,180315,731,731,476326,477837,471323,184846,471322,731,,,,,,visual_patterns,0,0,0,yes,1366
undefined,undefined,undefined,undefined,white,no,Mozilla,Netscape,"5.0 (Windows NT 10.0; Win64; x64) AppleWebKit/537.36 (KHTML, like Gecko) Chrome/99.0.4844.51 Safari/537.36",xpyriment,legacy,legacy,0,uniform,0,0,0,0,24,24,24,0,0,37,37,37,37,37,0,37,0,,,,,,0,,11-02-22,11-02-22,08:04:20,Fri Mar 11 2022 08:04:20 GMT+0100 (közép-európai téli idő),The main experiment item,yes,0,0,C:/Users/rrics/Documents/!!ResearchBMECOGSCI/gnet,0,0,0,prototype4.png,no,mono,no,18,no,black,no,no,768,1192,3.5.6,legacy,xpyriment,osweb,1.3.13,0,l,k,l,,51189,70445,51189,,2,legacy,860,1600,24,900,24,0,0,1600,1646982285247,1024,2,48000,-16,experiment,prototype3.png,0,even,Win32,731,183328,180315,731,731,482854,484370,477851,184846,477851,731,,,,,,visual_patterns,0,0,0,yes,1366
undefined,undefined,undefined,undefined,white,no,Mozilla,Netscape,"5.0 (Windows NT 10.0; Win64; x64) AppleWebKit/537.36 (KHTML, like Gecko) Chrome/99.0.4844.51 Safari/537.36",xpyriment,legacy,legacy,0,uniform,0,0,0,0,24,24,24,0,0,38,38,38,38,38,0,38,0,,,,,,0,,11-02-22,11-02-22,08:04:20,Fri Mar 11 2022 08:04:20 GMT+0100 (közép-európai téli idő),The main experiment item,yes,0,0,C:/Users/rrics/Documents/!!ResearchBMECOGSCI/gnet,0,0,0,prototype4.png,no,mono,no,18,no,black,no,no,768,1192,3.5.6,legacy,xpyriment,osweb,1.3.13,0,l,k,l,,51189,70445,51189,,2,legacy,860,1600,24,900,24,0,0,1600,1646982285247,1024,2,48000,-16,experiment,p7sarr1.png,0,even,Win32,731,183328,180315,731,731,489382,490886,484386,184846,484386,731,,,,,,visual_patterns,0,0,0,yes,1366
undefined,undefined,undefined,undefined,white,no,Mozilla,Netscape,"5.0 (Windows NT 10.0; Win64; x64) AppleWebKit/537.36 (KHTML, like Gecko) Chrome/99.0.4844.51 Safari/537.36",xpyriment,legacy,legacy,0,uniform,0,0,0,0,24,24,24,0,0,39,39,39,39,39,0,39,0,,,,,,0,,11-02-22,11-02-22,08:04:20,Fri Mar 11 2022 08:04:20 GMT+0100 (közép-európai téli idő),The main experiment item,yes,0,0,C:/Users/rrics/Documents/!!ResearchBMECOGSCI/gnet,0,0,0,prototype4.png,no,mono,no,18,no,black,no,no,768,1192,3.5.6,legacy,xpyriment,osweb,1.3.13,0,l,k,l,,51189,70445,51189,,2,legacy,860,1600,24,900,24,0,0,1600,1646982285247,1024,2,48000,-16,experiment,p1sarrsha1.png,0,even,Win32,731,183328,180315,731,731,495907,497418,490910,184846,490910,731,,,,,,visual_patterns,0,0,0,yes,1366
undefined,undefined,undefined,undefined,white,no,Mozilla,Netscape,"5.0 (Windows NT 10.0; Win64; x64) AppleWebKit/537.36 (KHTML, like Gecko) Chrome/99.0.4844.51 Safari/537.36",xpyriment,legacy,legacy,0,uniform,0,0,0,0,24,24,24,0,0,40,40,40,40,40,0,40,0,,,,,,0,,11-02-22,11-02-22,08:04:20,Fri Mar 11 2022 08:04:20 GMT+0100 (közép-európai téli idő),The main experiment item,yes,0,0,C:/Users/rrics/Documents/!!ResearchBMECOGSCI/gnet,0,0,0,prototype4.png,no,mono,no,18,no,black,no,no,768,1192,3.5.6,legacy,xpyriment,osweb,1.3.13,0,l,k,l,,51189,70445,51189,,2,legacy,860,1600,24,900,24,0,0,1600,1646982285247,1024,2,48000,-16,experiment,prototype5.png,0,even,Win32,731,183328,180315,731,731,502435,503951,497436,184846,497436,731,,,,,,visual_patterns,0,0,0,yes,1366
undefined,undefined,undefined,undefined,white,no,Mozilla,Netscape,"5.0 (Windows NT 10.0; Win64; x64) AppleWebKit/537.36 (KHTML, like Gecko) Chrome/99.0.4844.51 Safari/537.36",xpyriment,legacy,legacy,0,uniform,0,0,0,0,24,24,24,0,0,41,41,41,41,41,0,41,0,,,,,,0,,11-02-22,11-02-22,08:04:20,Fri Mar 11 2022 08:04:20 GMT+0100 (közép-európai téli idő),The main experiment item,yes,0,0,C:/Users/rrics/Documents/!!ResearchBMECOGSCI/gnet,0,0,0,prototype4.png,no,mono,no,18,no,black,no,no,768,1192,3.5.6,legacy,xpyriment,osweb,1.3.13,0,l,k,l,,51189,70445,51189,,2,legacy,860,1600,24,900,24,0,0,1600,1646982285247,1024,2,48000,-16,experiment,p3sarrshacol2.png,0,even,Win32,731,183328,180315,731,731,508964,510467,503968,184846,503968,731,,,,,,visual_patterns,0,0,0,yes,1366
undefined,undefined,undefined,undefined,white,no,Mozilla,Netscape,"5.0 (Windows NT 10.0; Win64; x64) AppleWebKit/537.36 (KHTML, like Gecko) Chrome/99.0.4844.51 Safari/537.36",xpyriment,legacy,legacy,0,uniform,0,0,0,0,24,24,24,0,0,42,42,42,42,42,0,42,0,,,,,,0,,11-02-22,11-02-22,08:04:20,Fri Mar 11 2022 08:04:20 GMT+0100 (közép-európai téli idő),The main experiment item,yes,0,0,C:/Users/rrics/Documents/!!ResearchBMECOGSCI/gnet,0,0,0,prototype4.png,no,mono,no,18,no,black,no,no,768,1192,3.5.6,legacy,xpyriment,osweb,1.3.13,0,l,k,l,,51189,70445,51189,,2,legacy,860,1600,24,900,24,0,0,1600,1646982285247,1024,2,48000,-16,experiment,p3sarrcol2.png,0,even,Win32,731,183328,180315,731,731,515492,516999,510495,184846,510495,731,,,,,,visual_patterns,0,0,0,yes,1366
undefined,undefined,undefined,undefined,white,no,Mozilla,Netscape,"5.0 (Windows NT 10.0; Win64; x64) AppleWebKit/537.36 (KHTML, like Gecko) Chrome/99.0.4844.51 Safari/537.36",xpyriment,legacy,legacy,0,uniform,0,0,0,0,24,24,24,0,0,43,43,43,43,43,0,43,0,,,,,,0,,11-02-22,11-02-22,08:04:20,Fri Mar 11 2022 08:04:20 GMT+0100 (közép-európai téli idő),The main experiment item,yes,0,0,C:/Users/rrics/Documents/!!ResearchBMECOGSCI/gnet,0,0,0,prototype4.png,no,mono,no,18,no,black,no,no,768,1192,3.5.6,legacy,xpyriment,osweb,1.3.13,0,l,k,l,,51189,70445,51189,,2,legacy,860,1600,24,900,24,0,0,1600,1646982285247,1024,2,48000,-16,experiment,p3sarr2.png,0,even,Win32,731,183328,180315,731,731,522025,523532,517023,184846,517023,731,,,,,,visual_patterns,0,0,0,yes,1366
undefined,undefined,undefined,undefined,white,no,Mozilla,Netscape,"5.0 (Windows NT 10.0; Win64; x64) AppleWebKit/537.36 (KHTML, like Gecko) Chrome/99.0.4844.51 Safari/537.36",xpyriment,legacy,legacy,0,uniform,0,0,0,0,24,24,24,0,0,44,44,44,44,44,0,44,0,,,,,,0,,11-02-22,11-02-22,08:04:20,Fri Mar 11 2022 08:04:20 GMT+0100 (közép-európai téli idő),The main experiment item,yes,0,0,C:/Users/rrics/Documents/!!ResearchBMECOGSCI/gnet,0,0,0,prototype4.png,no,mono,no,18,no,black,no,no,768,1192,3.5.6,legacy,xpyriment,osweb,1.3.13,0,l,k,l,,51189,70445,51189,,2,legacy,860,1600,24,900,24,0,0,1600,1646982285247,1024,2,48000,-16,experiment,p2sarrsha1.png,0,even,Win32,731,183328,180315,731,731,528548,530064,523550,184846,523550,731,,,,,,visual_patterns,0,0,0,yes,1366
undefined,undefined,undefined,undefined,white,no,Mozilla,Netscape,"5.0 (Windows NT 10.0; Win64; x64) AppleWebKit/537.36 (KHTML, like Gecko) Chrome/99.0.4844.51 Safari/537.36",xpyriment,legacy,legacy,0,uniform,0,0,0,0,24,24,24,0,0,45,45,45,45,45,0,45,0,,,,,,0,,11-02-22,11-02-22,08:04:20,Fri Mar 11 2022 08:04:20 GMT+0100 (közép-európai téli idő),The main experiment item,yes,0,0,C:/Users/rrics/Documents/!!ResearchBMECOGSCI/gnet,0,0,0,prototype4.png,no,mono,no,18,no,black,no,no,768,1192,3.5.6,legacy,xpyriment,osweb,1.3.13,0,l,k,l,,51189,70445,51189,,2,legacy,860,1600,24,900,24,0,0,1600,1646982285247,1024,2,48000,-16,experiment,p4sarrsha1.png,0,even,Win32,731,183328,180315,731,731,535088,536596,530088,184846,530088,731,,,,,,visual_patterns,0,0,0,yes,1366
undefined,undefined,undefined,undefined,white,no,Mozilla,Netscape,"5.0 (Windows NT 10.0; Win64; x64) AppleWebKit/537.36 (KHTML, like Gecko) Chrome/99.0.4844.51 Safari/537.36",xpyriment,legacy,legacy,0,uniform,0,0,0,0,24,24,24,0,0,46,46,46,46,46,0,46,0,,,,,,0,,11-02-22,11-02-22,08:04:20,Fri Mar 11 2022 08:04:20 GMT+0100 (közép-európai téli idő),The main experiment item,yes,0,0,C:/Users/rrics/Documents/!!ResearchBMECOGSCI/gnet,0,0,0,prototype4.png,no,mono,no,18,no,black,no,no,768,1192,3.5.6,legacy,xpyriment,osweb,1.3.13,0,l,k,l,,51189,70445,51189,,2,legacy,860,1600,24,900,24,0,0,1600,1646982285247,1024,2,48000,-16,experiment,p1sarrcol1.png,0,even,Win32,731,183328,180315,731,731,541608,543113,536606,184846,536606,731,,,,,,visual_patterns,0,0,0,yes,1366
undefined,undefined,undefined,undefined,white,no,Mozilla,Netscape,"5.0 (Windows NT 10.0; Win64; x64) AppleWebKit/537.36 (KHTML, like Gecko) Chrome/99.0.4844.51 Safari/537.36",xpyriment,legacy,legacy,0,uniform,0,0,0,0,24,24,24,0,0,47,47,47,47,47,0,47,0,,,,,,0,,11-02-22,11-02-22,08:04:20,Fri Mar 11 2022 08:04:20 GMT+0100 (közép-európai téli idő),The main experiment item,yes,0,0,C:/Users/rrics/Documents/!!ResearchBMECOGSCI/gnet,0,0,0,prototype4.png,no,mono,no,18,no,black,no,no,768,1192,3.5.6,legacy,xpyriment,osweb,1.3.13,0,l,k,l,,51189,70445,51189,,2,legacy,860,1600,24,900,24,0,0,1600,1646982285247,1024,2,48000,-16,experiment,p1sarrsha2.png,0,even,Win32,731,183328,180315,731,731,548137,549645,543157,184846,543157,731,,,,,,visual_patterns,0,0,0,yes,1366
undefined,undefined,undefined,undefined,white,no,Mozilla,Netscape,"5.0 (Windows NT 10.0; Win64; x64) AppleWebKit/537.36 (KHTML, like Gecko) Chrome/99.0.4844.51 Safari/537.36",xpyriment,legacy,legacy,0,uniform,0,0,0,0,24,24,24,0,0,48,48,48,48,48,0,48,0,,,,,,0,,11-02-22,11-02-22,08:04:20,Fri Mar 11 2022 08:04:20 GMT+0100 (közép-európai téli idő),The main experiment item,yes,0,0,C:/Users/rrics/Documents/!!ResearchBMECOGSCI/gnet,0,0,0,prototype4.png,no,mono,no,18,no,black,no,no,768,1192,3.5.6,legacy,xpyriment,osweb,1.3.13,0,l,k,l,,51189,70445,51189,,2,legacy,860,1600,24,900,24,0,0,1600,1646982285247,1024,2,48000,-16,experiment,p7sarr2.png,0,even,Win32,731,183328,180315,731,731,554666,556178,549665,184846,549665,731,,,,,,visual_patterns,0,0,0,yes,1366
undefined,undefined,undefined,undefined,white,no,Mozilla,Netscape,"5.0 (Windows NT 10.0; Win64; x64) AppleWebKit/537.36 (KHTML, like Gecko) Chrome/99.0.4844.51 Safari/537.36",xpyriment,legacy,legacy,0,uniform,0,0,0,0,24,24,24,0,0,49,49,49,49,49,0,49,0,,,,,,0,,11-02-22,11-02-22,08:04:20,Fri Mar 11 2022 08:04:20 GMT+0100 (közép-európai téli idő),The main experiment item,yes,0,0,C:/Users/rrics/Documents/!!ResearchBMECOGSCI/gnet,0,0,0,prototype4.png,no,mono,no,18,no,black,no,no,768,1192,3.5.6,legacy,xpyriment,osweb,1.3.13,0,l,k,l,,51189,70445,51189,,2,legacy,860,1600,24,900,24,0,0,1600,1646982285247,1024,2,48000,-16,experiment,p4sarr1.png,0,even,Win32,731,183328,180315,731,731,561194,562710,556199,184846,556199,731,,,,,,visual_patterns,0,0,0,yes,1366
undefined,undefined,undefined,undefined,white,no,Mozilla,Netscape,"5.0 (Windows NT 10.0; Win64; x64) AppleWebKit/537.36 (KHTML, like Gecko) Chrome/99.0.4844.51 Safari/537.36",xpyriment,legacy,legacy,0,uniform,0,0,0,0,24,24,24,0,0,50,50,50,50,50,0,50,0,,,,,,0,,11-02-22,11-02-22,08:04:20,Fri Mar 11 2022 08:04:20 GMT+0100 (közép-európai téli idő),The main experiment item,yes,0,0,C:/Users/rrics/Documents/!!ResearchBMECOGSCI/gnet,0,0,0,prototype4.png,no,mono,no,18,no,black,no,no,768,1192,3.5.6,legacy,xpyriment,osweb,1.3.13,0,l,k,l,,51189,70445,51189,,2,legacy,860,1600,24,900,24,0,0,1600,1646982285247,1024,2,48000,-16,experiment,p10sarr1.png,0,even,Win32,731,183328,180315,731,731,567755,569259,562757,184846,562757,731,,,,,,visual_patterns,0,0,0,yes,1366
undefined,undefined,undefined,undefined,white,no,Mozilla,Netscape,"5.0 (Windows NT 10.0; Win64; x64) AppleWebKit/537.36 (KHTML, like Gecko) Chrome/99.0.4844.51 Safari/537.36",xpyriment,legacy,legacy,0,uniform,0,0,0,0,24,24,24,0,0,51,51,51,51,51,0,51,0,,,,,,0,,11-02-22,11-02-22,08:04:20,Fri Mar 11 2022 08:04:20 GMT+0100 (közép-európai téli idő),The main experiment item,yes,0,0,C:/Users/rrics/Documents/!!ResearchBMECOGSCI/gnet,0,0,0,prototype4.png,no,mono,no,18,no,black,no,no,768,1192,3.5.6,legacy,xpyriment,osweb,1.3.13,0,l,k,l,,51189,70445,51189,,2,legacy,860,1600,24,900,24,0,0,1600,1646982285247,1024,2,48000,-16,experiment,prototype3.png,0,even,Win32,731,183328,180315,731,731,574281,575792,569278,184846,569278,731,,,,,,visual_patterns,0,0,0,yes,1366
undefined,undefined,undefined,undefined,white,no,Mozilla,Netscape,"5.0 (Windows NT 10.0; Win64; x64) AppleWebKit/537.36 (KHTML, like Gecko) Chrome/99.0.4844.51 Safari/537.36",xpyriment,legacy,legacy,0,uniform,0,0,0,0,24,24,24,0,0,52,52,52,52,52,0,52,0,,,,,,0,,11-02-22,11-02-22,08:04:20,Fri Mar 11 2022 08:04:20 GMT+0100 (közép-európai téli idő),The main experiment item,yes,0,0,C:/Users/rrics/Documents/!!ResearchBMECOGSCI/gnet,0,0,0,prototype4.png,no,mono,no,18,no,black,no,no,768,1192,3.5.6,legacy,xpyriment,osweb,1.3.13,0,l,k,l,,51189,70445,51189,,2,legacy,860,1600,24,900,24,0,0,1600,1646982285247,1024,2,48000,-16,experiment,p1sarr1.png,0,even,Win32,731,183328,180315,731,731,580798,582308,575802,184846,575802,731,,,,,,visual_patterns,0,0,0,yes,1366
undefined,undefined,undefined,undefined,white,no,Mozilla,Netscape,"5.0 (Windows NT 10.0; Win64; x64) AppleWebKit/537.36 (KHTML, like Gecko) Chrome/99.0.4844.51 Safari/537.36",xpyriment,legacy,legacy,0,uniform,0,0,0,0,24,24,24,0,0,53,53,53,53,53,0,53,0,,,,,,0,,11-02-22,11-02-22,08:04:20,Fri Mar 11 2022 08:04:20 GMT+0100 (közép-európai téli idő),The main experiment item,yes,0,0,C:/Users/rrics/Documents/!!ResearchBMECOGSCI/gnet,0,0,0,prototype4.png,no,mono,no,18,no,black,no,no,768,1192,3.5.6,legacy,xpyriment,osweb,1.3.13,0,l,k,l,,51189,70445,51189,,2,legacy,860,1600,24,900,24,0,0,1600,1646982285247,1024,2,48000,-16,experiment,p1sarrcol2.png,0,even,Win32,731,183328,180315,731,731,587330,588840,582332,184846,582331,731,,,,,,visual_patterns,0,0,0,yes,1366
undefined,undefined,undefined,undefined,white,no,Mozilla,Netscape,"5.0 (Windows NT 10.0; Win64; x64) AppleWebKit/537.36 (KHTML, like Gecko) Chrome/99.0.4844.51 Safari/537.36",xpyriment,legacy,legacy,0,uniform,0,0,0,0,24,24,24,0,0,54,54,54,54,54,0,54,0,,,,,,0,,11-02-22,11-02-22,08:04:20,Fri Mar 11 2022 08:04:20 GMT+0100 (közép-európai téli idő),The main experiment item,yes,0,0,C:/Users/rrics/Documents/!!ResearchBMECOGSCI/gnet,0,0,0,prototype4.png,no,mono,no,18,no,black,no,no,768,1192,3.5.6,legacy,xpyriment,osweb,1.3.13,0,l,k,l,,51189,70445,51189,,2,legacy,860,1600,24,900,24,0,0,1600,1646982285247,1024,2,48000,-16,experiment,p2sarrcol2.png,0,even,Win32,731,183328,180315,731,731,593857,595372,588854,184846,588853,731,,,,,,visual_patterns,0,0,0,yes,1366
undefined,undefined,undefined,undefined,white,no,Mozilla,Netscape,"5.0 (Windows NT 10.0; Win64; x64) AppleWebKit/537.36 (KHTML, like Gecko) Chrome/99.0.4844.51 Safari/537.36",xpyriment,legacy,legacy,0,uniform,0,0,0,0,24,24,24,0,0,55,55,55,55,55,0,55,0,,,,,,0,,11-02-22,11-02-22,08:04:20,Fri Mar 11 2022 08:04:20 GMT+0100 (közép-európai téli idő),The main experiment item,yes,0,0,C:/Users/rrics/Documents/!!ResearchBMECOGSCI/gnet,0,0,0,prototype4.png,no,mono,no,18,no,black,no,no,768,1192,3.5.6,legacy,xpyriment,osweb,1.3.13,0,l,k,l,,51189,70445,51189,,2,legacy,860,1600,24,900,24,0,0,1600,1646982285247,1024,2,48000,-16,experiment,prototype4.png,0,even,Win32,731,183328,180315,731,731,600404,601905,595401,184846,595401,731,,,,,,visual_patterns,0,0,0,yes,1366
undefined,undefined,undefined,undefined,white,no,Mozilla,Netscape,"5.0 (Windows NT 10.0; Win64; x64) AppleWebKit/537.36 (KHTML, like Gecko) Chrome/99.0.4844.51 Safari/537.36",xpyriment,legacy,legacy,0,uniform,0,0,0,0,24,24,24,0,0,56,56,56,56,56,0,56,0,,,,,,0,,11-02-22,11-02-22,08:04:20,Fri Mar 11 2022 08:04:20 GMT+0100 (közép-európai téli idő),The main experiment item,yes,0,0,C:/Users/rrics/Documents/!!ResearchBMECOGSCI/gnet,0,0,0,prototype4.png,no,mono,no,18,no,black,no,no,768,1192,3.5.6,legacy,xpyriment,osweb,1.3.13,0,l,k,l,,51189,70445,51189,,2,legacy,860,1600,24,900,24,0,0,1600,1646982285247,1024,2,48000,-16,experiment,p2sarrshacol1.png,0,even,Win32,731,183328,180315,731,731,606921,608437,601920,184846,601920,731,,,,,,visual_patterns,0,0,0,yes,1366
undefined,undefined,undefined,undefined,white,no,Mozilla,Netscape,"5.0 (Windows NT 10.0; Win64; x64) AppleWebKit/537.36 (KHTML, like Gecko) Chrome/99.0.4844.51 Safari/537.36",xpyriment,legacy,legacy,0,uniform,0,0,0,0,24,24,24,0,0,57,57,57,57,57,0,57,0,,,,,,0,,11-02-22,11-02-22,08:04:20,Fri Mar 11 2022 08:04:20 GMT+0100 (közép-európai téli idő),The main experiment item,yes,0,0,C:/Users/rrics/Documents/!!ResearchBMECOGSCI/gnet,0,0,0,prototype4.png,no,mono,no,18,no,black,no,no,768,1192,3.5.6,legacy,xpyriment,osweb,1.3.13,0,l,k,l,,51189,70445,51189,,2,legacy,860,1600,24,900,24,0,0,1600,1646982285247,1024,2,48000,-16,experiment,prototype5.png,0,even,Win32,731,183328,180315,731,731,613451,614953,608446,184846,608446,731,,,,,,visual_patterns,0,0,0,yes,1366
undefined,undefined,undefined,undefined,white,no,Mozilla,Netscape,"5.0 (Windows NT 10.0; Win64; x64) AppleWebKit/537.36 (KHTML, like Gecko) Chrome/99.0.4844.51 Safari/537.36",xpyriment,legacy,legacy,0,uniform,0,0,0,0,24,24,24,0,0,58,58,58,58,58,0,58,0,,,,,,0,,11-02-22,11-02-22,08:04:20,Fri Mar 11 2022 08:04:20 GMT+0100 (közép-európai téli idő),The main experiment item,yes,0,0,C:/Users/rrics/Documents/!!ResearchBMECOGSCI/gnet,0,0,0,prototype4.png,no,mono,no,18,no,black,no,no,768,1192,3.5.6,legacy,xpyriment,osweb,1.3.13,0,l,k,l,,51189,70445,51189,,2,legacy,860,1600,24,900,24,0,0,1600,1646982285247,1024,2,48000,-16,experiment,prototype2.png,0,even,Win32,731,183328,180315,731,731,619965,621470,614964,184846,614964,731,,,,,,visual_patterns,0,0,0,yes,1366
undefined,undefined,undefined,undefined,white,no,Mozilla,Netscape,"5.0 (Windows NT 10.0; Win64; x64) AppleWebKit/537.36 (KHTML, like Gecko) Chrome/99.0.4844.51 Safari/537.36",xpyriment,legacy,legacy,0,uniform,0,0,0,0,24,24,24,0,0,59,59,59,59,59,0,59,0,,,,,,0,,11-02-22,11-02-22,08:04:20,Fri Mar 11 2022 08:04:20 GMT+0100 (közép-európai téli idő),The main experiment item,yes,0,0,C:/Users/rrics/Documents/!!ResearchBMECOGSCI/gnet,0,0,0,prototype4.png,no,mono,no,18,no,black,no,no,768,1192,3.5.6,legacy,xpyriment,osweb,1.3.13,0,l,k,l,,51189,70445,51189,,2,legacy,860,1600,24,900,24,0,0,1600,1646982285247,1024,2,48000,-16,experiment,prototype5.png,0,even,Win32,731,183328,180315,731,731,626486,628002,621488,184846,621488,731,,,,,,visual_patterns,0,0,0,yes,1366
undefined,undefined,undefined,undefined,white,no,Mozilla,Netscape,"5.0 (Windows NT 10.0; Win64; x64) AppleWebKit/537.36 (KHTML, like Gecko) Chrome/99.0.4844.51 Safari/537.36",xpyriment,legacy,legacy,0,uniform,0,0,0,0,24,24,24,0,0,60,60,60,60,60,0,60,0,,,,,,0,,11-02-22,11-02-22,08:04:20,Fri Mar 11 2022 08:04:20 GMT+0100 (közép-európai téli idő),The main experiment item,yes,0,0,C:/Users/rrics/Documents/!!ResearchBMECOGSCI/gnet,0,0,0,prototype4.png,no,mono,no,18,no,black,no,no,768,1192,3.5.6,legacy,xpyriment,osweb,1.3.13,0,l,k,l,,51189,70445,51189,,2,legacy,860,1600,24,900,24,0,0,1600,1646982285247,1024,2,48000,-16,experiment,p1sarrshacol2.png,0,even,Win32,731,183328,180315,731,731,633049,634551,628053,184846,628053,731,,,,,,visual_patterns,0,0,0,yes,1366
undefined,undefined,undefined,undefined,white,no,Mozilla,Netscape,"5.0 (Windows NT 10.0; Win64; x64) AppleWebKit/537.36 (KHTML, like Gecko) Chrome/99.0.4844.51 Safari/537.36",xpyriment,legacy,legacy,0,uniform,0,0,0,0,24,24,24,0,0,61,61,61,61,61,0,61,0,,,,,,0,,11-02-22,11-02-22,08:04:20,Fri Mar 11 2022 08:04:20 GMT+0100 (közép-európai téli idő),The main experiment item,yes,0,0,C:/Users/rrics/Documents/!!ResearchBMECOGSCI/gnet,0,0,0,prototype4.png,no,mono,no,18,no,black,no,no,768,1192,3.5.6,legacy,xpyriment,osweb,1.3.13,0,l,k,l,,51189,70445,51189,,2,legacy,860,1600,24,900,24,0,0,1600,1646982285247,1024,2,48000,-16,experiment,p2sarrcol1.png,0,even,Win32,731,183328,180315,731,731,639568,641084,634573,184846,634573,731,,,,,,visual_patterns,0,0,0,yes,1366
undefined,undefined,undefined,undefined,white,no,Mozilla,Netscape,"5.0 (Windows NT 10.0; Win64; x64) AppleWebKit/537.36 (KHTML, like Gecko) Chrome/99.0.4844.51 Safari/537.36",xpyriment,legacy,legacy,0,uniform,0,0,0,0,24,24,24,0,0,62,62,62,62,62,0,62,0,,,,,,0,,11-02-22,11-02-22,08:04:20,Fri Mar 11 2022 08:04:20 GMT+0100 (közép-európai téli idő),The main experiment item,yes,0,0,C:/Users/rrics/Documents/!!ResearchBMECOGSCI/gnet,0,0,0,prototype4.png,no,mono,no,18,no,black,no,no,768,1192,3.5.6,legacy,xpyriment,osweb,1.3.13,0,l,k,l,,51189,70445,51189,,2,legacy,860,1600,24,900,24,0,0,1600,1646982285247,1024,2,48000,-16,experiment,p5sarr2.png,0,even,Win32,731,183328,180315,731,731,646100,647616,641109,184846,641109,731,,,,,,visual_patterns,0,0,0,yes,1366
undefined,undefined,undefined,undefined,white,no,Mozilla,Netscape,"5.0 (Windows NT 10.0; Win64; x64) AppleWebKit/537.36 (KHTML, like Gecko) Chrome/99.0.4844.51 Safari/537.36",xpyriment,legacy,legacy,0,uniform,0,0,0,0,24,24,24,0,0,63,63,63,63,63,0,63,0,,,,,,0,,11-02-22,11-02-22,08:04:20,Fri Mar 11 2022 08:04:20 GMT+0100 (közép-európai téli idő),The main experiment item,yes,0,0,C:/Users/rrics/Documents/!!ResearchBMECOGSCI/gnet,0,0,0,prototype4.png,no,mono,no,18,no,black,no,no,768,1192,3.5.6,legacy,xpyriment,osweb,1.3.13,0,l,k,l,,51189,70445,51189,,2,legacy,860,1600,24,900,24,0,0,1600,1646982285247,1024,2,48000,-16,experiment,p10sarr2.png,0,even,Win32,731,183328,180315,731,731,652641,654149,647671,184846,647648,731,,,,,,visual_patterns,0,0,0,yes,1366
undefined,undefined,undefined,undefined,white,no,Mozilla,Netscape,"5.0 (Windows NT 10.0; Win64; x64) AppleWebKit/537.36 (KHTML, like Gecko) Chrome/99.0.4844.51 Safari/537.36",xpyriment,legacy,legacy,0,uniform,0,0,0,0,24,24,24,0,0,64,64,64,64,64,0,64,0,,,,,,0,,11-02-22,11-02-22,08:04:20,Fri Mar 11 2022 08:04:20 GMT+0100 (közép-európai téli idő),The main experiment item,yes,0,0,C:/Users/rrics/Documents/!!ResearchBMECOGSCI/gnet,0,0,0,prototype4.png,no,mono,no,18,no,black,no,no,768,1192,3.5.6,legacy,xpyriment,osweb,1.3.13,0,l,k,l,,51189,70445,51189,,2,legacy,860,1600,24,900,24,0,0,1600,1646982285247,1024,2,48000,-16,experiment,prototype1.png,0,even,Win32,731,183328,180315,731,731,659173,660681,654171,184846,654171,731,,,,,,visual_patterns,0,0,0,yes,1366
undefined,undefined,undefined,undefined,white,no,Mozilla,Netscape,"5.0 (Windows NT 10.0; Win64; x64) AppleWebKit/537.36 (KHTML, like Gecko) Chrome/99.0.4844.51 Safari/537.36",xpyriment,legacy,legacy,0,uniform,0,0,0,0,24,24,24,0,0,65,65,65,65,65,0,65,0,,,,,,0,,11-02-22,11-02-22,08:04:20,Fri Mar 11 2022 08:04:20 GMT+0100 (közép-európai téli idő),The main experiment item,yes,0,0,C:/Users/rrics/Documents/!!ResearchBMECOGSCI/gnet,0,0,0,prototype4.png,no,mono,no,18,no,black,no,no,768,1192,3.5.6,legacy,xpyriment,osweb,1.3.13,0,l,k,l,,51189,70445,51189,,2,legacy,860,1600,24,900,24,0,0,1600,1646982285247,1024,2,48000,-16,experiment,prototype4.png,0,even,Win32,731,183328,180315,731,731,665771,667281,660770,184846,660769,731,,,,,,visual_patterns,0,0,0,yes,1366
undefined,undefined,undefined,undefined,white,no,Mozilla,Netscape,"5.0 (Windows NT 10.0; Win64; x64) AppleWebKit/537.36 (KHTML, like Gecko) Chrome/99.0.4844.51 Safari/537.36",xpyriment,legacy,legacy,0,uniform,0,0,0,0,24,24,24,0,0,66,66,66,66,66,0,66,0,,,,,,0,,11-02-22,11-02-22,08:04:20,Fri Mar 11 2022 08:04:20 GMT+0100 (közép-európai téli idő),The main experiment item,yes,0,0,C:/Users/rrics/Documents/!!ResearchBMECOGSCI/gnet,0,0,0,prototype4.png,no,mono,no,18,no,black,no,no,768,1192,3.5.6,legacy,xpyriment,osweb,1.3.13,0,l,k,l,,51189,70445,51189,,2,legacy,860,1600,24,900,24,0,0,1600,1646982285247,1024,2,48000,-16,experiment,p2sarrshacol2.png,0,even,Win32,731,183328,180315,731,731,672302,673813,667304,184846,667304,731,,,,,,visual_patterns,0,0,0,yes,1366
undefined,undefined,undefined,undefined,white,no,Mozilla,Netscape,"5.0 (Windows NT 10.0; Win64; x64) AppleWebKit/537.36 (KHTML, like Gecko) Chrome/99.0.4844.51 Safari/537.36",xpyriment,legacy,legacy,0,uniform,0,0,0,0,24,24,24,0,0,67,67,67,67,67,0,67,0,,,,,,0,,11-02-22,11-02-22,08:04:20,Fri Mar 11 2022 08:04:20 GMT+0100 (közép-európai téli idő),The main experiment item,yes,0,0,C:/Users/rrics/Documents/!!ResearchBMECOGSCI/gnet,0,0,0,prototype4.png,no,mono,no,18,no,black,no,no,768,1192,3.5.6,legacy,xpyriment,osweb,1.3.13,0,l,k,l,,51189,70445,51189,,2,legacy,860,1600,24,900,24,0,0,1600,1646982285247,1024,2,48000,-16,experiment,p1sarr2.png,0,even,Win32,731,183328,180315,731,731,678830,680346,673834,184846,673834,731,,,,,,visual_patterns,0,0,0,yes,1366
undefined,undefined,undefined,undefined,white,no,Mozilla,Netscape,"5.0 (Windows NT 10.0; Win64; x64) AppleWebKit/537.36 (KHTML, like Gecko) Chrome/99.0.4844.51 Safari/537.36",xpyriment,legacy,legacy,0,uniform,0,0,0,0,24,24,24,0,0,68,68,68,68,68,0,68,0,,,,,,0,,11-02-22,11-02-22,08:04:20,Fri Mar 11 2022 08:04:20 GMT+0100 (közép-európai téli idő),The main experiment item,yes,0,0,C:/Users/rrics/Documents/!!ResearchBMECOGSCI/gnet,0,0,0,prototype4.png,no,mono,no,18,no,black,no,no,768,1192,3.5.6,legacy,xpyriment,osweb,1.3.13,0,l,k,l,,51189,70445,51189,,2,legacy,860,1600,24,900,24,0,0,1600,1646982285247,1024,2,48000,-16,experiment,p6sarr2.png,0,even,Win32,731,183328,180315,731,731,685362,686878,680367,184846,680367,731,,,,,,visual_patterns,0,0,0,yes,1366
undefined,undefined,undefined,undefined,white,no,Mozilla,Netscape,"5.0 (Windows NT 10.0; Win64; x64) AppleWebKit/537.36 (KHTML, like Gecko) Chrome/99.0.4844.51 Safari/537.36",xpyriment,legacy,legacy,0,uniform,0,0,0,0,24,24,24,0,0,69,69,69,69,69,0,69,0,,,,,,0,,11-02-22,11-02-22,08:04:20,Fri Mar 11 2022 08:04:20 GMT+0100 (közép-európai téli idő),The main experiment item,yes,0,0,C:/Users/rrics/Documents/!!ResearchBMECOGSCI/gnet,0,0,0,prototype4.png,no,mono,no,18,no,black,no,no,768,1192,3.5.6,legacy,xpyriment,osweb,1.3.13,0,l,k,l,,51189,70445,51189,,2,legacy,860,1600,24,900,24,0,0,1600,1646982285247,1024,2,48000,-16,experiment,prototype2.png,0,even,Win32,731,183328,180315,731,731,691894,693411,686895,184846,686895,731,,,,,,visual_patterns,0,0,0,yes,1366
undefined,undefined,undefined,undefined,white,no,Mozilla,Netscape,"5.0 (Windows NT 10.0; Win64; x64) AppleWebKit/537.36 (KHTML, like Gecko) Chrome/99.0.4844.51 Safari/537.36",xpyriment,legacy,legacy,0,uniform,0,0,0,0,24,24,24,0,0,70,70,70,70,70,0,70,0,,,,,,0,,11-02-22,11-02-22,08:04:20,Fri Mar 11 2022 08:04:20 GMT+0100 (közép-európai téli idő),The main experiment item,yes,0,0,C:/Users/rrics/Documents/!!ResearchBMECOGSCI/gnet,0,0,0,prototype4.png,no,mono,no,18,no,black,no,no,768,1192,3.5.6,legacy,xpyriment,osweb,1.3.13,0,l,k,l,,51189,70445,51189,,2,legacy,860,1600,24,900,24,0,0,1600,1646982285247,1024,2,48000,-16,experiment,p1sarrshacol1.png,0,even,Win32,731,183328,180315,731,731,698467,699976,693468,184846,693467,731,,,,,,visual_patterns,0,0,0,yes,1366
undefined,undefined,undefined,undefined,white,no,Mozilla,Netscape,"5.0 (Windows NT 10.0; Win64; x64) AppleWebKit/537.36 (KHTML, like Gecko) Chrome/99.0.4844.51 Safari/537.36",xpyriment,legacy,legacy,0,uniform,0,0,0,0,24,24,24,0,0,71,71,71,71,71,0,71,0,,,,,,0,,11-02-22,11-02-22,08:04:20,Fri Mar 11 2022 08:04:20 GMT+0100 (közép-európai téli idő),The main experiment item,yes,0,0,C:/Users/rrics/Documents/!!ResearchBMECOGSCI/gnet,0,0,0,prototype4.png,no,mono,no,18,no,black,no,no,768,1192,3.5.6,legacy,xpyriment,osweb,1.3.13,0,l,k,l,,51189,70445,51189,,2,legacy,860,1600,24,900,24,0,0,1600,1646982285247,1024,2,48000,-16,experiment,prototype1.png,0,even,Win32,731,183328,180315,731,731,704985,706492,699983,184846,699983,731,,,,,,visual_patterns,0,0,0,yes,1366
undefined,undefined,undefined,undefined,white,no,Mozilla,Netscape,"5.0 (Windows NT 10.0; Win64; x64) AppleWebKit/537.36 (KHTML, like Gecko) Chrome/99.0.4844.51 Safari/537.36",xpyriment,legacy,legacy,0,uniform,0,0,0,0,24,24,24,0,0,72,72,72,72,72,0,72,0,,,,,,0,,11-02-22,11-02-22,08:04:20,Fri Mar 11 2022 08:04:20 GMT+0100 (közép-európai téli idő),The main experiment item,yes,0,0,C:/Users/rrics/Documents/!!ResearchBMECOGSCI/gnet,0,0,0,prototype4.png,no,mono,no,18,no,black,no,no,768,1192,3.5.6,legacy,xpyriment,osweb,1.3.13,0,l,k,l,,51189,70445,51189,,2,legacy,860,1600,24,900,24,0,0,1600,1646982285247,1024,2,48000,-16,experiment,prototype5.png,0,even,Win32,731,183328,180315,731,731,711509,713024,706510,184846,706510,731,,,,,,visual_patterns,0,0,0,yes,1366
undefined,undefined,undefined,undefined,white,no,Mozilla,Netscape,"5.0 (Windows NT 10.0; Win64; x64) AppleWebKit/537.36 (KHTML, like Gecko) Chrome/99.0.4844.51 Safari/537.36",xpyriment,legacy,legacy,0,uniform,0,0,0,0,24,24,24,0,0,73,73,73,73,73,0,73,0,,,,,,0,,11-02-22,11-02-22,08:04:20,Fri Mar 11 2022 08:04:20 GMT+0100 (közép-európai téli idő),The main experiment item,yes,0,0,C:/Users/rrics/Documents/!!ResearchBMECOGSCI/gnet,0,0,0,prototype4.png,no,mono,no,18,no,black,no,no,768,1192,3.5.6,legacy,xpyriment,osweb,1.3.13,0,l,k,l,,51189,70445,51189,,2,legacy,860,1600,24,900,24,0,0,1600,1646982285247,1024,2,48000,-16,experiment,prototype3.png,0,even,Win32,731,183328,180315,731,731,718039,719541,713035,184846,713035,731,,,,,,visual_patterns,0,0,0,yes,1366
undefined,undefined,undefined,undefined,white,no,Mozilla,Netscape,"5.0 (Windows NT 10.0; Win64; x64) AppleWebKit/537.36 (KHTML, like Gecko) Chrome/99.0.4844.51 Safari/537.36",xpyriment,legacy,legacy,0,uniform,0,0,0,0,24,24,24,0,0,74,74,74,74,74,0,74,0,,,,,,0,,11-02-22,11-02-22,08:04:20,Fri Mar 11 2022 08:04:20 GMT+0100 (közép-európai téli idő),The main experiment item,yes,0,0,C:/Users/rrics/Documents/!!ResearchBMECOGSCI/gnet,0,0,0,prototype4.png,no,mono,no,18,no,black,no,no,768,1192,3.5.6,legacy,xpyriment,osweb,1.3.13,0,l,k,l,,51189,70445,51189,,2,legacy,860,1600,24,900,24,0,0,1600,1646982285247,1024,2,48000,-16,experiment,prototype2.png,0,even,Win32,731,183328,180315,731,731,724556,726057,719554,184846,719554,731,,,,,,visual_patterns,0,0,0,yes,1366
undefined,undefined,undefined,undefined,white,no,Mozilla,Netscape,"5.0 (Windows NT 10.0; Win64; x64) AppleWebKit/537.36 (KHTML, like Gecko) Chrome/99.0.4844.51 Safari/537.36",xpyriment,legacy,legacy,0,uniform,0,0,0,0,24,24,24,0,0,74,74,74,74,74,0,74,0,0,0,0,0,0,0,0,11-02-22,11-02-22,08:04:20,Fri Mar 11 2022 08:04:20 GMT+0100 (közép-európai téli idő),The main experiment item,yes,0,0,C:/Users/rrics/Documents/!!ResearchBMECOGSCI/gnet,0,0,0,prototype4.png,no,mono,no,18,no,black,no,no,768,1192,3.5.6,legacy,xpyriment,osweb,1.3.13,0,t,k,l,t,24466,70445,51189,24466,2,legacy,860,1600,24,900,24,0,0,1600,1646982285247,1024,2,48000,-16,experiment,p5sarrsha3.png,0,even,Win32,731,183328,180315,731,731,724556,726057,719554,184846,719554,731,753634,755136,750638,726066,750638,visual_patterns,0,0,0,yes,1366
undefined,undefined,undefined,undefined,white,no,Mozilla,Netscape,"5.0 (Windows NT 10.0; Win64; x64) AppleWebKit/537.36 (KHTML, like Gecko) Chrome/99.0.4844.51 Safari/537.36",xpyriment,legacy,legacy,0,uniform,0,0,0,0,24,24,24,0,0,74,74,74,74,74,0,74,0,1,1,1,1,1,0,1,11-02-22,11-02-22,08:04:20,Fri Mar 11 2022 08:04:20 GMT+0100 (közép-európai téli idő),The main experiment item,yes,0,0,C:/Users/rrics/Documents/!!ResearchBMECOGSCI/gnet,0,0,0,prototype4.png,no,mono,no,18,no,black,no,no,768,1192,3.5.6,legacy,xpyriment,osweb,1.3.13,0,t,k,l,t,24466,70445,51189,24466,2,legacy,860,1600,24,900,24,0,0,1600,1646982285247,1024,2,48000,-16,experiment,p2sarrshacol1.png,0,even,Win32,731,183328,180315,731,731,724556,726057,719554,184846,719554,731,758163,759669,755157,726066,755156,visual_patterns,0,0,0,yes,1366
undefined,undefined,undefined,undefined,white,no,Mozilla,Netscape,"5.0 (Windows NT 10.0; Win64; x64) AppleWebKit/537.36 (KHTML, like Gecko) Chrome/99.0.4844.51 Safari/537.36",xpyriment,legacy,legacy,0,uniform,0,0,0,0,24,24,24,0,0,74,74,74,74,74,0,74,0,2,2,2,2,2,0,2,11-02-22,11-02-22,08:04:20,Fri Mar 11 2022 08:04:20 GMT+0100 (közép-európai téli idő),The main experiment item,yes,0,0,C:/Users/rrics/Documents/!!ResearchBMECOGSCI/gnet,0,0,0,prototype4.png,no,mono,no,18,no,black,no,no,768,1192,3.5.6,legacy,xpyriment,osweb,1.3.13,0,t,k,l,t,24466,70445,51189,24466,2,legacy,860,1600,24,900,24,0,0,1600,1646982285247,1024,2,48000,-16,experiment,p4sarr4.png,0,even,Win32,731,183328,180315,731,731,724556,726057,719554,184846,719554,731,762693,764202,759692,726066,759692,visual_patterns,0,0,0,yes,1366
undefined,undefined,undefined,undefined,white,no,Mozilla,Netscape,"5.0 (Windows NT 10.0; Win64; x64) AppleWebKit/537.36 (KHTML, like Gecko) Chrome/99.0.4844.51 Safari/537.36",xpyriment,legacy,legacy,0,uniform,0,0,0,0,24,24,24,0,0,74,74,74,74,74,0,74,0,3,3,3,3,3,0,3,11-02-22,11-02-22,08:04:20,Fri Mar 11 2022 08:04:20 GMT+0100 (közép-európai téli idő),The main experiment item,yes,0,0,C:/Users/rrics/Documents/!!ResearchBMECOGSCI/gnet,0,0,0,prototype4.png,no,mono,no,18,no,black,no,no,768,1192,3.5.6,legacy,xpyriment,osweb,1.3.13,0,t,k,l,t,24466,70445,51189,24466,2,legacy,860,1600,24,900,24,0,0,1600,1646982285247,1024,2,48000,-16,experiment,p5sarrsha2.png,0,even,Win32,731,183328,180315,731,731,724556,726057,719554,184846,719554,731,767227,768735,764236,726066,764236,visual_patterns,0,0,0,yes,1366
undefined,undefined,undefined,undefined,white,no,Mozilla,Netscape,"5.0 (Windows NT 10.0; Win64; x64) AppleWebKit/537.36 (KHTML, like Gecko) Chrome/99.0.4844.51 Safari/537.36",xpyriment,legacy,legacy,0,uniform,0,0,0,0,24,24,24,0,0,74,74,74,74,74,0,74,0,4,4,4,4,4,0,4,11-02-22,11-02-22,08:04:20,Fri Mar 11 2022 08:04:20 GMT+0100 (közép-európai téli idő),The main experiment item,yes,0,0,C:/Users/rrics/Documents/!!ResearchBMECOGSCI/gnet,0,0,0,prototype4.png,no,mono,no,18,no,black,no,no,768,1192,3.5.6,legacy,xpyriment,osweb,1.3.13,0,t,k,l,t,24466,70445,51189,24466,2,legacy,860,1600,24,900,24,0,0,1600,1646982285247,1024,2,48000,-16,experiment,p7sarr2.png,0,even,Win32,731,183328,180315,731,731,724556,726057,719554,184846,719554,731,771756,773268,768755,726066,768755,visual_patterns,0,0,0,yes,1366
undefined,undefined,undefined,undefined,white,no,Mozilla,Netscape,"5.0 (Windows NT 10.0; Win64; x64) AppleWebKit/537.36 (KHTML, like Gecko) Chrome/99.0.4844.51 Safari/537.36",xpyriment,legacy,legacy,0,uniform,0,0,0,0,24,24,24,0,0,74,74,74,74,74,0,74,0,5,5,5,5,5,0,5,11-02-22,11-02-22,08:04:20,Fri Mar 11 2022 08:04:20 GMT+0100 (közép-európai téli idő),The main experiment item,yes,0,0,C:/Users/rrics/Documents/!!ResearchBMECOGSCI/gnet,0,0,0,prototype4.png,no,mono,no,18,no,black,no,no,768,1192,3.5.6,legacy,xpyriment,osweb,1.3.13,0,t,k,l,t,24466,70445,51189,24466,2,legacy,860,1600,24,900,24,0,0,1600,1646982285247,1024,2,48000,-16,experiment,p1sarrsha4.png,0,even,Win32,731,183328,180315,731,731,724556,726057,719554,184846,719554,731,776317,777834,773325,726066,773324,visual_patterns,0,0,0,yes,1366
undefined,undefined,undefined,undefined,white,no,Mozilla,Netscape,"5.0 (Windows NT 10.0; Win64; x64) AppleWebKit/537.36 (KHTML, like Gecko) Chrome/99.0.4844.51 Safari/537.36",xpyriment,legacy,legacy,0,uniform,0,0,0,0,24,24,24,0,0,74,74,74,74,74,0,74,0,6,6,6,6,6,0,6,11-02-22,11-02-22,08:04:20,Fri Mar 11 2022 08:04:20 GMT+0100 (közép-európai téli idő),The main experiment item,yes,0,0,C:/Users/rrics/Documents/!!ResearchBMECOGSCI/gnet,0,0,0,prototype4.png,no,mono,no,18,no,black,no,no,768,1192,3.5.6,legacy,xpyriment,osweb,1.3.13,0,t,k,l,t,24466,70445,51189,24466,2,legacy,860,1600,24,900,24,0,0,1600,1646982285247,1024,2,48000,-16,experiment,p3sarrcol2.png,0,even,Win32,731,183328,180315,731,731,724556,726057,719554,184846,719554,731,780850,782366,777851,726066,777851,visual_patterns,0,0,0,yes,1366
undefined,undefined,undefined,undefined,white,no,Mozilla,Netscape,"5.0 (Windows NT 10.0; Win64; x64) AppleWebKit/537.36 (KHTML, like Gecko) Chrome/99.0.4844.51 Safari/537.36",xpyriment,legacy,legacy,0,uniform,0,0,0,0,24,24,24,0,0,74,74,74,74,74,0,74,0,7,7,7,7,7,0,7,11-02-22,11-02-22,08:04:20,Fri Mar 11 2022 08:04:20 GMT+0100 (közép-európai téli idő),The main experiment item,yes,0,0,C:/Users/rrics/Documents/!!ResearchBMECOGSCI/gnet,0,0,0,prototype4.png,no,mono,no,18,no,black,no,no,768,1192,3.5.6,legacy,xpyriment,osweb,1.3.13,0,t,k,l,t,24466,70445,51189,24466,2,legacy,860,1600,24,900,24,0,0,1600,1646982285247,1024,2,48000,-16,experiment,p3sarrcol3.png,0,even,Win32,731,183328,180315,731,731,724556,726057,719554,184846,719554,731,785394,786899,782390,726066,782389,visual_patterns,0,0,0,yes,1366
undefined,undefined,undefined,undefined,white,no,Mozilla,Netscape,"5.0 (Windows NT 10.0; Win64; x64) AppleWebKit/537.36 (KHTML, like Gecko) Chrome/99.0.4844.51 Safari/537.36",xpyriment,legacy,legacy,0,uniform,0,0,0,0,24,24,24,0,0,74,74,74,74,74,0,74,0,8,8,8,8,8,0,8,11-02-22,11-02-22,08:04:20,Fri Mar 11 2022 08:04:20 GMT+0100 (közép-európai téli idő),The main experiment item,yes,0,0,C:/Users/rrics/Documents/!!ResearchBMECOGSCI/gnet,0,0,0,prototype4.png,no,mono,no,18,no,black,no,no,768,1192,3.5.6,legacy,xpyriment,osweb,1.3.13,0,t,k,l,t,24466,70445,51189,24466,2,legacy,860,1600,24,900,24,0,0,1600,1646982285247,1024,2,48000,-16,experiment,p1sarrsha1.png,0,even,Win32,731,183328,180315,731,731,724556,726057,719554,184846,719554,731,789926,791432,786918,726066,786918,visual_patterns,0,0,0,yes,1366
undefined,undefined,undefined,undefined,white,no,Mozilla,Netscape,"5.0 (Windows NT 10.0; Win64; x64) AppleWebKit/537.36 (KHTML, like Gecko) Chrome/99.0.4844.51 Safari/537.36",xpyriment,legacy,legacy,0,uniform,0,0,0,0,24,24,24,0,0,74,74,74,74,74,0,74,0,9,9,9,9,9,0,9,11-02-22,11-02-22,08:04:20,Fri Mar 11 2022 08:04:20 GMT+0100 (közép-európai téli idő),The main experiment item,yes,0,0,C:/Users/rrics/Documents/!!ResearchBMECOGSCI/gnet,0,0,0,prototype4.png,no,mono,no,18,no,black,no,no,768,1192,3.5.6,legacy,xpyriment,osweb,1.3.13,0,t,k,l,t,24466,70445,51189,24466,2,legacy,860,1600,24,900,24,0,0,1600,1646982285247,1024,2,48000,-16,experiment,p4sarr1.png,0,even,Win32,731,183328,180315,731,731,724556,726057,719554,184846,719554,731,794455,795965,791456,726066,791456,visual_patterns,0,0,0,yes,1366
undefined,undefined,undefined,undefined,white,no,Mozilla,Netscape,"5.0 (Windows NT 10.0; Win64; x64) AppleWebKit/537.36 (KHTML, like Gecko) Chrome/99.0.4844.51 Safari/537.36",xpyriment,legacy,legacy,0,uniform,0,0,0,0,24,24,24,0,0,74,74,74,74,74,0,74,0,10,10,10,10,10,0,10,11-02-22,11-02-22,08:04:20,Fri Mar 11 2022 08:04:20 GMT+0100 (közép-európai téli idő),The main experiment item,yes,0,0,C:/Users/rrics/Documents/!!ResearchBMECOGSCI/gnet,0,0,0,prototype4.png,no,mono,no,18,no,black,no,no,768,1192,3.5.6,legacy,xpyriment,osweb,1.3.13,0,t,k,l,t,24466,70445,51189,24466,2,legacy,860,1600,24,900,24,0,0,1600,1646982285247,1024,2,48000,-16,experiment,p9sarr2.png,0,even,Win32,731,183328,180315,731,731,724556,726057,719554,184846,719554,731,798991,800497,795994,726066,795994,visual_patterns,0,0,0,yes,1366
undefined,undefined,undefined,undefined,white,no,Mozilla,Netscape,"5.0 (Windows NT 10.0; Win64; x64) AppleWebKit/537.36 (KHTML, like Gecko) Chrome/99.0.4844.51 Safari/537.36",xpyriment,legacy,legacy,0,uniform,0,0,0,0,24,24,24,0,0,74,74,74,74,74,0,74,0,11,11,11,11,11,0,11,11-02-22,11-02-22,08:04:20,Fri Mar 11 2022 08:04:20 GMT+0100 (közép-európai téli idő),The main experiment item,yes,0,0,C:/Users/rrics/Documents/!!ResearchBMECOGSCI/gnet,0,0,0,prototype4.png,no,mono,no,18,no,black,no,no,768,1192,3.5.6,legacy,xpyriment,osweb,1.3.13,0,t,k,l,t,24466,70445,51189,24466,2,legacy,860,1600,24,900,24,0,0,1600,1646982285247,1024,2,48000,-16,experiment,p1sarr2.png,0,even,Win32,731,183328,180315,731,731,724556,726057,719554,184846,719554,731,803514,805030,800513,726066,800513,visual_patterns,0,0,0,yes,1366
undefined,undefined,undefined,undefined,white,no,Mozilla,Netscape,"5.0 (Windows NT 10.0; Win64; x64) AppleWebKit/537.36 (KHTML, like Gecko) Chrome/99.0.4844.51 Safari/537.36",xpyriment,legacy,legacy,0,uniform,0,0,0,0,24,24,24,0,0,74,74,74,74,74,0,74,0,12,12,12,12,12,0,12,11-02-22,11-02-22,08:04:20,Fri Mar 11 2022 08:04:20 GMT+0100 (közép-európai téli idő),The main experiment item,yes,0,0,C:/Users/rrics/Documents/!!ResearchBMECOGSCI/gnet,0,0,0,prototype4.png,no,mono,no,18,no,black,no,no,768,1192,3.5.6,legacy,xpyriment,osweb,1.3.13,0,t,k,l,t,24466,70445,51189,24466,2,legacy,860,1600,24,900,24,0,0,1600,1646982285247,1024,2,48000,-16,experiment,p3sarrcol4.png,0,even,Win32,731,183328,180315,731,731,724556,726057,719554,184846,719554,731,808047,809563,805049,726066,805049,visual_patterns,0,0,0,yes,1366
undefined,undefined,undefined,undefined,white,no,Mozilla,Netscape,"5.0 (Windows NT 10.0; Win64; x64) AppleWebKit/537.36 (KHTML, like Gecko) Chrome/99.0.4844.51 Safari/537.36",xpyriment,legacy,legacy,0,uniform,0,0,0,0,24,24,24,0,0,74,74,74,74,74,0,74,0,13,13,13,13,13,0,13,11-02-22,11-02-22,08:04:20,Fri Mar 11 2022 08:04:20 GMT+0100 (közép-európai téli idő),The main experiment item,yes,0,0,C:/Users/rrics/Documents/!!ResearchBMECOGSCI/gnet,0,0,0,prototype4.png,no,mono,no,18,no,black,no,no,768,1192,3.5.6,legacy,xpyriment,osweb,1.3.13,0,t,k,l,t,24466,70445,51189,24466,2,legacy,860,1600,24,900,24,0,0,1600,1646982285247,1024,2,48000,-16,experiment,p2sarrshacol2.png,0,even,Win32,731,183328,180315,731,731,724556,726057,719554,184846,719554,731,812585,814096,809580,726066,809580,visual_patterns,0,0,0,yes,1366
undefined,undefined,undefined,undefined,white,no,Mozilla,Netscape,"5.0 (Windows NT 10.0; Win64; x64) AppleWebKit/537.36 (KHTML, like Gecko) Chrome/99.0.4844.51 Safari/537.36",xpyriment,legacy,legacy,0,uniform,0,0,0,0,24,24,24,0,0,74,74,74,74,74,0,74,0,14,14,14,14,14,0,14,11-02-22,11-02-22,08:04:20,Fri Mar 11 2022 08:04:20 GMT+0100 (közép-európai téli idő),The main experiment item,yes,0,0,C:/Users/rrics/Documents/!!ResearchBMECOGSCI/gnet,0,0,0,prototype4.png,no,mono,no,18,no,black,no,no,768,1192,3.5.6,legacy,xpyriment,osweb,1.3.13,0,t,k,l,t,24466,70445,51189,24466,2,legacy,860,1600,24,900,24,0,0,1600,1646982285247,1024,2,48000,-16,experiment,p6sarr1.png,0,even,Win32,731,183328,180315,731,731,724556,726057,719554,184846,719554,731,817117,818628,814127,726066,814127,visual_patterns,0,0,0,yes,1366
undefined,undefined,undefined,undefined,white,no,Mozilla,Netscape,"5.0 (Windows NT 10.0; Win64; x64) AppleWebKit/537.36 (KHTML, like Gecko) Chrome/99.0.4844.51 Safari/537.36",xpyriment,legacy,legacy,0,uniform,0,0,0,0,24,24,24,0,0,74,74,74,74,74,0,74,0,15,15,15,15,15,0,15,11-02-22,11-02-22,08:04:20,Fri Mar 11 2022 08:04:20 GMT+0100 (közép-európai téli idő),The main experiment item,yes,0,0,C:/Users/rrics/Documents/!!ResearchBMECOGSCI/gnet,0,0,0,prototype4.png,no,mono,no,18,no,black,no,no,768,1192,3.5.6,legacy,xpyriment,osweb,1.3.13,0,t,k,l,t,24466,70445,51189,24466,2,legacy,860,1600,24,900,24,0,0,1600,1646982285247,1024,2,48000,-16,experiment,p4sarrshacol3.png,0,even,Win32,731,183328,180315,731,731,724556,726057,719554,184846,719554,731,821674,823178,818679,726066,818679,visual_patterns,0,0,0,yes,1366
undefined,undefined,undefined,undefined,white,no,Mozilla,Netscape,"5.0 (Windows NT 10.0; Win64; x64) AppleWebKit/537.36 (KHTML, like Gecko) Chrome/99.0.4844.51 Safari/537.36",xpyriment,legacy,legacy,0,uniform,0,0,0,0,24,24,24,0,0,74,74,74,74,74,0,74,0,16,16,16,16,16,0,16,11-02-22,11-02-22,08:04:20,Fri Mar 11 2022 08:04:20 GMT+0100 (közép-európai téli idő),The main experiment item,yes,0,0,C:/Users/rrics/Documents/!!ResearchBMECOGSCI/gnet,0,0,0,prototype4.png,no,mono,no,18,no,black,no,no,768,1192,3.5.6,legacy,xpyriment,osweb,1.3.13,0,t,k,l,t,24466,70445,51189,24466,2,legacy,860,1600,24,900,24,0,0,1600,1646982285247,1024,2,48000,-16,experiment,p4sarrshacol4.png,0,even,Win32,731,183328,180315,731,731,724556,726057,719554,184846,719554,731,826195,827700,823197,726066,823197,visual_patterns,0,0,0,yes,1366
undefined,undefined,undefined,undefined,white,no,Mozilla,Netscape,"5.0 (Windows NT 10.0; Win64; x64) AppleWebKit/537.36 (KHTML, like Gecko) Chrome/99.0.4844.51 Safari/537.36",xpyriment,legacy,legacy,0,uniform,0,0,0,0,24,24,24,0,0,74,74,74,74,74,0,74,0,17,17,17,17,17,0,17,11-02-22,11-02-22,08:04:20,Fri Mar 11 2022 08:04:20 GMT+0100 (közép-európai téli idő),The main experiment item,yes,0,0,C:/Users/rrics/Documents/!!ResearchBMECOGSCI/gnet,0,0,0,prototype4.png,no,mono,no,18,no,black,no,no,768,1192,3.5.6,legacy,xpyriment,osweb,1.3.13,0,t,k,l,t,24466,70445,51189,24466,2,legacy,860,1600,24,900,24,0,0,1600,1646982285247,1024,2,48000,-16,experiment,p2sarrcol1.png,0,even,Win32,731,183328,180315,731,731,724556,726057,719554,184846,719554,731,830720,832227,827720,726066,827720,visual_patterns,0,0,0,yes,1366
undefined,undefined,undefined,undefined,white,no,Mozilla,Netscape,"5.0 (Windows NT 10.0; Win64; x64) AppleWebKit/537.36 (KHTML, like Gecko) Chrome/99.0.4844.51 Safari/537.36",xpyriment,legacy,legacy,0,uniform,0,0,0,0,24,24,24,0,0,74,74,74,74,74,0,74,0,18,18,18,18,18,0,18,11-02-22,11-02-22,08:04:20,Fri Mar 11 2022 08:04:20 GMT+0100 (közép-európai téli idő),The main experiment item,yes,0,0,C:/Users/rrics/Documents/!!ResearchBMECOGSCI/gnet,0,0,0,prototype4.png,no,mono,no,18,no,black,no,no,768,1192,3.5.6,legacy,xpyriment,osweb,1.3.13,0,t,k,l,t,24466,70445,51189,24466,2,legacy,860,1600,24,900,24,0,0,1600,1646982285247,1024,2,48000,-16,experiment,p1sarr4.png,0,even,Win32,731,183328,180315,731,731,724556,726057,719554,184846,719554,731,835243,836760,832246,726066,832246,visual_patterns,0,0,0,yes,1366
undefined,undefined,undefined,undefined,white,no,Mozilla,Netscape,"5.0 (Windows NT 10.0; Win64; x64) AppleWebKit/537.36 (KHTML, like Gecko) Chrome/99.0.4844.51 Safari/537.36",xpyriment,legacy,legacy,0,uniform,0,0,0,0,24,24,24,0,0,74,74,74,74,74,0,74,0,19,19,19,19,19,0,19,11-02-22,11-02-22,08:04:20,Fri Mar 11 2022 08:04:20 GMT+0100 (közép-európai téli idő),The main experiment item,yes,0,0,C:/Users/rrics/Documents/!!ResearchBMECOGSCI/gnet,0,0,0,prototype4.png,no,mono,no,18,no,black,no,no,768,1192,3.5.6,legacy,xpyriment,osweb,1.3.13,0,t,k,l,t,24466,70445,51189,24466,2,legacy,860,1600,24,900,24,0,0,1600,1646982285247,1024,2,48000,-16,experiment,p10sarr1.png,0,even,Win32,731,183328,180315,731,731,724556,726057,719554,184846,719554,731,839786,841292,836781,726066,836781,visual_patterns,0,0,0,yes,1366
undefined,undefined,undefined,undefined,white,no,Mozilla,Netscape,"5.0 (Windows NT 10.0; Win64; x64) AppleWebKit/537.36 (KHTML, like Gecko) Chrome/99.0.4844.51 Safari/537.36",xpyriment,legacy,legacy,0,uniform,0,0,0,0,24,24,24,0,0,74,74,74,74,74,0,74,0,20,20,20,20,20,0,20,11-02-22,11-02-22,08:04:20,Fri Mar 11 2022 08:04:20 GMT+0100 (közép-európai téli idő),The main experiment item,yes,0,0,C:/Users/rrics/Documents/!!ResearchBMECOGSCI/gnet,0,0,0,prototype4.png,no,mono,no,18,no,black,no,no,768,1192,3.5.6,legacy,xpyriment,osweb,1.3.13,0,t,k,l,t,24466,70445,51189,24466,2,legacy,860,1600,24,900,24,0,0,1600,1646982285247,1024,2,48000,-16,experiment,p8sarr3.png,0,even,Win32,731,183328,180315,731,731,724556,726057,719554,184846,719554,731,844313,845825,841316,726066,841316,visual_patterns,0,0,0,yes,1366
undefined,undefined,undefined,undefined,white,no,Mozilla,Netscape,"5.0 (Windows NT 10.0; Win64; x64) AppleWebKit/537.36 (KHTML, like Gecko) Chrome/99.0.4844.51 Safari/537.36",xpyriment,legacy,legacy,0,uniform,0,0,0,0,24,24,24,0,0,74,74,74,74,74,0,74,0,21,21,21,21,21,0,21,11-02-22,11-02-22,08:04:20,Fri Mar 11 2022 08:04:20 GMT+0100 (közép-európai téli idő),The main experiment item,yes,0,0,C:/Users/rrics/Documents/!!ResearchBMECOGSCI/gnet,0,0,0,prototype4.png,no,mono,no,18,no,black,no,no,768,1192,3.5.6,legacy,xpyriment,osweb,1.3.13,0,t,k,l,t,24466,70445,51189,24466,2,legacy,860,1600,24,900,24,0,0,1600,1646982285247,1024,2,48000,-16,experiment,p9sarr4.png,0,even,Win32,731,183328,180315,731,731,724556,726057,719554,184846,719554,731,848842,850358,845852,726066,845851,visual_patterns,0,0,0,yes,1366
undefined,undefined,undefined,undefined,white,no,Mozilla,Netscape,"5.0 (Windows NT 10.0; Win64; x64) AppleWebKit/537.36 (KHTML, like Gecko) Chrome/99.0.4844.51 Safari/537.36",xpyriment,legacy,legacy,0,uniform,0,0,0,0,24,24,24,0,0,74,74,74,74,74,0,74,0,22,22,22,22,22,0,22,11-02-22,11-02-22,08:04:20,Fri Mar 11 2022 08:04:20 GMT+0100 (közép-európai téli idő),The main experiment item,yes,0,0,C:/Users/rrics/Documents/!!ResearchBMECOGSCI/gnet,0,0,0,prototype4.png,no,mono,no,18,no,black,no,no,768,1192,3.5.6,legacy,xpyriment,osweb,1.3.13,0,t,k,l,t,24466,70445,51189,24466,2,legacy,860,1600,24,900,24,0,0,1600,1646982285247,1024,2,48000,-16,experiment,p5sarrcol2.png,0,even,Win32,731,183328,180315,731,731,724556,726057,719554,184846,719554,731,853384,854891,850378,726066,850378,visual_patterns,0,0,0,yes,1366
undefined,undefined,undefined,undefined,white,no,Mozilla,Netscape,"5.0 (Windows NT 10.0; Win64; x64) AppleWebKit/537.36 (KHTML, like Gecko) Chrome/99.0.4844.51 Safari/537.36",xpyriment,legacy,legacy,0,uniform,0,0,0,0,24,24,24,0,0,74,74,74,74,74,0,74,0,23,23,23,23,23,0,23,11-02-22,11-02-22,08:04:20,Fri Mar 11 2022 08:04:20 GMT+0100 (közép-európai téli idő),The main experiment item,yes,0,0,C:/Users/rrics/Documents/!!ResearchBMECOGSCI/gnet,0,0,0,prototype4.png,no,mono,no,18,no,black,no,no,768,1192,3.5.6,legacy,xpyriment,osweb,1.3.13,0,t,k,l,t,24466,70445,51189,24466,2,legacy,860,1600,24,900,24,0,0,1600,1646982285247,1024,2,48000,-16,experiment,p7sarr4.png,0,even,Win32,731,183328,180315,731,731,724556,726057,719554,184846,719554,731,857906,859423,854914,726066,854914,visual_patterns,0,0,0,yes,1366
undefined,undefined,undefined,undefined,white,no,Mozilla,Netscape,"5.0 (Windows NT 10.0; Win64; x64) AppleWebKit/537.36 (KHTML, like Gecko) Chrome/99.0.4844.51 Safari/537.36",xpyriment,legacy,legacy,0,uniform,0,0,0,0,24,24,24,0,0,74,74,74,74,74,0,74,0,24,24,24,24,24,0,24,11-02-22,11-02-22,08:04:20,Fri Mar 11 2022 08:04:20 GMT+0100 (közép-európai téli idő),The main experiment item,yes,0,0,C:/Users/rrics/Documents/!!ResearchBMECOGSCI/gnet,0,0,0,prototype4.png,no,mono,no,18,no,black,no,no,768,1192,3.5.6,legacy,xpyriment,osweb,1.3.13,0,t,k,l,t,24466,70445,51189,24466,2,legacy,860,1600,24,900,24,0,0,1600,1646982285247,1024,2,48000,-16,experiment,p3sarrsha3.png,0,even,Win32,731,183328,180315,731,731,724556,726057,719554,184846,719554,731,862440,863956,859446,726066,859446,visual_patterns,0,0,0,yes,1366
undefined,undefined,undefined,undefined,white,no,Mozilla,Netscape,"5.0 (Windows NT 10.0; Win64; x64) AppleWebKit/537.36 (KHTML, like Gecko) Chrome/99.0.4844.51 Safari/537.36",xpyriment,legacy,legacy,0,uniform,0,0,0,0,24,24,24,0,0,74,74,74,74,74,0,74,0,25,25,25,25,25,0,25,11-02-22,11-02-22,08:04:20,Fri Mar 11 2022 08:04:20 GMT+0100 (közép-európai téli idő),The main experiment item,yes,0,0,C:/Users/rrics/Documents/!!ResearchBMECOGSCI/gnet,0,0,0,prototype4.png,no,mono,no,18,no,black,no,no,768,1192,3.5.6,legacy,xpyriment,osweb,1.3.13,0,t,k,l,t,24466,70445,51189,24466,2,legacy,860,1600,24,900,24,0,0,1600,1646982285247,1024,2,48000,-16,experiment,p8sarr4.png,0,even,Win32,731,183328,180315,731,731,724556,726057,719554,184846,719554,731,867011,868522,864017,726066,864016,visual_patterns,0,0,0,yes,1366
undefined,undefined,undefined,undefined,white,no,Mozilla,Netscape,"5.0 (Windows NT 10.0; Win64; x64) AppleWebKit/537.36 (KHTML, like Gecko) Chrome/99.0.4844.51 Safari/537.36",xpyriment,legacy,legacy,0,uniform,0,0,0,0,24,24,24,0,0,74,74,74,74,74,0,74,0,26,26,26,26,26,0,26,11-02-22,11-02-22,08:04:20,Fri Mar 11 2022 08:04:20 GMT+0100 (közép-európai téli idő),The main experiment item,yes,0,0,C:/Users/rrics/Documents/!!ResearchBMECOGSCI/gnet,0,0,0,prototype4.png,no,mono,no,18,no,black,no,no,768,1192,3.5.6,legacy,xpyriment,osweb,1.3.13,0,t,k,l,t,24466,70445,51189,24466,2,legacy,860,1600,24,900,24,0,0,1600,1646982285247,1024,2,48000,-16,experiment,p2sarrshacol4.png,0,even,Win32,731,183328,180315,731,731,724556,726057,719554,184846,719554,731,871543,873055,868545,726066,868545,visual_patterns,0,0,0,yes,1366
undefined,undefined,undefined,undefined,white,no,Mozilla,Netscape,"5.0 (Windows NT 10.0; Win64; x64) AppleWebKit/537.36 (KHTML, like Gecko) Chrome/99.0.4844.51 Safari/537.36",xpyriment,legacy,legacy,0,uniform,0,0,0,0,24,24,24,0,0,74,74,74,74,74,0,74,0,27,27,27,27,27,0,27,11-02-22,11-02-22,08:04:20,Fri Mar 11 2022 08:04:20 GMT+0100 (közép-európai téli idő),The main experiment item,yes,0,0,C:/Users/rrics/Documents/!!ResearchBMECOGSCI/gnet,0,0,0,prototype4.png,no,mono,no,18,no,black,no,no,768,1192,3.5.6,legacy,xpyriment,osweb,1.3.13,0,t,k,l,t,24466,70445,51189,24466,2,legacy,860,1600,24,900,24,0,0,1600,1646982285247,1024,2,48000,-16,experiment,p4sarrshacol1.png,0,even,Win32,731,183328,180315,731,731,724556,726057,719554,184846,719554,731,876069,877571,873070,726066,873069,visual_patterns,0,0,0,yes,1366
undefined,undefined,undefined,undefined,white,no,Mozilla,Netscape,"5.0 (Windows NT 10.0; Win64; x64) AppleWebKit/537.36 (KHTML, like Gecko) Chrome/99.0.4844.51 Safari/537.36",xpyriment,legacy,legacy,0,uniform,0,0,0,0,24,24,24,0,0,74,74,74,74,74,0,74,0,28,28,28,28,28,0,28,11-02-22,11-02-22,08:04:20,Fri Mar 11 2022 08:04:20 GMT+0100 (közép-európai téli idő),The main experiment item,yes,0,0,C:/Users/rrics/Documents/!!ResearchBMECOGSCI/gnet,0,0,0,prototype4.png,no,mono,no,18,no,black,no,no,768,1192,3.5.6,legacy,xpyriment,osweb,1.3.13,0,t,k,l,t,24466,70445,51189,24466,2,legacy,860,1600,24,900,24,0,0,1600,1646982285247,1024,2,48000,-16,experiment,p1sarrshacol3.png,0,even,Win32,731,183328,180315,731,731,724556,726057,719554,184846,719554,731,880599,882104,877606,726066,877606,visual_patterns,0,0,0,yes,1366
undefined,undefined,undefined,undefined,white,no,Mozilla,Netscape,"5.0 (Windows NT 10.0; Win64; x64) AppleWebKit/537.36 (KHTML, like Gecko) Chrome/99.0.4844.51 Safari/537.36",xpyriment,legacy,legacy,0,uniform,0,0,0,0,24,24,24,0,0,74,74,74,74,74,0,74,0,29,29,29,29,29,0,29,11-02-22,11-02-22,08:04:20,Fri Mar 11 2022 08:04:20 GMT+0100 (közép-európai téli idő),The main experiment item,yes,0,0,C:/Users/rrics/Documents/!!ResearchBMECOGSCI/gnet,0,0,0,prototype4.png,no,mono,no,18,no,black,no,no,768,1192,3.5.6,legacy,xpyriment,osweb,1.3.13,0,t,k,l,t,24466,70445,51189,24466,2,legacy,860,1600,24,900,24,0,0,1600,1646982285247,1024,2,48000,-16,experiment,p2sarrsha1.png,0,even,Win32,731,183328,180315,731,731,724556,726057,719554,184846,719554,731,885129,886637,882130,726066,882129,visual_patterns,0,0,0,yes,1366
undefined,undefined,undefined,undefined,white,no,Mozilla,Netscape,"5.0 (Windows NT 10.0; Win64; x64) AppleWebKit/537.36 (KHTML, like Gecko) Chrome/99.0.4844.51 Safari/537.36",xpyriment,legacy,legacy,0,uniform,0,0,0,0,24,24,24,0,0,74,74,74,74,74,0,74,0,30,30,30,30,30,0,30,11-02-22,11-02-22,08:04:20,Fri Mar 11 2022 08:04:20 GMT+0100 (közép-európai téli idő),The main experiment item,yes,0,0,C:/Users/rrics/Documents/!!ResearchBMECOGSCI/gnet,0,0,0,prototype4.png,no,mono,no,18,no,black,no,no,768,1192,3.5.6,legacy,xpyriment,osweb,1.3.13,0,t,k,l,t,24466,70445,51189,24466,2,legacy,860,1600,24,900,24,0,0,1600,1646982285247,1024,2,48000,-16,experiment,p3sarr2.png,0,even,Win32,731,183328,180315,731,731,724556,726057,719554,184846,719554,731,889659,891169,886656,726066,886656,visual_patterns,0,0,0,yes,1366
undefined,undefined,undefined,undefined,white,no,Mozilla,Netscape,"5.0 (Windows NT 10.0; Win64; x64) AppleWebKit/537.36 (KHTML, like Gecko) Chrome/99.0.4844.51 Safari/537.36",xpyriment,legacy,legacy,0,uniform,0,0,0,0,24,24,24,0,0,74,74,74,74,74,0,74,0,31,31,31,31,31,0,31,11-02-22,11-02-22,08:04:20,Fri Mar 11 2022 08:04:20 GMT+0100 (közép-európai téli idő),The main experiment item,yes,0,0,C:/Users/rrics/Documents/!!ResearchBMECOGSCI/gnet,0,0,0,prototype4.png,no,mono,no,18,no,black,no,no,768,1192,3.5.6,legacy,xpyriment,osweb,1.3.13,0,t,k,l,t,24466,70445,51189,24466,2,legacy,860,1600,24,900,24,0,0,1600,1646982285247,1024,2,48000,-16,experiment,p3sarrshacol3.png,0,even,Win32,731,183328,180315,731,731,724556,726057,719554,184846,719554,731,894203,895719,891221,726066,891221,visual_patterns,0,0,0,yes,1366
undefined,undefined,undefined,undefined,white,no,Mozilla,Netscape,"5.0 (Windows NT 10.0; Win64; x64) AppleWebKit/537.36 (KHTML, like Gecko) Chrome/99.0.4844.51 Safari/537.36",xpyriment,legacy,legacy,0,uniform,0,0,0,0,24,24,24,0,0,74,74,74,74,74,0,74,0,32,32,32,32,32,0,32,11-02-22,11-02-22,08:04:20,Fri Mar 11 2022 08:04:20 GMT+0100 (közép-európai téli idő),The main experiment item,yes,0,0,C:/Users/rrics/Documents/!!ResearchBMECOGSCI/gnet,0,0,0,prototype4.png,no,mono,no,18,no,black,no,no,768,1192,3.5.6,legacy,xpyriment,osweb,1.3.13,0,t,k,l,t,24466,70445,51189,24466,2,legacy,860,1600,24,900,24,0,0,1600,1646982285247,1024,2,48000,-16,experiment,p2sarrcol4.png,0,even,Win32,731,183328,180315,731,731,724556,726057,719554,184846,719554,731,898735,900252,895746,726066,895745,visual_patterns,0,0,0,yes,1366
undefined,undefined,undefined,undefined,white,no,Mozilla,Netscape,"5.0 (Windows NT 10.0; Win64; x64) AppleWebKit/537.36 (KHTML, like Gecko) Chrome/99.0.4844.51 Safari/537.36",xpyriment,legacy,legacy,0,uniform,0,0,0,0,24,24,24,0,0,74,74,74,74,74,0,74,0,33,33,33,33,33,0,33,11-02-22,11-02-22,08:04:20,Fri Mar 11 2022 08:04:20 GMT+0100 (közép-európai téli idő),The main experiment item,yes,0,0,C:/Users/rrics/Documents/!!ResearchBMECOGSCI/gnet,0,0,0,prototype4.png,no,mono,no,18,no,black,no,no,768,1192,3.5.6,legacy,xpyriment,osweb,1.3.13,0,t,k,l,t,24466,70445,51189,24466,2,legacy,860,1600,24,900,24,0,0,1600,1646982285247,1024,2,48000,-16,experiment,p5sarrcol1.png,0,even,Win32,731,183328,180315,731,731,724556,726057,719554,184846,719554,731,903273,904784,900277,726066,900277,visual_patterns,0,0,0,yes,1366
undefined,undefined,undefined,undefined,white,no,Mozilla,Netscape,"5.0 (Windows NT 10.0; Win64; x64) AppleWebKit/537.36 (KHTML, like Gecko) Chrome/99.0.4844.51 Safari/537.36",xpyriment,legacy,legacy,0,uniform,0,0,0,0,24,24,24,0,0,74,74,74,74,74,0,74,0,34,34,34,34,34,0,34,11-02-22,11-02-22,08:04:20,Fri Mar 11 2022 08:04:20 GMT+0100 (közép-európai téli idő),The main experiment item,yes,0,0,C:/Users/rrics/Documents/!!ResearchBMECOGSCI/gnet,0,0,0,prototype4.png,no,mono,no,18,no,black,no,no,768,1192,3.5.6,legacy,xpyriment,osweb,1.3.13,0,t,k,l,t,24466,70445,51189,24466,2,legacy,860,1600,24,900,24,0,0,1600,1646982285247,1024,2,48000,-16,experiment,p8sarr2.png,0,even,Win32,731,183328,180315,731,731,724556,726057,719554,184846,719554,731,907810,909317,904813,726066,904813,visual_patterns,0,0,0,yes,1366
undefined,undefined,undefined,undefined,white,no,Mozilla,Netscape,"5.0 (Windows NT 10.0; Win64; x64) AppleWebKit/537.36 (KHTML, like Gecko) Chrome/99.0.4844.51 Safari/537.36",xpyriment,legacy,legacy,0,uniform,0,0,0,0,24,24,24,0,0,74,74,74,74,74,0,74,0,35,35,35,35,35,0,35,11-02-22,11-02-22,08:04:20,Fri Mar 11 2022 08:04:20 GMT+0100 (közép-európai téli idő),The main experiment item,yes,0,0,C:/Users/rrics/Documents/!!ResearchBMECOGSCI/gnet,0,0,0,prototype4.png,no,mono,no,18,no,black,no,no,768,1192,3.5.6,legacy,xpyriment,osweb,1.3.13,0,t,k,l,t,24466,70445,51189,24466,2,legacy,860,1600,24,900,24,0,0,1600,1646982285247,1024,2,48000,-16,experiment,p5sarr3.png,0,even,Win32,731,183328,180315,731,731,724556,726057,719554,184846,719554,731,912381,913883,909378,726066,909378,visual_patterns,0,0,0,yes,1366
undefined,undefined,undefined,undefined,white,no,Mozilla,Netscape,"5.0 (Windows NT 10.0; Win64; x64) AppleWebKit/537.36 (KHTML, like Gecko) Chrome/99.0.4844.51 Safari/537.36",xpyriment,legacy,legacy,0,uniform,0,0,0,0,24,24,24,0,0,74,74,74,74,74,0,74,0,36,36,36,36,36,0,36,11-02-22,11-02-22,08:04:20,Fri Mar 11 2022 08:04:20 GMT+0100 (közép-európai téli idő),The main experiment item,yes,0,0,C:/Users/rrics/Documents/!!ResearchBMECOGSCI/gnet,0,0,0,prototype4.png,no,mono,no,18,no,black,no,no,768,1192,3.5.6,legacy,xpyriment,osweb,1.3.13,0,t,k,l,t,24466,70445,51189,24466,2,legacy,860,1600,24,900,24,0,0,1600,1646982285247,1024,2,48000,-16,experiment,p7sarr1.png,0,even,Win32,731,183328,180315,731,731,724556,726057,719554,184846,719554,731,916905,918416,913911,726066,913911,visual_patterns,0,0,0,yes,1366
undefined,undefined,undefined,undefined,white,no,Mozilla,Netscape,"5.0 (Windows NT 10.0; Win64; x64) AppleWebKit/537.36 (KHTML, like Gecko) Chrome/99.0.4844.51 Safari/537.36",xpyriment,legacy,legacy,0,uniform,0,0,0,0,24,24,24,0,0,74,74,74,74,74,0,74,0,37,37,37,37,37,0,37,11-02-22,11-02-22,08:04:20,Fri Mar 11 2022 08:04:20 GMT+0100 (közép-európai téli idő),The main experiment item,yes,0,0,C:/Users/rrics/Documents/!!ResearchBMECOGSCI/gnet,0,0,0,prototype4.png,no,mono,no,18,no,black,no,no,768,1192,3.5.6,legacy,xpyriment,osweb,1.3.13,0,t,k,l,t,24466,70445,51189,24466,2,legacy,860,1600,24,900,24,0,0,1600,1646982285247,1024,2,48000,-16,experiment,p1sarrcol4.png,0,even,Win32,731,183328,180315,731,731,724556,726057,719554,184846,719554,731,921446,922949,918450,726066,918450,visual_patterns,0,0,0,yes,1366
undefined,undefined,undefined,undefined,white,no,Mozilla,Netscape,"5.0 (Windows NT 10.0; Win64; x64) AppleWebKit/537.36 (KHTML, like Gecko) Chrome/99.0.4844.51 Safari/537.36",xpyriment,legacy,legacy,0,uniform,0,0,0,0,24,24,24,0,0,74,74,74,74,74,0,74,0,38,38,38,38,38,0,38,11-02-22,11-02-22,08:04:20,Fri Mar 11 2022 08:04:20 GMT+0100 (közép-európai téli idő),The main experiment item,yes,0,0,C:/Users/rrics/Documents/!!ResearchBMECOGSCI/gnet,0,0,0,prototype4.png,no,mono,no,18,no,black,no,no,768,1192,3.5.6,legacy,xpyriment,osweb,1.3.13,0,t,k,l,t,24466,70445,51189,24466,2,legacy,860,1600,24,900,24,0,0,1600,1646982285247,1024,2,48000,-16,experiment,p3sarrsha4.png,0,even,Win32,731,183328,180315,731,731,724556,726057,719554,184846,719554,731,925973,927482,922972,726066,922972,visual_patterns,0,0,0,yes,1366
undefined,undefined,undefined,undefined,white,no,Mozilla,Netscape,"5.0 (Windows NT 10.0; Win64; x64) AppleWebKit/537.36 (KHTML, like Gecko) Chrome/99.0.4844.51 Safari/537.36",xpyriment,legacy,legacy,0,uniform,0,0,0,0,24,24,24,0,0,74,74,74,74,74,0,74,0,39,39,39,39,39,0,39,11-02-22,11-02-22,08:04:20,Fri Mar 11 2022 08:04:20 GMT+0100 (közép-európai téli idő),The main experiment item,yes,0,0,C:/Users/rrics/Documents/!!ResearchBMECOGSCI/gnet,0,0,0,prototype4.png,no,mono,no,18,no,black,no,no,768,1192,3.5.6,legacy,xpyriment,osweb,1.3.13,0,t,k,l,t,24466,70445,51189,24466,2,legacy,860,1600,24,900,24,0,0,1600,1646982285247,1024,2,48000,-16,experiment,p3sarr1.png,0,even,Win32,731,183328,180315,731,731,724556,726057,719554,184846,719554,731,930515,932031,927520,726066,927520,visual_patterns,0,0,0,yes,1366
undefined,undefined,undefined,undefined,white,no,Mozilla,Netscape,"5.0 (Windows NT 10.0; Win64; x64) AppleWebKit/537.36 (KHTML, like Gecko) Chrome/99.0.4844.51 Safari/537.36",xpyriment,legacy,legacy,0,uniform,0,0,0,0,24,24,24,0,0,74,74,74,74,74,0,74,0,40,40,40,40,40,0,40,11-02-22,11-02-22,08:04:20,Fri Mar 11 2022 08:04:20 GMT+0100 (közép-európai téli idő),The main experiment item,yes,0,0,C:/Users/rrics/Documents/!!ResearchBMECOGSCI/gnet,0,0,0,prototype4.png,no,mono,no,18,no,black,no,no,768,1192,3.5.6,legacy,xpyriment,osweb,1.3.13,0,t,k,l,t,24466,70445,51189,24466,2,legacy,860,1600,24,900,24,0,0,1600,1646982285247,1024,2,48000,-16,experiment,p2sarrsha3.png,0,even,Win32,731,183328,180315,731,731,724556,726057,719554,184846,719554,731,935086,936597,932090,726066,932090,visual_patterns,0,0,0,yes,1366
undefined,undefined,undefined,undefined,white,no,Mozilla,Netscape,"5.0 (Windows NT 10.0; Win64; x64) AppleWebKit/537.36 (KHTML, like Gecko) Chrome/99.0.4844.51 Safari/537.36",xpyriment,legacy,legacy,0,uniform,0,0,0,0,24,24,24,0,0,74,74,74,74,74,0,74,0,41,41,41,41,41,0,41,11-02-22,11-02-22,08:04:20,Fri Mar 11 2022 08:04:20 GMT+0100 (közép-európai téli idő),The main experiment item,yes,0,0,C:/Users/rrics/Documents/!!ResearchBMECOGSCI/gnet,0,0,0,prototype4.png,no,mono,no,18,no,black,no,no,768,1192,3.5.6,legacy,xpyriment,osweb,1.3.13,0,t,k,l,t,24466,70445,51189,24466,2,legacy,860,1600,24,900,24,0,0,1600,1646982285247,1024,2,48000,-16,experiment,p9sarr3.png,0,even,Win32,731,183328,180315,731,731,724556,726057,719554,184846,719554,731,939620,941130,936622,726066,936622,visual_patterns,0,0,0,yes,1366
undefined,undefined,undefined,undefined,white,no,Mozilla,Netscape,"5.0 (Windows NT 10.0; Win64; x64) AppleWebKit/537.36 (KHTML, like Gecko) Chrome/99.0.4844.51 Safari/537.36",xpyriment,legacy,legacy,0,uniform,0,0,0,0,24,24,24,0,0,74,74,74,74,74,0,74,0,42,42,42,42,42,0,42,11-02-22,11-02-22,08:04:20,Fri Mar 11 2022 08:04:20 GMT+0100 (közép-európai téli idő),The main experiment item,yes,0,0,C:/Users/rrics/Documents/!!ResearchBMECOGSCI/gnet,0,0,0,prototype4.png,no,mono,no,18,no,black,no,no,768,1192,3.5.6,legacy,xpyriment,osweb,1.3.13,0,t,k,l,t,24466,70445,51189,24466,2,legacy,860,1600,24,900,24,0,0,1600,1646982285247,1024,2,48000,-16,experiment,p10sarr4.png,0,even,Win32,731,183328,180315,731,731,724556,726057,719554,184846,719554,731,944155,945662,941155,726066,941155,visual_patterns,0,0,0,yes,1366
undefined,undefined,undefined,undefined,white,no,Mozilla,Netscape,"5.0 (Windows NT 10.0; Win64; x64) AppleWebKit/537.36 (KHTML, like Gecko) Chrome/99.0.4844.51 Safari/537.36",xpyriment,legacy,legacy,0,uniform,0,0,0,0,24,24,24,0,0,74,74,74,74,74,0,74,0,43,43,43,43,43,0,43,11-02-22,11-02-22,08:04:20,Fri Mar 11 2022 08:04:20 GMT+0100 (közép-európai téli idő),The main experiment item,yes,0,0,C:/Users/rrics/Documents/!!ResearchBMECOGSCI/gnet,0,0,0,prototype4.png,no,mono,no,18,no,black,no,no,768,1192,3.5.6,legacy,xpyriment,osweb,1.3.13,0,t,k,l,t,24466,70445,51189,24466,2,legacy,860,1600,24,900,24,0,0,1600,1646982285247,1024,2,48000,-16,experiment,p4sarrcol1.png,0,even,Win32,731,183328,180315,731,731,724556,726057,719554,184846,719554,731,948679,950195,945678,726066,945678,visual_patterns,0,0,0,yes,1366
undefined,undefined,undefined,undefined,white,no,Mozilla,Netscape,"5.0 (Windows NT 10.0; Win64; x64) AppleWebKit/537.36 (KHTML, like Gecko) Chrome/99.0.4844.51 Safari/537.36",xpyriment,legacy,legacy,0,uniform,0,0,0,0,24,24,24,0,0,74,74,74,74,74,0,74,0,44,44,44,44,44,0,44,11-02-22,11-02-22,08:04:20,Fri Mar 11 2022 08:04:20 GMT+0100 (közép-európai téli idő),The main experiment item,yes,0,0,C:/Users/rrics/Documents/!!ResearchBMECOGSCI/gnet,0,0,0,prototype4.png,no,mono,no,18,no,black,no,no,768,1192,3.5.6,legacy,xpyriment,osweb,1.3.13,0,t,k,l,t,24466,70445,51189,24466,2,legacy,860,1600,24,900,24,0,0,1600,1646982285247,1024,2,48000,-16,experiment,p5sarrshacol4.png,0,even,Win32,731,183328,180315,731,731,724556,726057,719554,184846,719554,731,953225,954728,950226,726066,950225,visual_patterns,0,0,0,yes,1366
undefined,undefined,undefined,undefined,white,no,Mozilla,Netscape,"5.0 (Windows NT 10.0; Win64; x64) AppleWebKit/537.36 (KHTML, like Gecko) Chrome/99.0.4844.51 Safari/537.36",xpyriment,legacy,legacy,0,uniform,0,0,0,0,24,24,24,0,0,74,74,74,74,74,0,74,0,45,45,45,45,45,0,45,11-02-22,11-02-22,08:04:20,Fri Mar 11 2022 08:04:20 GMT+0100 (közép-európai téli idő),The main experiment item,yes,0,0,C:/Users/rrics/Documents/!!ResearchBMECOGSCI/gnet,0,0,0,prototype4.png,no,mono,no,18,no,black,no,no,768,1192,3.5.6,legacy,xpyriment,osweb,1.3.13,0,t,k,l,t,24466,70445,51189,24466,2,legacy,860,1600,24,900,24,0,0,1600,1646982285247,1024,2,48000,-16,experiment,p3sarr3.png,0,even,Win32,731,183328,180315,731,731,724556,726057,719554,184846,719554,731,957751,959261,954755,726066,954754,visual_patterns,0,0,0,yes,1366
undefined,undefined,undefined,undefined,white,no,Mozilla,Netscape,"5.0 (Windows NT 10.0; Win64; x64) AppleWebKit/537.36 (KHTML, like Gecko) Chrome/99.0.4844.51 Safari/537.36",xpyriment,legacy,legacy,0,uniform,0,0,0,0,24,24,24,0,0,74,74,74,74,74,0,74,0,46,46,46,46,46,0,46,11-02-22,11-02-22,08:04:20,Fri Mar 11 2022 08:04:20 GMT+0100 (közép-európai téli idő),The main experiment item,yes,0,0,C:/Users/rrics/Documents/!!ResearchBMECOGSCI/gnet,0,0,0,prototype4.png,no,mono,no,18,no,black,no,no,768,1192,3.5.6,legacy,xpyriment,osweb,1.3.13,0,t,k,l,t,24466,70445,51189,24466,2,legacy,860,1600,24,900,24,0,0,1600,1646982285247,1024,2,48000,-16,experiment,p2sarr3.png,0,even,Win32,731,183328,180315,731,731,724556,726057,719554,184846,719554,731,962287,963794,959286,726066,959286,visual_patterns,0,0,0,yes,1366
undefined,undefined,undefined,undefined,white,no,Mozilla,Netscape,"5.0 (Windows NT 10.0; Win64; x64) AppleWebKit/537.36 (KHTML, like Gecko) Chrome/99.0.4844.51 Safari/537.36",xpyriment,legacy,legacy,0,uniform,0,0,0,0,24,24,24,0,0,74,74,74,74,74,0,74,0,47,47,47,47,47,0,47,11-02-22,11-02-22,08:04:20,Fri Mar 11 2022 08:04:20 GMT+0100 (közép-európai téli idő),The main experiment item,yes,0,0,C:/Users/rrics/Documents/!!ResearchBMECOGSCI/gnet,0,0,0,prototype4.png,no,mono,no,18,no,black,no,no,768,1192,3.5.6,legacy,xpyriment,osweb,1.3.13,0,t,k,l,t,24466,70445,51189,24466,2,legacy,860,1600,24,900,24,0,0,1600,1646982285247,1024,2,48000,-16,experiment,p4sarr2.png,0,even,Win32,731,183328,180315,731,731,724556,726057,719554,184846,719554,731,966816,968326,963823,726066,963823,visual_patterns,0,0,0,yes,1366
undefined,undefined,undefined,undefined,white,no,Mozilla,Netscape,"5.0 (Windows NT 10.0; Win64; x64) AppleWebKit/537.36 (KHTML, like Gecko) Chrome/99.0.4844.51 Safari/537.36",xpyriment,legacy,legacy,0,uniform,0,0,0,0,24,24,24,0,0,74,74,74,74,74,0,74,0,48,48,48,48,48,0,48,11-02-22,11-02-22,08:04:20,Fri Mar 11 2022 08:04:20 GMT+0100 (közép-európai téli idő),The main experiment item,yes,0,0,C:/Users/rrics/Documents/!!ResearchBMECOGSCI/gnet,0,0,0,prototype4.png,no,mono,no,18,no,black,no,no,768,1192,3.5.6,legacy,xpyriment,osweb,1.3.13,0,t,k,l,t,24466,70445,51189,24466,2,legacy,860,1600,24,900,24,0,0,1600,1646982285247,1024,2,48000,-16,experiment,p2sarrshacol3.png,0,even,Win32,731,183328,180315,731,731,724556,726057,719554,184846,719554,731,971343,972859,968347,726066,968347,visual_patterns,0,0,0,yes,1366
undefined,undefined,undefined,undefined,white,no,Mozilla,Netscape,"5.0 (Windows NT 10.0; Win64; x64) AppleWebKit/537.36 (KHTML, like Gecko) Chrome/99.0.4844.51 Safari/537.36",xpyriment,legacy,legacy,0,uniform,0,0,0,0,24,24,24,0,0,74,74,74,74,74,0,74,0,49,49,49,49,49,0,49,11-02-22,11-02-22,08:04:20,Fri Mar 11 2022 08:04:20 GMT+0100 (közép-európai téli idő),The main experiment item,yes,0,0,C:/Users/rrics/Documents/!!ResearchBMECOGSCI/gnet,0,0,0,prototype4.png,no,mono,no,18,no,black,no,no,768,1192,3.5.6,legacy,xpyriment,osweb,1.3.13,0,t,k,l,t,24466,70445,51189,24466,2,legacy,860,1600,24,900,24,0,0,1600,1646982285247,1024,2,48000,-16,experiment,p2sarrcol2.png,0,even,Win32,731,183328,180315,731,731,724556,726057,719554,184846,719554,731,975882,977392,972882,726066,972882,visual_patterns,0,0,0,yes,1366
undefined,undefined,undefined,undefined,white,no,Mozilla,Netscape,"5.0 (Windows NT 10.0; Win64; x64) AppleWebKit/537.36 (KHTML, like Gecko) Chrome/99.0.4844.51 Safari/537.36",xpyriment,legacy,legacy,0,uniform,0,0,0,0,24,24,24,0,0,74,74,74,74,74,0,74,0,50,50,50,50,50,0,50,11-02-22,11-02-22,08:04:20,Fri Mar 11 2022 08:04:20 GMT+0100 (közép-európai téli idő),The main experiment item,yes,0,0,C:/Users/rrics/Documents/!!ResearchBMECOGSCI/gnet,0,0,0,prototype4.png,no,mono,no,18,no,black,no,no,768,1192,3.5.6,legacy,xpyriment,osweb,1.3.13,0,t,k,l,t,24466,70445,51189,24466,2,legacy,860,1600,24,900,24,0,0,1600,1646982285247,1024,2,48000,-16,experiment,p4sarrsha3.png,0,even,Win32,731,183328,180315,731,731,724556,726057,719554,184846,719554,731,980440,981941,977441,726066,977441,visual_patterns,0,0,0,yes,1366
