acc,accuracy,average_response_time,avg_rt,background,bidi,browser_codename,browser_name,browser_version,canvas_backend,clock_backend,color_backend,compensation,coordinates,count_end,count_experiment,count_osweb,count_prestudy,count_prestudy_isi,count_prestudy_sequence,count_prestudy_stimpres,count_start,count_study,count_study_coroutines,count_study_isi,count_study_logger,count_study_response,count_study_sequence,count_study_start,count_study_stimpres,count_test,count_test_coroutines,count_test_isi,count_test_logger,count_test_response,count_test_sequence,count_test_start,count_test_stimpres,date_startdate,date_startdateUTC,date_starttime,datetime,description,disable_garbage_collection,experiment_debug,experiment_parameters,experiment_path,experiment_pilot,experiment_taskname,experiment_taskversion,fampict,font_bold,font_family,font_italic,font_size,font_underline,foreground,form_clicks,fullscreen,height,jatosStudyResultId,jatosVersion,keyboard_backend,mouse_backend,opensesame_codename,opensesame_version,repeat_cycle,response,response_start,response_study_start,response_test_start,response_time,response_time_start,response_time_study_start,response_time_test_start,round_decimals,sampler_backend,screen_availableHeight,screen_availableWidth,screen_colorDepth,screen_height,screen_pixelDepth,screen_screenX,screen_screenY,screen_width,sessionid,sound_buf_size,sound_channels,sound_freq,sound_sample_size,start,stim,subject_nr,subject_parity,system_os,time_prestudy,time_prestudy_isi,time_prestudy_stimpres,time_start,time_study,time_study_isi,time_study_logger,time_study_response,time_study_start,time_study_stimpres,time_test,time_test_isi,time_test_logger,time_test_response,time_test_start,time_test_stimpres,title,total_correct,total_response_time,total_responses,uniform_coordinates,width
undefined,undefined,undefined,undefined,white,no,Mozilla,Netscape,"5.0 (Windows NT 10.0; Win64; x64) AppleWebKit/537.36 (KHTML, like Gecko) Chrome/99.0.4844.51 Safari/537.36",xpyriment,legacy,legacy,0,uniform,0,0,0,0,24,24,24,0,0,0,0,0,0,0,0,0,0,,,,,,0,,12-02-22,12-02-22,11:58:56,Sat Mar 12 2022 11:58:56 GMT+0100 (közép-európai téli idő),The main experiment item,yes,0,0,C:/Users/rrics/Documents/!!ResearchBMECOGSCI/gnet,0,0,0,prototype1.png,no,mono,no,18,no,black,no,no,768,1193,3.5.6,legacy,xpyriment,osweb,1.3.13,0,space,space,space,,30782,29895,30782,,2,legacy,728,1366,24,768,24,0,0,1366,1647082751244,1024,2,48000,-16,experiment,p6sarr1.png,1,odd,Win32,158,141877,138861,158,158,179192,180695,174192,143395,174192,158,,,,,,visual_patterns,0,0,0,yes,1366
undefined,undefined,undefined,undefined,white,no,Mozilla,Netscape,"5.0 (Windows NT 10.0; Win64; x64) AppleWebKit/537.36 (KHTML, like Gecko) Chrome/99.0.4844.51 Safari/537.36",xpyriment,legacy,legacy,0,uniform,0,0,0,0,24,24,24,0,0,1,1,1,1,1,0,1,0,,,,,,0,,12-02-22,12-02-22,11:58:56,Sat Mar 12 2022 11:58:56 GMT+0100 (közép-európai téli idő),The main experiment item,yes,0,0,C:/Users/rrics/Documents/!!ResearchBMECOGSCI/gnet,0,0,0,prototype1.png,no,mono,no,18,no,black,no,no,768,1193,3.5.6,legacy,xpyriment,osweb,1.3.13,0,space,space,space,,30782,29895,30782,,2,legacy,728,1366,24,768,24,0,0,1366,1647082751244,1024,2,48000,-16,experiment,prototype3.png,1,odd,Win32,158,141877,138861,158,158,185705,187211,180703,143395,180703,158,,,,,,visual_patterns,0,0,0,yes,1366
undefined,undefined,undefined,undefined,white,no,Mozilla,Netscape,"5.0 (Windows NT 10.0; Win64; x64) AppleWebKit/537.36 (KHTML, like Gecko) Chrome/99.0.4844.51 Safari/537.36",xpyriment,legacy,legacy,0,uniform,0,0,0,0,24,24,24,0,0,2,2,2,2,2,0,2,0,,,,,,0,,12-02-22,12-02-22,11:58:56,Sat Mar 12 2022 11:58:56 GMT+0100 (közép-európai téli idő),The main experiment item,yes,0,0,C:/Users/rrics/Documents/!!ResearchBMECOGSCI/gnet,0,0,0,prototype1.png,no,mono,no,18,no,black,no,no,768,1193,3.5.6,legacy,xpyriment,osweb,1.3.13,0,space,space,space,,30782,29895,30782,,2,legacy,728,1366,24,768,24,0,0,1366,1647082751244,1024,2,48000,-16,experiment,p3sarr1.png,1,odd,Win32,158,141877,138861,158,158,192219,193728,187221,143395,187221,158,,,,,,visual_patterns,0,0,0,yes,1366
undefined,undefined,undefined,undefined,white,no,Mozilla,Netscape,"5.0 (Windows NT 10.0; Win64; x64) AppleWebKit/537.36 (KHTML, like Gecko) Chrome/99.0.4844.51 Safari/537.36",xpyriment,legacy,legacy,0,uniform,0,0,0,0,24,24,24,0,0,3,3,3,3,3,0,3,0,,,,,,0,,12-02-22,12-02-22,11:58:56,Sat Mar 12 2022 11:58:56 GMT+0100 (közép-európai téli idő),The main experiment item,yes,0,0,C:/Users/rrics/Documents/!!ResearchBMECOGSCI/gnet,0,0,0,prototype1.png,no,mono,no,18,no,black,no,no,768,1193,3.5.6,legacy,xpyriment,osweb,1.3.13,0,space,space,space,,30782,29895,30782,,2,legacy,728,1366,24,768,24,0,0,1366,1647082751244,1024,2,48000,-16,experiment,p9sarr2.png,1,odd,Win32,158,141877,138861,158,158,198738,200245,193736,143395,193736,158,,,,,,visual_patterns,0,0,0,yes,1366
undefined,undefined,undefined,undefined,white,no,Mozilla,Netscape,"5.0 (Windows NT 10.0; Win64; x64) AppleWebKit/537.36 (KHTML, like Gecko) Chrome/99.0.4844.51 Safari/537.36",xpyriment,legacy,legacy,0,uniform,0,0,0,0,24,24,24,0,0,4,4,4,4,4,0,4,0,,,,,,0,,12-02-22,12-02-22,11:58:56,Sat Mar 12 2022 11:58:56 GMT+0100 (közép-európai téli idő),The main experiment item,yes,0,0,C:/Users/rrics/Documents/!!ResearchBMECOGSCI/gnet,0,0,0,prototype1.png,no,mono,no,18,no,black,no,no,768,1193,3.5.6,legacy,xpyriment,osweb,1.3.13,0,space,space,space,,30782,29895,30782,,2,legacy,728,1366,24,768,24,0,0,1366,1647082751244,1024,2,48000,-16,experiment,p4sarr2.png,1,odd,Win32,158,141877,138861,158,158,205255,206762,200254,143395,200254,158,,,,,,visual_patterns,0,0,0,yes,1366
undefined,undefined,undefined,undefined,white,no,Mozilla,Netscape,"5.0 (Windows NT 10.0; Win64; x64) AppleWebKit/537.36 (KHTML, like Gecko) Chrome/99.0.4844.51 Safari/537.36",xpyriment,legacy,legacy,0,uniform,0,0,0,0,24,24,24,0,0,5,5,5,5,5,0,5,0,,,,,,0,,12-02-22,12-02-22,11:58:56,Sat Mar 12 2022 11:58:56 GMT+0100 (közép-európai téli idő),The main experiment item,yes,0,0,C:/Users/rrics/Documents/!!ResearchBMECOGSCI/gnet,0,0,0,prototype1.png,no,mono,no,18,no,black,no,no,768,1193,3.5.6,legacy,xpyriment,osweb,1.3.13,0,space,space,space,,30782,29895,30782,,2,legacy,728,1366,24,768,24,0,0,1366,1647082751244,1024,2,48000,-16,experiment,p4sarrshacol2.png,1,odd,Win32,158,141877,138861,158,158,211773,213279,206772,143395,206772,158,,,,,,visual_patterns,0,0,0,yes,1366
undefined,undefined,undefined,undefined,white,no,Mozilla,Netscape,"5.0 (Windows NT 10.0; Win64; x64) AppleWebKit/537.36 (KHTML, like Gecko) Chrome/99.0.4844.51 Safari/537.36",xpyriment,legacy,legacy,0,uniform,0,0,0,0,24,24,24,0,0,6,6,6,6,6,0,6,0,,,,,,0,,12-02-22,12-02-22,11:58:56,Sat Mar 12 2022 11:58:56 GMT+0100 (közép-európai téli idő),The main experiment item,yes,0,0,C:/Users/rrics/Documents/!!ResearchBMECOGSCI/gnet,0,0,0,prototype1.png,no,mono,no,18,no,black,no,no,768,1193,3.5.6,legacy,xpyriment,osweb,1.3.13,0,space,space,space,,30782,29895,30782,,2,legacy,728,1366,24,768,24,0,0,1366,1647082751244,1024,2,48000,-16,experiment,p5sarrsha2.png,1,odd,Win32,158,141877,138861,158,158,218286,219796,213287,143395,213287,158,,,,,,visual_patterns,0,0,0,yes,1366
undefined,undefined,undefined,undefined,white,no,Mozilla,Netscape,"5.0 (Windows NT 10.0; Win64; x64) AppleWebKit/537.36 (KHTML, like Gecko) Chrome/99.0.4844.51 Safari/537.36",xpyriment,legacy,legacy,0,uniform,0,0,0,0,24,24,24,0,0,7,7,7,7,7,0,7,0,,,,,,0,,12-02-22,12-02-22,11:58:56,Sat Mar 12 2022 11:58:56 GMT+0100 (közép-európai téli idő),The main experiment item,yes,0,0,C:/Users/rrics/Documents/!!ResearchBMECOGSCI/gnet,0,0,0,prototype1.png,no,mono,no,18,no,black,no,no,768,1193,3.5.6,legacy,xpyriment,osweb,1.3.13,0,space,space,space,,30782,29895,30782,,2,legacy,728,1366,24,768,24,0,0,1366,1647082751244,1024,2,48000,-16,experiment,p2sarr1.png,1,odd,Win32,158,141877,138861,158,158,224804,226312,219805,143395,219805,158,,,,,,visual_patterns,0,0,0,yes,1366
undefined,undefined,undefined,undefined,white,no,Mozilla,Netscape,"5.0 (Windows NT 10.0; Win64; x64) AppleWebKit/537.36 (KHTML, like Gecko) Chrome/99.0.4844.51 Safari/537.36",xpyriment,legacy,legacy,0,uniform,0,0,0,0,24,24,24,0,0,8,8,8,8,8,0,8,0,,,,,,0,,12-02-22,12-02-22,11:58:56,Sat Mar 12 2022 11:58:56 GMT+0100 (közép-európai téli idő),The main experiment item,yes,0,0,C:/Users/rrics/Documents/!!ResearchBMECOGSCI/gnet,0,0,0,prototype1.png,no,mono,no,18,no,black,no,no,768,1193,3.5.6,legacy,xpyriment,osweb,1.3.13,0,space,space,space,,30782,29895,30782,,2,legacy,728,1366,24,768,24,0,0,1366,1647082751244,1024,2,48000,-16,experiment,prototype4.png,1,odd,Win32,158,141877,138861,158,158,231322,232829,226320,143395,226320,158,,,,,,visual_patterns,0,0,0,yes,1366
undefined,undefined,undefined,undefined,white,no,Mozilla,Netscape,"5.0 (Windows NT 10.0; Win64; x64) AppleWebKit/537.36 (KHTML, like Gecko) Chrome/99.0.4844.51 Safari/537.36",xpyriment,legacy,legacy,0,uniform,0,0,0,0,24,24,24,0,0,9,9,9,9,9,0,9,0,,,,,,0,,12-02-22,12-02-22,11:58:56,Sat Mar 12 2022 11:58:56 GMT+0100 (közép-európai téli idő),The main experiment item,yes,0,0,C:/Users/rrics/Documents/!!ResearchBMECOGSCI/gnet,0,0,0,prototype1.png,no,mono,no,18,no,black,no,no,768,1193,3.5.6,legacy,xpyriment,osweb,1.3.13,0,space,space,space,,30782,29895,30782,,2,legacy,728,1366,24,768,24,0,0,1366,1647082751244,1024,2,48000,-16,experiment,p5sarrsha1.png,1,odd,Win32,158,141877,138861,158,158,237839,239346,232839,143395,232838,158,,,,,,visual_patterns,0,0,0,yes,1366
undefined,undefined,undefined,undefined,white,no,Mozilla,Netscape,"5.0 (Windows NT 10.0; Win64; x64) AppleWebKit/537.36 (KHTML, like Gecko) Chrome/99.0.4844.51 Safari/537.36",xpyriment,legacy,legacy,0,uniform,0,0,0,0,24,24,24,0,0,10,10,10,10,10,0,10,0,,,,,,0,,12-02-22,12-02-22,11:58:56,Sat Mar 12 2022 11:58:56 GMT+0100 (közép-európai téli idő),The main experiment item,yes,0,0,C:/Users/rrics/Documents/!!ResearchBMECOGSCI/gnet,0,0,0,prototype1.png,no,mono,no,18,no,black,no,no,768,1193,3.5.6,legacy,xpyriment,osweb,1.3.13,0,space,space,space,,30782,29895,30782,,2,legacy,728,1366,24,768,24,0,0,1366,1647082751244,1024,2,48000,-16,experiment,p5sarrcol1.png,1,odd,Win32,158,141877,138861,158,158,244358,245863,239360,143395,239360,158,,,,,,visual_patterns,0,0,0,yes,1366
undefined,undefined,undefined,undefined,white,no,Mozilla,Netscape,"5.0 (Windows NT 10.0; Win64; x64) AppleWebKit/537.36 (KHTML, like Gecko) Chrome/99.0.4844.51 Safari/537.36",xpyriment,legacy,legacy,0,uniform,0,0,0,0,24,24,24,0,0,11,11,11,11,11,0,11,0,,,,,,0,,12-02-22,12-02-22,11:58:56,Sat Mar 12 2022 11:58:56 GMT+0100 (közép-európai téli idő),The main experiment item,yes,0,0,C:/Users/rrics/Documents/!!ResearchBMECOGSCI/gnet,0,0,0,prototype1.png,no,mono,no,18,no,black,no,no,768,1193,3.5.6,legacy,xpyriment,osweb,1.3.13,0,space,space,space,,30782,29895,30782,,2,legacy,728,1366,24,768,24,0,0,1366,1647082751244,1024,2,48000,-16,experiment,p8sarr2.png,1,odd,Win32,158,141877,138861,158,158,250873,252380,245872,143395,245872,158,,,,,,visual_patterns,0,0,0,yes,1366
undefined,undefined,undefined,undefined,white,no,Mozilla,Netscape,"5.0 (Windows NT 10.0; Win64; x64) AppleWebKit/537.36 (KHTML, like Gecko) Chrome/99.0.4844.51 Safari/537.36",xpyriment,legacy,legacy,0,uniform,0,0,0,0,24,24,24,0,0,12,12,12,12,12,0,12,0,,,,,,0,,12-02-22,12-02-22,11:58:56,Sat Mar 12 2022 11:58:56 GMT+0100 (közép-európai téli idő),The main experiment item,yes,0,0,C:/Users/rrics/Documents/!!ResearchBMECOGSCI/gnet,0,0,0,prototype1.png,no,mono,no,18,no,black,no,no,768,1193,3.5.6,legacy,xpyriment,osweb,1.3.13,0,space,space,space,,30782,29895,30782,,2,legacy,728,1366,24,768,24,0,0,1366,1647082751244,1024,2,48000,-16,experiment,p5sarrshacol2.png,1,odd,Win32,158,141877,138861,158,158,257394,258897,252393,143395,252393,158,,,,,,visual_patterns,0,0,0,yes,1366
undefined,undefined,undefined,undefined,white,no,Mozilla,Netscape,"5.0 (Windows NT 10.0; Win64; x64) AppleWebKit/537.36 (KHTML, like Gecko) Chrome/99.0.4844.51 Safari/537.36",xpyriment,legacy,legacy,0,uniform,0,0,0,0,24,24,24,0,0,13,13,13,13,13,0,13,0,,,,,,0,,12-02-22,12-02-22,11:58:56,Sat Mar 12 2022 11:58:56 GMT+0100 (közép-európai téli idő),The main experiment item,yes,0,0,C:/Users/rrics/Documents/!!ResearchBMECOGSCI/gnet,0,0,0,prototype1.png,no,mono,no,18,no,black,no,no,768,1193,3.5.6,legacy,xpyriment,osweb,1.3.13,0,space,space,space,,30782,29895,30782,,2,legacy,728,1366,24,768,24,0,0,1366,1647082751244,1024,2,48000,-16,experiment,p8sarr1.png,1,odd,Win32,158,141877,138861,158,158,263907,265414,258906,143395,258906,158,,,,,,visual_patterns,0,0,0,yes,1366
undefined,undefined,undefined,undefined,white,no,Mozilla,Netscape,"5.0 (Windows NT 10.0; Win64; x64) AppleWebKit/537.36 (KHTML, like Gecko) Chrome/99.0.4844.51 Safari/537.36",xpyriment,legacy,legacy,0,uniform,0,0,0,0,24,24,24,0,0,14,14,14,14,14,0,14,0,,,,,,0,,12-02-22,12-02-22,11:58:56,Sat Mar 12 2022 11:58:56 GMT+0100 (közép-európai téli idő),The main experiment item,yes,0,0,C:/Users/rrics/Documents/!!ResearchBMECOGSCI/gnet,0,0,0,prototype1.png,no,mono,no,18,no,black,no,no,768,1193,3.5.6,legacy,xpyriment,osweb,1.3.13,0,space,space,space,,30782,29895,30782,,2,legacy,728,1366,24,768,24,0,0,1366,1647082751244,1024,2,48000,-16,experiment,p3sarrcol1.png,1,odd,Win32,158,141877,138861,158,158,270422,271930,265423,143395,265423,158,,,,,,visual_patterns,0,0,0,yes,1366
undefined,undefined,undefined,undefined,white,no,Mozilla,Netscape,"5.0 (Windows NT 10.0; Win64; x64) AppleWebKit/537.36 (KHTML, like Gecko) Chrome/99.0.4844.51 Safari/537.36",xpyriment,legacy,legacy,0,uniform,0,0,0,0,24,24,24,0,0,15,15,15,15,15,0,15,0,,,,,,0,,12-02-22,12-02-22,11:58:56,Sat Mar 12 2022 11:58:56 GMT+0100 (közép-európai téli idő),The main experiment item,yes,0,0,C:/Users/rrics/Documents/!!ResearchBMECOGSCI/gnet,0,0,0,prototype1.png,no,mono,no,18,no,black,no,no,768,1193,3.5.6,legacy,xpyriment,osweb,1.3.13,0,space,space,space,,30782,29895,30782,,2,legacy,728,1366,24,768,24,0,0,1366,1647082751244,1024,2,48000,-16,experiment,prototype1.png,1,odd,Win32,158,141877,138861,158,158,276939,278447,271938,143395,271938,158,,,,,,visual_patterns,0,0,0,yes,1366
undefined,undefined,undefined,undefined,white,no,Mozilla,Netscape,"5.0 (Windows NT 10.0; Win64; x64) AppleWebKit/537.36 (KHTML, like Gecko) Chrome/99.0.4844.51 Safari/537.36",xpyriment,legacy,legacy,0,uniform,0,0,0,0,24,24,24,0,0,16,16,16,16,16,0,16,0,,,,,,0,,12-02-22,12-02-22,11:58:56,Sat Mar 12 2022 11:58:56 GMT+0100 (közép-európai téli idő),The main experiment item,yes,0,0,C:/Users/rrics/Documents/!!ResearchBMECOGSCI/gnet,0,0,0,prototype1.png,no,mono,no,18,no,black,no,no,768,1193,3.5.6,legacy,xpyriment,osweb,1.3.13,0,space,space,space,,30782,29895,30782,,2,legacy,728,1366,24,768,24,0,0,1366,1647082751244,1024,2,48000,-16,experiment,p2sarr2.png,1,odd,Win32,158,141877,138861,158,158,283457,284964,278458,143395,278458,158,,,,,,visual_patterns,0,0,0,yes,1366
undefined,undefined,undefined,undefined,white,no,Mozilla,Netscape,"5.0 (Windows NT 10.0; Win64; x64) AppleWebKit/537.36 (KHTML, like Gecko) Chrome/99.0.4844.51 Safari/537.36",xpyriment,legacy,legacy,0,uniform,0,0,0,0,24,24,24,0,0,17,17,17,17,17,0,17,0,,,,,,0,,12-02-22,12-02-22,11:58:56,Sat Mar 12 2022 11:58:56 GMT+0100 (közép-európai téli idő),The main experiment item,yes,0,0,C:/Users/rrics/Documents/!!ResearchBMECOGSCI/gnet,0,0,0,prototype1.png,no,mono,no,18,no,black,no,no,768,1193,3.5.6,legacy,xpyriment,osweb,1.3.13,0,space,space,space,,30782,29895,30782,,2,legacy,728,1366,24,768,24,0,0,1366,1647082751244,1024,2,48000,-16,experiment,p3sarrsha2.png,1,odd,Win32,158,141877,138861,158,158,289971,291481,284972,143395,284972,158,,,,,,visual_patterns,0,0,0,yes,1366
undefined,undefined,undefined,undefined,white,no,Mozilla,Netscape,"5.0 (Windows NT 10.0; Win64; x64) AppleWebKit/537.36 (KHTML, like Gecko) Chrome/99.0.4844.51 Safari/537.36",xpyriment,legacy,legacy,0,uniform,0,0,0,0,24,24,24,0,0,18,18,18,18,18,0,18,0,,,,,,0,,12-02-22,12-02-22,11:58:56,Sat Mar 12 2022 11:58:56 GMT+0100 (közép-európai téli idő),The main experiment item,yes,0,0,C:/Users/rrics/Documents/!!ResearchBMECOGSCI/gnet,0,0,0,prototype1.png,no,mono,no,18,no,black,no,no,768,1193,3.5.6,legacy,xpyriment,osweb,1.3.13,0,space,space,space,,30782,29895,30782,,2,legacy,728,1366,24,768,24,0,0,1366,1647082751244,1024,2,48000,-16,experiment,prototype4.png,1,odd,Win32,158,141877,138861,158,158,296492,297998,291492,143395,291492,158,,,,,,visual_patterns,0,0,0,yes,1366
undefined,undefined,undefined,undefined,white,no,Mozilla,Netscape,"5.0 (Windows NT 10.0; Win64; x64) AppleWebKit/537.36 (KHTML, like Gecko) Chrome/99.0.4844.51 Safari/537.36",xpyriment,legacy,legacy,0,uniform,0,0,0,0,24,24,24,0,0,19,19,19,19,19,0,19,0,,,,,,0,,12-02-22,12-02-22,11:58:56,Sat Mar 12 2022 11:58:56 GMT+0100 (közép-európai téli idő),The main experiment item,yes,0,0,C:/Users/rrics/Documents/!!ResearchBMECOGSCI/gnet,0,0,0,prototype1.png,no,mono,no,18,no,black,no,no,768,1193,3.5.6,legacy,xpyriment,osweb,1.3.13,0,space,space,space,,30782,29895,30782,,2,legacy,728,1366,24,768,24,0,0,1366,1647082751244,1024,2,48000,-16,experiment,p3sarrsha1.png,1,odd,Win32,158,141877,138861,158,158,303004,304515,298007,143395,298007,158,,,,,,visual_patterns,0,0,0,yes,1366
undefined,undefined,undefined,undefined,white,no,Mozilla,Netscape,"5.0 (Windows NT 10.0; Win64; x64) AppleWebKit/537.36 (KHTML, like Gecko) Chrome/99.0.4844.51 Safari/537.36",xpyriment,legacy,legacy,0,uniform,0,0,0,0,24,24,24,0,0,20,20,20,20,20,0,20,0,,,,,,0,,12-02-22,12-02-22,11:58:56,Sat Mar 12 2022 11:58:56 GMT+0100 (közép-európai téli idő),The main experiment item,yes,0,0,C:/Users/rrics/Documents/!!ResearchBMECOGSCI/gnet,0,0,0,prototype1.png,no,mono,no,18,no,black,no,no,768,1193,3.5.6,legacy,xpyriment,osweb,1.3.13,0,space,space,space,,30782,29895,30782,,2,legacy,728,1366,24,768,24,0,0,1366,1647082751244,1024,2,48000,-16,experiment,prototype2.png,1,odd,Win32,158,141877,138861,158,158,309522,311032,304523,143395,304522,158,,,,,,visual_patterns,0,0,0,yes,1366
undefined,undefined,undefined,undefined,white,no,Mozilla,Netscape,"5.0 (Windows NT 10.0; Win64; x64) AppleWebKit/537.36 (KHTML, like Gecko) Chrome/99.0.4844.51 Safari/537.36",xpyriment,legacy,legacy,0,uniform,0,0,0,0,24,24,24,0,0,21,21,21,21,21,0,21,0,,,,,,0,,12-02-22,12-02-22,11:58:56,Sat Mar 12 2022 11:58:56 GMT+0100 (közép-európai téli idő),The main experiment item,yes,0,0,C:/Users/rrics/Documents/!!ResearchBMECOGSCI/gnet,0,0,0,prototype1.png,no,mono,no,18,no,black,no,no,768,1193,3.5.6,legacy,xpyriment,osweb,1.3.13,0,space,space,space,,30782,29895,30782,,2,legacy,728,1366,24,768,24,0,0,1366,1647082751244,1024,2,48000,-16,experiment,p4sarrcol2.png,1,odd,Win32,158,141877,138861,158,158,316039,317548,311040,143395,311040,158,,,,,,visual_patterns,0,0,0,yes,1366
undefined,undefined,undefined,undefined,white,no,Mozilla,Netscape,"5.0 (Windows NT 10.0; Win64; x64) AppleWebKit/537.36 (KHTML, like Gecko) Chrome/99.0.4844.51 Safari/537.36",xpyriment,legacy,legacy,0,uniform,0,0,0,0,24,24,24,0,0,22,22,22,22,22,0,22,0,,,,,,0,,12-02-22,12-02-22,11:58:56,Sat Mar 12 2022 11:58:56 GMT+0100 (közép-európai téli idő),The main experiment item,yes,0,0,C:/Users/rrics/Documents/!!ResearchBMECOGSCI/gnet,0,0,0,prototype1.png,no,mono,no,18,no,black,no,no,768,1193,3.5.6,legacy,xpyriment,osweb,1.3.13,0,space,space,space,,30782,29895,30782,,2,legacy,728,1366,24,768,24,0,0,1366,1647082751244,1024,2,48000,-16,experiment,p5sarrshacol1.png,1,odd,Win32,158,141877,138861,158,158,322560,324065,317558,143395,317558,158,,,,,,visual_patterns,0,0,0,yes,1366
undefined,undefined,undefined,undefined,white,no,Mozilla,Netscape,"5.0 (Windows NT 10.0; Win64; x64) AppleWebKit/537.36 (KHTML, like Gecko) Chrome/99.0.4844.51 Safari/537.36",xpyriment,legacy,legacy,0,uniform,0,0,0,0,24,24,24,0,0,23,23,23,23,23,0,23,0,,,,,,0,,12-02-22,12-02-22,11:58:56,Sat Mar 12 2022 11:58:56 GMT+0100 (közép-európai téli idő),The main experiment item,yes,0,0,C:/Users/rrics/Documents/!!ResearchBMECOGSCI/gnet,0,0,0,prototype1.png,no,mono,no,18,no,black,no,no,768,1193,3.5.6,legacy,xpyriment,osweb,1.3.13,0,space,space,space,,30782,29895,30782,,2,legacy,728,1366,24,768,24,0,0,1366,1647082751244,1024,2,48000,-16,experiment,prototype2.png,1,odd,Win32,158,141877,138861,158,158,329072,330582,324072,143395,324072,158,,,,,,visual_patterns,0,0,0,yes,1366
undefined,undefined,undefined,undefined,white,no,Mozilla,Netscape,"5.0 (Windows NT 10.0; Win64; x64) AppleWebKit/537.36 (KHTML, like Gecko) Chrome/99.0.4844.51 Safari/537.36",xpyriment,legacy,legacy,0,uniform,0,0,0,0,24,24,24,0,0,24,24,24,24,24,0,24,0,,,,,,0,,12-02-22,12-02-22,11:58:56,Sat Mar 12 2022 11:58:56 GMT+0100 (közép-európai téli idő),The main experiment item,yes,0,0,C:/Users/rrics/Documents/!!ResearchBMECOGSCI/gnet,0,0,0,prototype1.png,no,mono,no,18,no,black,no,no,768,1193,3.5.6,legacy,xpyriment,osweb,1.3.13,0,space,space,space,,30782,29895,30782,,2,legacy,728,1366,24,768,24,0,0,1366,1647082751244,1024,2,48000,-16,experiment,p4sarrsha2.png,1,odd,Win32,158,141877,138861,158,158,335593,337099,330592,143395,330592,158,,,,,,visual_patterns,0,0,0,yes,1366
undefined,undefined,undefined,undefined,white,no,Mozilla,Netscape,"5.0 (Windows NT 10.0; Win64; x64) AppleWebKit/537.36 (KHTML, like Gecko) Chrome/99.0.4844.51 Safari/537.36",xpyriment,legacy,legacy,0,uniform,0,0,0,0,24,24,24,0,0,25,25,25,25,25,0,25,0,,,,,,0,,12-02-22,12-02-22,11:58:56,Sat Mar 12 2022 11:58:56 GMT+0100 (közép-európai téli idő),The main experiment item,yes,0,0,C:/Users/rrics/Documents/!!ResearchBMECOGSCI/gnet,0,0,0,prototype1.png,no,mono,no,18,no,black,no,no,768,1193,3.5.6,legacy,xpyriment,osweb,1.3.13,0,space,space,space,,30782,29895,30782,,2,legacy,728,1366,24,768,24,0,0,1366,1647082751244,1024,2,48000,-16,experiment,p9sarr1.png,1,odd,Win32,158,141877,138861,158,158,342109,343616,337108,143395,337108,158,,,,,,visual_patterns,0,0,0,yes,1366
undefined,undefined,undefined,undefined,white,no,Mozilla,Netscape,"5.0 (Windows NT 10.0; Win64; x64) AppleWebKit/537.36 (KHTML, like Gecko) Chrome/99.0.4844.51 Safari/537.36",xpyriment,legacy,legacy,0,uniform,0,0,0,0,24,24,24,0,0,26,26,26,26,26,0,26,0,,,,,,0,,12-02-22,12-02-22,11:58:56,Sat Mar 12 2022 11:58:56 GMT+0100 (közép-európai téli idő),The main experiment item,yes,0,0,C:/Users/rrics/Documents/!!ResearchBMECOGSCI/gnet,0,0,0,prototype1.png,no,mono,no,18,no,black,no,no,768,1193,3.5.6,legacy,xpyriment,osweb,1.3.13,0,space,space,space,,30782,29895,30782,,2,legacy,728,1366,24,768,24,0,0,1366,1647082751244,1024,2,48000,-16,experiment,prototype1.png,1,odd,Win32,158,141877,138861,158,158,348626,350133,343624,143395,343623,158,,,,,,visual_patterns,0,0,0,yes,1366
undefined,undefined,undefined,undefined,white,no,Mozilla,Netscape,"5.0 (Windows NT 10.0; Win64; x64) AppleWebKit/537.36 (KHTML, like Gecko) Chrome/99.0.4844.51 Safari/537.36",xpyriment,legacy,legacy,0,uniform,0,0,0,0,24,24,24,0,0,27,27,27,27,27,0,27,0,,,,,,0,,12-02-22,12-02-22,11:58:56,Sat Mar 12 2022 11:58:56 GMT+0100 (közép-európai téli idő),The main experiment item,yes,0,0,C:/Users/rrics/Documents/!!ResearchBMECOGSCI/gnet,0,0,0,prototype1.png,no,mono,no,18,no,black,no,no,768,1193,3.5.6,legacy,xpyriment,osweb,1.3.13,0,space,space,space,,30782,29895,30782,,2,legacy,728,1366,24,768,24,0,0,1366,1647082751244,1024,2,48000,-16,experiment,p4sarrcol1.png,1,odd,Win32,158,141877,138861,158,158,355142,356650,350141,143395,350141,158,,,,,,visual_patterns,0,0,0,yes,1366
undefined,undefined,undefined,undefined,white,no,Mozilla,Netscape,"5.0 (Windows NT 10.0; Win64; x64) AppleWebKit/537.36 (KHTML, like Gecko) Chrome/99.0.4844.51 Safari/537.36",xpyriment,legacy,legacy,0,uniform,0,0,0,0,24,24,24,0,0,28,28,28,28,28,0,28,0,,,,,,0,,12-02-22,12-02-22,11:58:56,Sat Mar 12 2022 11:58:56 GMT+0100 (közép-európai téli idő),The main experiment item,yes,0,0,C:/Users/rrics/Documents/!!ResearchBMECOGSCI/gnet,0,0,0,prototype1.png,no,mono,no,18,no,black,no,no,768,1193,3.5.6,legacy,xpyriment,osweb,1.3.13,0,space,space,space,,30782,29895,30782,,2,legacy,728,1366,24,768,24,0,0,1366,1647082751244,1024,2,48000,-16,experiment,prototype4.png,1,odd,Win32,158,141877,138861,158,158,361660,363166,356658,143395,356658,158,,,,,,visual_patterns,0,0,0,yes,1366
undefined,undefined,undefined,undefined,white,no,Mozilla,Netscape,"5.0 (Windows NT 10.0; Win64; x64) AppleWebKit/537.36 (KHTML, like Gecko) Chrome/99.0.4844.51 Safari/537.36",xpyriment,legacy,legacy,0,uniform,0,0,0,0,24,24,24,0,0,29,29,29,29,29,0,29,0,,,,,,0,,12-02-22,12-02-22,11:58:56,Sat Mar 12 2022 11:58:56 GMT+0100 (közép-európai téli idő),The main experiment item,yes,0,0,C:/Users/rrics/Documents/!!ResearchBMECOGSCI/gnet,0,0,0,prototype1.png,no,mono,no,18,no,black,no,no,768,1193,3.5.6,legacy,xpyriment,osweb,1.3.13,0,space,space,space,,30782,29895,30782,,2,legacy,728,1366,24,768,24,0,0,1366,1647082751244,1024,2,48000,-16,experiment,prototype5.png,1,odd,Win32,158,141877,138861,158,158,368176,369683,363175,143395,363175,158,,,,,,visual_patterns,0,0,0,yes,1366
undefined,undefined,undefined,undefined,white,no,Mozilla,Netscape,"5.0 (Windows NT 10.0; Win64; x64) AppleWebKit/537.36 (KHTML, like Gecko) Chrome/99.0.4844.51 Safari/537.36",xpyriment,legacy,legacy,0,uniform,0,0,0,0,24,24,24,0,0,30,30,30,30,30,0,30,0,,,,,,0,,12-02-22,12-02-22,11:58:56,Sat Mar 12 2022 11:58:56 GMT+0100 (közép-európai téli idő),The main experiment item,yes,0,0,C:/Users/rrics/Documents/!!ResearchBMECOGSCI/gnet,0,0,0,prototype1.png,no,mono,no,18,no,black,no,no,768,1193,3.5.6,legacy,xpyriment,osweb,1.3.13,0,space,space,space,,30782,29895,30782,,2,legacy,728,1366,24,768,24,0,0,1366,1647082751244,1024,2,48000,-16,experiment,p5sarrcol2.png,1,odd,Win32,158,141877,138861,158,158,374693,376200,369697,143395,369697,158,,,,,,visual_patterns,0,0,0,yes,1366
undefined,undefined,undefined,undefined,white,no,Mozilla,Netscape,"5.0 (Windows NT 10.0; Win64; x64) AppleWebKit/537.36 (KHTML, like Gecko) Chrome/99.0.4844.51 Safari/537.36",xpyriment,legacy,legacy,0,uniform,0,0,0,0,24,24,24,0,0,31,31,31,31,31,0,31,0,,,,,,0,,12-02-22,12-02-22,11:58:56,Sat Mar 12 2022 11:58:56 GMT+0100 (közép-európai téli idő),The main experiment item,yes,0,0,C:/Users/rrics/Documents/!!ResearchBMECOGSCI/gnet,0,0,0,prototype1.png,no,mono,no,18,no,black,no,no,768,1193,3.5.6,legacy,xpyriment,osweb,1.3.13,0,space,space,space,,30782,29895,30782,,2,legacy,728,1366,24,768,24,0,0,1366,1647082751244,1024,2,48000,-16,experiment,p2sarrsha2.png,1,odd,Win32,158,141877,138861,158,158,381210,382717,376209,143395,376209,158,,,,,,visual_patterns,0,0,0,yes,1366
undefined,undefined,undefined,undefined,white,no,Mozilla,Netscape,"5.0 (Windows NT 10.0; Win64; x64) AppleWebKit/537.36 (KHTML, like Gecko) Chrome/99.0.4844.51 Safari/537.36",xpyriment,legacy,legacy,0,uniform,0,0,0,0,24,24,24,0,0,32,32,32,32,32,0,32,0,,,,,,0,,12-02-22,12-02-22,11:58:56,Sat Mar 12 2022 11:58:56 GMT+0100 (közép-európai téli idő),The main experiment item,yes,0,0,C:/Users/rrics/Documents/!!ResearchBMECOGSCI/gnet,0,0,0,prototype1.png,no,mono,no,18,no,black,no,no,768,1193,3.5.6,legacy,xpyriment,osweb,1.3.13,0,space,space,space,,30782,29895,30782,,2,legacy,728,1366,24,768,24,0,0,1366,1647082751244,1024,2,48000,-16,experiment,p5sarr1.png,1,odd,Win32,158,141877,138861,158,158,387724,389234,382726,143395,382726,158,,,,,,visual_patterns,0,0,0,yes,1366
undefined,undefined,undefined,undefined,white,no,Mozilla,Netscape,"5.0 (Windows NT 10.0; Win64; x64) AppleWebKit/537.36 (KHTML, like Gecko) Chrome/99.0.4844.51 Safari/537.36",xpyriment,legacy,legacy,0,uniform,0,0,0,0,24,24,24,0,0,33,33,33,33,33,0,33,0,,,,,,0,,12-02-22,12-02-22,11:58:56,Sat Mar 12 2022 11:58:56 GMT+0100 (közép-európai téli idő),The main experiment item,yes,0,0,C:/Users/rrics/Documents/!!ResearchBMECOGSCI/gnet,0,0,0,prototype1.png,no,mono,no,18,no,black,no,no,768,1193,3.5.6,legacy,xpyriment,osweb,1.3.13,0,space,space,space,,30782,29895,30782,,2,legacy,728,1366,24,768,24,0,0,1366,1647082751244,1024,2,48000,-16,experiment,p3sarrshacol1.png,1,odd,Win32,158,141877,138861,158,158,394242,395751,389243,143395,389243,158,,,,,,visual_patterns,0,0,0,yes,1366
undefined,undefined,undefined,undefined,white,no,Mozilla,Netscape,"5.0 (Windows NT 10.0; Win64; x64) AppleWebKit/537.36 (KHTML, like Gecko) Chrome/99.0.4844.51 Safari/537.36",xpyriment,legacy,legacy,0,uniform,0,0,0,0,24,24,24,0,0,34,34,34,34,34,0,34,0,,,,,,0,,12-02-22,12-02-22,11:58:56,Sat Mar 12 2022 11:58:56 GMT+0100 (közép-európai téli idő),The main experiment item,yes,0,0,C:/Users/rrics/Documents/!!ResearchBMECOGSCI/gnet,0,0,0,prototype1.png,no,mono,no,18,no,black,no,no,768,1193,3.5.6,legacy,xpyriment,osweb,1.3.13,0,space,space,space,,30782,29895,30782,,2,legacy,728,1366,24,768,24,0,0,1366,1647082751244,1024,2,48000,-16,experiment,prototype1.png,1,odd,Win32,158,141877,138861,158,158,400761,402268,395759,143395,395759,158,,,,,,visual_patterns,0,0,0,yes,1366
undefined,undefined,undefined,undefined,white,no,Mozilla,Netscape,"5.0 (Windows NT 10.0; Win64; x64) AppleWebKit/537.36 (KHTML, like Gecko) Chrome/99.0.4844.51 Safari/537.36",xpyriment,legacy,legacy,0,uniform,0,0,0,0,24,24,24,0,0,35,35,35,35,35,0,35,0,,,,,,0,,12-02-22,12-02-22,11:58:56,Sat Mar 12 2022 11:58:56 GMT+0100 (közép-európai téli idő),The main experiment item,yes,0,0,C:/Users/rrics/Documents/!!ResearchBMECOGSCI/gnet,0,0,0,prototype1.png,no,mono,no,18,no,black,no,no,768,1193,3.5.6,legacy,xpyriment,osweb,1.3.13,0,space,space,space,,30782,29895,30782,,2,legacy,728,1366,24,768,24,0,0,1366,1647082751244,1024,2,48000,-16,experiment,p4sarrshacol1.png,1,odd,Win32,158,141877,138861,158,158,407275,408784,402276,143395,402276,158,,,,,,visual_patterns,0,0,0,yes,1366
undefined,undefined,undefined,undefined,white,no,Mozilla,Netscape,"5.0 (Windows NT 10.0; Win64; x64) AppleWebKit/537.36 (KHTML, like Gecko) Chrome/99.0.4844.51 Safari/537.36",xpyriment,legacy,legacy,0,uniform,0,0,0,0,24,24,24,0,0,36,36,36,36,36,0,36,0,,,,,,0,,12-02-22,12-02-22,11:58:56,Sat Mar 12 2022 11:58:56 GMT+0100 (közép-európai téli idő),The main experiment item,yes,0,0,C:/Users/rrics/Documents/!!ResearchBMECOGSCI/gnet,0,0,0,prototype1.png,no,mono,no,18,no,black,no,no,768,1193,3.5.6,legacy,xpyriment,osweb,1.3.13,0,space,space,space,,30782,29895,30782,,2,legacy,728,1366,24,768,24,0,0,1366,1647082751244,1024,2,48000,-16,experiment,prototype3.png,1,odd,Win32,158,141877,138861,158,158,413797,415301,408796,143395,408796,158,,,,,,visual_patterns,0,0,0,yes,1366
undefined,undefined,undefined,undefined,white,no,Mozilla,Netscape,"5.0 (Windows NT 10.0; Win64; x64) AppleWebKit/537.36 (KHTML, like Gecko) Chrome/99.0.4844.51 Safari/537.36",xpyriment,legacy,legacy,0,uniform,0,0,0,0,24,24,24,0,0,37,37,37,37,37,0,37,0,,,,,,0,,12-02-22,12-02-22,11:58:56,Sat Mar 12 2022 11:58:56 GMT+0100 (közép-európai téli idő),The main experiment item,yes,0,0,C:/Users/rrics/Documents/!!ResearchBMECOGSCI/gnet,0,0,0,prototype1.png,no,mono,no,18,no,black,no,no,768,1193,3.5.6,legacy,xpyriment,osweb,1.3.13,0,space,space,space,,30782,29895,30782,,2,legacy,728,1366,24,768,24,0,0,1366,1647082751244,1024,2,48000,-16,experiment,prototype3.png,1,odd,Win32,158,141877,138861,158,158,420309,421818,415308,143395,415308,158,,,,,,visual_patterns,0,0,0,yes,1366
undefined,undefined,undefined,undefined,white,no,Mozilla,Netscape,"5.0 (Windows NT 10.0; Win64; x64) AppleWebKit/537.36 (KHTML, like Gecko) Chrome/99.0.4844.51 Safari/537.36",xpyriment,legacy,legacy,0,uniform,0,0,0,0,24,24,24,0,0,38,38,38,38,38,0,38,0,,,,,,0,,12-02-22,12-02-22,11:58:56,Sat Mar 12 2022 11:58:56 GMT+0100 (közép-európai téli idő),The main experiment item,yes,0,0,C:/Users/rrics/Documents/!!ResearchBMECOGSCI/gnet,0,0,0,prototype1.png,no,mono,no,18,no,black,no,no,768,1193,3.5.6,legacy,xpyriment,osweb,1.3.13,0,space,space,space,,30782,29895,30782,,2,legacy,728,1366,24,768,24,0,0,1366,1647082751244,1024,2,48000,-16,experiment,p7sarr1.png,1,odd,Win32,158,141877,138861,158,158,426825,428335,421826,143395,421826,158,,,,,,visual_patterns,0,0,0,yes,1366
undefined,undefined,undefined,undefined,white,no,Mozilla,Netscape,"5.0 (Windows NT 10.0; Win64; x64) AppleWebKit/537.36 (KHTML, like Gecko) Chrome/99.0.4844.51 Safari/537.36",xpyriment,legacy,legacy,0,uniform,0,0,0,0,24,24,24,0,0,39,39,39,39,39,0,39,0,,,,,,0,,12-02-22,12-02-22,11:58:56,Sat Mar 12 2022 11:58:56 GMT+0100 (közép-európai téli idő),The main experiment item,yes,0,0,C:/Users/rrics/Documents/!!ResearchBMECOGSCI/gnet,0,0,0,prototype1.png,no,mono,no,18,no,black,no,no,768,1193,3.5.6,legacy,xpyriment,osweb,1.3.13,0,space,space,space,,30782,29895,30782,,2,legacy,728,1366,24,768,24,0,0,1366,1647082751244,1024,2,48000,-16,experiment,p1sarrsha1.png,1,odd,Win32,158,141877,138861,158,158,433343,434852,428344,143395,428344,158,,,,,,visual_patterns,0,0,0,yes,1366
undefined,undefined,undefined,undefined,white,no,Mozilla,Netscape,"5.0 (Windows NT 10.0; Win64; x64) AppleWebKit/537.36 (KHTML, like Gecko) Chrome/99.0.4844.51 Safari/537.36",xpyriment,legacy,legacy,0,uniform,0,0,0,0,24,24,24,0,0,40,40,40,40,40,0,40,0,,,,,,0,,12-02-22,12-02-22,11:58:56,Sat Mar 12 2022 11:58:56 GMT+0100 (közép-európai téli idő),The main experiment item,yes,0,0,C:/Users/rrics/Documents/!!ResearchBMECOGSCI/gnet,0,0,0,prototype1.png,no,mono,no,18,no,black,no,no,768,1193,3.5.6,legacy,xpyriment,osweb,1.3.13,0,space,space,space,,30782,29895,30782,,2,legacy,728,1366,24,768,24,0,0,1366,1647082751244,1024,2,48000,-16,experiment,prototype5.png,1,odd,Win32,158,141877,138861,158,158,439863,441369,434860,143395,434860,158,,,,,,visual_patterns,0,0,0,yes,1366
undefined,undefined,undefined,undefined,white,no,Mozilla,Netscape,"5.0 (Windows NT 10.0; Win64; x64) AppleWebKit/537.36 (KHTML, like Gecko) Chrome/99.0.4844.51 Safari/537.36",xpyriment,legacy,legacy,0,uniform,0,0,0,0,24,24,24,0,0,41,41,41,41,41,0,41,0,,,,,,0,,12-02-22,12-02-22,11:58:56,Sat Mar 12 2022 11:58:56 GMT+0100 (közép-európai téli idő),The main experiment item,yes,0,0,C:/Users/rrics/Documents/!!ResearchBMECOGSCI/gnet,0,0,0,prototype1.png,no,mono,no,18,no,black,no,no,768,1193,3.5.6,legacy,xpyriment,osweb,1.3.13,0,space,space,space,,30782,29895,30782,,2,legacy,728,1366,24,768,24,0,0,1366,1647082751244,1024,2,48000,-16,experiment,p3sarrshacol2.png,1,odd,Win32,158,141877,138861,158,158,446376,447885,441379,143395,441379,158,,,,,,visual_patterns,0,0,0,yes,1366
undefined,undefined,undefined,undefined,white,no,Mozilla,Netscape,"5.0 (Windows NT 10.0; Win64; x64) AppleWebKit/537.36 (KHTML, like Gecko) Chrome/99.0.4844.51 Safari/537.36",xpyriment,legacy,legacy,0,uniform,0,0,0,0,24,24,24,0,0,42,42,42,42,42,0,42,0,,,,,,0,,12-02-22,12-02-22,11:58:56,Sat Mar 12 2022 11:58:56 GMT+0100 (közép-európai téli idő),The main experiment item,yes,0,0,C:/Users/rrics/Documents/!!ResearchBMECOGSCI/gnet,0,0,0,prototype1.png,no,mono,no,18,no,black,no,no,768,1193,3.5.6,legacy,xpyriment,osweb,1.3.13,0,space,space,space,,30782,29895,30782,,2,legacy,728,1366,24,768,24,0,0,1366,1647082751244,1024,2,48000,-16,experiment,p3sarrcol2.png,1,odd,Win32,158,141877,138861,158,158,452895,454402,447897,143395,447897,158,,,,,,visual_patterns,0,0,0,yes,1366
undefined,undefined,undefined,undefined,white,no,Mozilla,Netscape,"5.0 (Windows NT 10.0; Win64; x64) AppleWebKit/537.36 (KHTML, like Gecko) Chrome/99.0.4844.51 Safari/537.36",xpyriment,legacy,legacy,0,uniform,0,0,0,0,24,24,24,0,0,43,43,43,43,43,0,43,0,,,,,,0,,12-02-22,12-02-22,11:58:56,Sat Mar 12 2022 11:58:56 GMT+0100 (közép-európai téli idő),The main experiment item,yes,0,0,C:/Users/rrics/Documents/!!ResearchBMECOGSCI/gnet,0,0,0,prototype1.png,no,mono,no,18,no,black,no,no,768,1193,3.5.6,legacy,xpyriment,osweb,1.3.13,0,space,space,space,,30782,29895,30782,,2,legacy,728,1366,24,768,24,0,0,1366,1647082751244,1024,2,48000,-16,experiment,p3sarr2.png,1,odd,Win32,158,141877,138861,158,158,459413,460919,454412,143395,454412,158,,,,,,visual_patterns,0,0,0,yes,1366
undefined,undefined,undefined,undefined,white,no,Mozilla,Netscape,"5.0 (Windows NT 10.0; Win64; x64) AppleWebKit/537.36 (KHTML, like Gecko) Chrome/99.0.4844.51 Safari/537.36",xpyriment,legacy,legacy,0,uniform,0,0,0,0,24,24,24,0,0,44,44,44,44,44,0,44,0,,,,,,0,,12-02-22,12-02-22,11:58:56,Sat Mar 12 2022 11:58:56 GMT+0100 (közép-európai téli idő),The main experiment item,yes,0,0,C:/Users/rrics/Documents/!!ResearchBMECOGSCI/gnet,0,0,0,prototype1.png,no,mono,no,18,no,black,no,no,768,1193,3.5.6,legacy,xpyriment,osweb,1.3.13,0,space,space,space,,30782,29895,30782,,2,legacy,728,1366,24,768,24,0,0,1366,1647082751244,1024,2,48000,-16,experiment,p2sarrsha1.png,1,odd,Win32,158,141877,138861,158,158,465930,467436,460928,143395,460928,158,,,,,,visual_patterns,0,0,0,yes,1366
undefined,undefined,undefined,undefined,white,no,Mozilla,Netscape,"5.0 (Windows NT 10.0; Win64; x64) AppleWebKit/537.36 (KHTML, like Gecko) Chrome/99.0.4844.51 Safari/537.36",xpyriment,legacy,legacy,0,uniform,0,0,0,0,24,24,24,0,0,45,45,45,45,45,0,45,0,,,,,,0,,12-02-22,12-02-22,11:58:56,Sat Mar 12 2022 11:58:56 GMT+0100 (közép-európai téli idő),The main experiment item,yes,0,0,C:/Users/rrics/Documents/!!ResearchBMECOGSCI/gnet,0,0,0,prototype1.png,no,mono,no,18,no,black,no,no,768,1193,3.5.6,legacy,xpyriment,osweb,1.3.13,0,space,space,space,,30782,29895,30782,,2,legacy,728,1366,24,768,24,0,0,1366,1647082751244,1024,2,48000,-16,experiment,p4sarrsha1.png,1,odd,Win32,158,141877,138861,158,158,472443,473953,467445,143395,467445,158,,,,,,visual_patterns,0,0,0,yes,1366
undefined,undefined,undefined,undefined,white,no,Mozilla,Netscape,"5.0 (Windows NT 10.0; Win64; x64) AppleWebKit/537.36 (KHTML, like Gecko) Chrome/99.0.4844.51 Safari/537.36",xpyriment,legacy,legacy,0,uniform,0,0,0,0,24,24,24,0,0,46,46,46,46,46,0,46,0,,,,,,0,,12-02-22,12-02-22,11:58:56,Sat Mar 12 2022 11:58:56 GMT+0100 (közép-európai téli idő),The main experiment item,yes,0,0,C:/Users/rrics/Documents/!!ResearchBMECOGSCI/gnet,0,0,0,prototype1.png,no,mono,no,18,no,black,no,no,768,1193,3.5.6,legacy,xpyriment,osweb,1.3.13,0,space,space,space,,30782,29895,30782,,2,legacy,728,1366,24,768,24,0,0,1366,1647082751244,1024,2,48000,-16,experiment,p1sarrcol1.png,1,odd,Win32,158,141877,138861,158,158,478962,480470,473961,143395,473961,158,,,,,,visual_patterns,0,0,0,yes,1366
undefined,undefined,undefined,undefined,white,no,Mozilla,Netscape,"5.0 (Windows NT 10.0; Win64; x64) AppleWebKit/537.36 (KHTML, like Gecko) Chrome/99.0.4844.51 Safari/537.36",xpyriment,legacy,legacy,0,uniform,0,0,0,0,24,24,24,0,0,47,47,47,47,47,0,47,0,,,,,,0,,12-02-22,12-02-22,11:58:56,Sat Mar 12 2022 11:58:56 GMT+0100 (közép-európai téli idő),The main experiment item,yes,0,0,C:/Users/rrics/Documents/!!ResearchBMECOGSCI/gnet,0,0,0,prototype1.png,no,mono,no,18,no,black,no,no,768,1193,3.5.6,legacy,xpyriment,osweb,1.3.13,0,space,space,space,,30782,29895,30782,,2,legacy,728,1366,24,768,24,0,0,1366,1647082751244,1024,2,48000,-16,experiment,p1sarrsha2.png,1,odd,Win32,158,141877,138861,158,158,485479,486987,480479,143395,480479,158,,,,,,visual_patterns,0,0,0,yes,1366
undefined,undefined,undefined,undefined,white,no,Mozilla,Netscape,"5.0 (Windows NT 10.0; Win64; x64) AppleWebKit/537.36 (KHTML, like Gecko) Chrome/99.0.4844.51 Safari/537.36",xpyriment,legacy,legacy,0,uniform,0,0,0,0,24,24,24,0,0,48,48,48,48,48,0,48,0,,,,,,0,,12-02-22,12-02-22,11:58:56,Sat Mar 12 2022 11:58:56 GMT+0100 (közép-európai téli idő),The main experiment item,yes,0,0,C:/Users/rrics/Documents/!!ResearchBMECOGSCI/gnet,0,0,0,prototype1.png,no,mono,no,18,no,black,no,no,768,1193,3.5.6,legacy,xpyriment,osweb,1.3.13,0,space,space,space,,30782,29895,30782,,2,legacy,728,1366,24,768,24,0,0,1366,1647082751244,1024,2,48000,-16,experiment,p7sarr2.png,1,odd,Win32,158,141877,138861,158,158,491999,493504,486999,143395,486999,158,,,,,,visual_patterns,0,0,0,yes,1366
undefined,undefined,undefined,undefined,white,no,Mozilla,Netscape,"5.0 (Windows NT 10.0; Win64; x64) AppleWebKit/537.36 (KHTML, like Gecko) Chrome/99.0.4844.51 Safari/537.36",xpyriment,legacy,legacy,0,uniform,0,0,0,0,24,24,24,0,0,49,49,49,49,49,0,49,0,,,,,,0,,12-02-22,12-02-22,11:58:56,Sat Mar 12 2022 11:58:56 GMT+0100 (közép-európai téli idő),The main experiment item,yes,0,0,C:/Users/rrics/Documents/!!ResearchBMECOGSCI/gnet,0,0,0,prototype1.png,no,mono,no,18,no,black,no,no,768,1193,3.5.6,legacy,xpyriment,osweb,1.3.13,0,space,space,space,,30782,29895,30782,,2,legacy,728,1366,24,768,24,0,0,1366,1647082751244,1024,2,48000,-16,experiment,p4sarr1.png,1,odd,Win32,158,141877,138861,158,158,498512,500020,493511,143395,493511,158,,,,,,visual_patterns,0,0,0,yes,1366
undefined,undefined,undefined,undefined,white,no,Mozilla,Netscape,"5.0 (Windows NT 10.0; Win64; x64) AppleWebKit/537.36 (KHTML, like Gecko) Chrome/99.0.4844.51 Safari/537.36",xpyriment,legacy,legacy,0,uniform,0,0,0,0,24,24,24,0,0,50,50,50,50,50,0,50,0,,,,,,0,,12-02-22,12-02-22,11:58:56,Sat Mar 12 2022 11:58:56 GMT+0100 (közép-európai téli idő),The main experiment item,yes,0,0,C:/Users/rrics/Documents/!!ResearchBMECOGSCI/gnet,0,0,0,prototype1.png,no,mono,no,18,no,black,no,no,768,1193,3.5.6,legacy,xpyriment,osweb,1.3.13,0,space,space,space,,30782,29895,30782,,2,legacy,728,1366,24,768,24,0,0,1366,1647082751244,1024,2,48000,-16,experiment,p10sarr1.png,1,odd,Win32,158,141877,138861,158,158,505027,506537,500029,143395,500029,158,,,,,,visual_patterns,0,0,0,yes,1366
undefined,undefined,undefined,undefined,white,no,Mozilla,Netscape,"5.0 (Windows NT 10.0; Win64; x64) AppleWebKit/537.36 (KHTML, like Gecko) Chrome/99.0.4844.51 Safari/537.36",xpyriment,legacy,legacy,0,uniform,0,0,0,0,24,24,24,0,0,51,51,51,51,51,0,51,0,,,,,,0,,12-02-22,12-02-22,11:58:56,Sat Mar 12 2022 11:58:56 GMT+0100 (közép-európai téli idő),The main experiment item,yes,0,0,C:/Users/rrics/Documents/!!ResearchBMECOGSCI/gnet,0,0,0,prototype1.png,no,mono,no,18,no,black,no,no,768,1193,3.5.6,legacy,xpyriment,osweb,1.3.13,0,space,space,space,,30782,29895,30782,,2,legacy,728,1366,24,768,24,0,0,1366,1647082751244,1024,2,48000,-16,experiment,prototype3.png,1,odd,Win32,158,141877,138861,158,158,511545,513054,506544,143395,506544,158,,,,,,visual_patterns,0,0,0,yes,1366
undefined,undefined,undefined,undefined,white,no,Mozilla,Netscape,"5.0 (Windows NT 10.0; Win64; x64) AppleWebKit/537.36 (KHTML, like Gecko) Chrome/99.0.4844.51 Safari/537.36",xpyriment,legacy,legacy,0,uniform,0,0,0,0,24,24,24,0,0,52,52,52,52,52,0,52,0,,,,,,0,,12-02-22,12-02-22,11:58:56,Sat Mar 12 2022 11:58:56 GMT+0100 (közép-európai téli idő),The main experiment item,yes,0,0,C:/Users/rrics/Documents/!!ResearchBMECOGSCI/gnet,0,0,0,prototype1.png,no,mono,no,18,no,black,no,no,768,1193,3.5.6,legacy,xpyriment,osweb,1.3.13,0,space,space,space,,30782,29895,30782,,2,legacy,728,1366,24,768,24,0,0,1366,1647082751244,1024,2,48000,-16,experiment,p1sarr1.png,1,odd,Win32,158,141877,138861,158,158,518061,519571,513065,143395,513065,158,,,,,,visual_patterns,0,0,0,yes,1366
undefined,undefined,undefined,undefined,white,no,Mozilla,Netscape,"5.0 (Windows NT 10.0; Win64; x64) AppleWebKit/537.36 (KHTML, like Gecko) Chrome/99.0.4844.51 Safari/537.36",xpyriment,legacy,legacy,0,uniform,0,0,0,0,24,24,24,0,0,53,53,53,53,53,0,53,0,,,,,,0,,12-02-22,12-02-22,11:58:56,Sat Mar 12 2022 11:58:56 GMT+0100 (közép-európai téli idő),The main experiment item,yes,0,0,C:/Users/rrics/Documents/!!ResearchBMECOGSCI/gnet,0,0,0,prototype1.png,no,mono,no,18,no,black,no,no,768,1193,3.5.6,legacy,xpyriment,osweb,1.3.13,0,space,space,space,,30782,29895,30782,,2,legacy,728,1366,24,768,24,0,0,1366,1647082751244,1024,2,48000,-16,experiment,p1sarrcol2.png,1,odd,Win32,158,141877,138861,158,158,524579,526088,519579,143395,519579,158,,,,,,visual_patterns,0,0,0,yes,1366
undefined,undefined,undefined,undefined,white,no,Mozilla,Netscape,"5.0 (Windows NT 10.0; Win64; x64) AppleWebKit/537.36 (KHTML, like Gecko) Chrome/99.0.4844.51 Safari/537.36",xpyriment,legacy,legacy,0,uniform,0,0,0,0,24,24,24,0,0,54,54,54,54,54,0,54,0,,,,,,0,,12-02-22,12-02-22,11:58:56,Sat Mar 12 2022 11:58:56 GMT+0100 (közép-európai téli idő),The main experiment item,yes,0,0,C:/Users/rrics/Documents/!!ResearchBMECOGSCI/gnet,0,0,0,prototype1.png,no,mono,no,18,no,black,no,no,768,1193,3.5.6,legacy,xpyriment,osweb,1.3.13,0,space,space,space,,30782,29895,30782,,2,legacy,728,1366,24,768,24,0,0,1366,1647082751244,1024,2,48000,-16,experiment,p2sarrcol2.png,1,odd,Win32,158,141877,138861,158,158,531099,532605,526100,143395,526100,158,,,,,,visual_patterns,0,0,0,yes,1366
undefined,undefined,undefined,undefined,white,no,Mozilla,Netscape,"5.0 (Windows NT 10.0; Win64; x64) AppleWebKit/537.36 (KHTML, like Gecko) Chrome/99.0.4844.51 Safari/537.36",xpyriment,legacy,legacy,0,uniform,0,0,0,0,24,24,24,0,0,55,55,55,55,55,0,55,0,,,,,,0,,12-02-22,12-02-22,11:58:56,Sat Mar 12 2022 11:58:56 GMT+0100 (közép-európai téli idő),The main experiment item,yes,0,0,C:/Users/rrics/Documents/!!ResearchBMECOGSCI/gnet,0,0,0,prototype1.png,no,mono,no,18,no,black,no,no,768,1193,3.5.6,legacy,xpyriment,osweb,1.3.13,0,space,space,space,,30782,29895,30782,,2,legacy,728,1366,24,768,24,0,0,1366,1647082751244,1024,2,48000,-16,experiment,prototype4.png,1,odd,Win32,158,141877,138861,158,158,537612,539121,532612,143395,532612,158,,,,,,visual_patterns,0,0,0,yes,1366
undefined,undefined,undefined,undefined,white,no,Mozilla,Netscape,"5.0 (Windows NT 10.0; Win64; x64) AppleWebKit/537.36 (KHTML, like Gecko) Chrome/99.0.4844.51 Safari/537.36",xpyriment,legacy,legacy,0,uniform,0,0,0,0,24,24,24,0,0,56,56,56,56,56,0,56,0,,,,,,0,,12-02-22,12-02-22,11:58:56,Sat Mar 12 2022 11:58:56 GMT+0100 (közép-európai téli idő),The main experiment item,yes,0,0,C:/Users/rrics/Documents/!!ResearchBMECOGSCI/gnet,0,0,0,prototype1.png,no,mono,no,18,no,black,no,no,768,1193,3.5.6,legacy,xpyriment,osweb,1.3.13,0,space,space,space,,30782,29895,30782,,2,legacy,728,1366,24,768,24,0,0,1366,1647082751244,1024,2,48000,-16,experiment,p2sarrshacol1.png,1,odd,Win32,158,141877,138861,158,158,544130,545638,539134,143395,539134,158,,,,,,visual_patterns,0,0,0,yes,1366
undefined,undefined,undefined,undefined,white,no,Mozilla,Netscape,"5.0 (Windows NT 10.0; Win64; x64) AppleWebKit/537.36 (KHTML, like Gecko) Chrome/99.0.4844.51 Safari/537.36",xpyriment,legacy,legacy,0,uniform,0,0,0,0,24,24,24,0,0,57,57,57,57,57,0,57,0,,,,,,0,,12-02-22,12-02-22,11:58:56,Sat Mar 12 2022 11:58:56 GMT+0100 (közép-európai téli idő),The main experiment item,yes,0,0,C:/Users/rrics/Documents/!!ResearchBMECOGSCI/gnet,0,0,0,prototype1.png,no,mono,no,18,no,black,no,no,768,1193,3.5.6,legacy,xpyriment,osweb,1.3.13,0,space,space,space,,30782,29895,30782,,2,legacy,728,1366,24,768,24,0,0,1366,1647082751244,1024,2,48000,-16,experiment,prototype5.png,1,odd,Win32,158,141877,138861,158,158,550646,552155,545645,143395,545645,158,,,,,,visual_patterns,0,0,0,yes,1366
undefined,undefined,undefined,undefined,white,no,Mozilla,Netscape,"5.0 (Windows NT 10.0; Win64; x64) AppleWebKit/537.36 (KHTML, like Gecko) Chrome/99.0.4844.51 Safari/537.36",xpyriment,legacy,legacy,0,uniform,0,0,0,0,24,24,24,0,0,58,58,58,58,58,0,58,0,,,,,,0,,12-02-22,12-02-22,11:58:56,Sat Mar 12 2022 11:58:56 GMT+0100 (közép-európai téli idő),The main experiment item,yes,0,0,C:/Users/rrics/Documents/!!ResearchBMECOGSCI/gnet,0,0,0,prototype1.png,no,mono,no,18,no,black,no,no,768,1193,3.5.6,legacy,xpyriment,osweb,1.3.13,0,space,space,space,,30782,29895,30782,,2,legacy,728,1366,24,768,24,0,0,1366,1647082751244,1024,2,48000,-16,experiment,prototype2.png,1,odd,Win32,158,141877,138861,158,158,557166,558672,552162,143395,552162,158,,,,,,visual_patterns,0,0,0,yes,1366
undefined,undefined,undefined,undefined,white,no,Mozilla,Netscape,"5.0 (Windows NT 10.0; Win64; x64) AppleWebKit/537.36 (KHTML, like Gecko) Chrome/99.0.4844.51 Safari/537.36",xpyriment,legacy,legacy,0,uniform,0,0,0,0,24,24,24,0,0,59,59,59,59,59,0,59,0,,,,,,0,,12-02-22,12-02-22,11:58:56,Sat Mar 12 2022 11:58:56 GMT+0100 (közép-európai téli idő),The main experiment item,yes,0,0,C:/Users/rrics/Documents/!!ResearchBMECOGSCI/gnet,0,0,0,prototype1.png,no,mono,no,18,no,black,no,no,768,1193,3.5.6,legacy,xpyriment,osweb,1.3.13,0,space,space,space,,30782,29895,30782,,2,legacy,728,1366,24,768,24,0,0,1366,1647082751244,1024,2,48000,-16,experiment,prototype5.png,1,odd,Win32,158,141877,138861,158,158,563680,565189,558679,143395,558679,158,,,,,,visual_patterns,0,0,0,yes,1366
undefined,undefined,undefined,undefined,white,no,Mozilla,Netscape,"5.0 (Windows NT 10.0; Win64; x64) AppleWebKit/537.36 (KHTML, like Gecko) Chrome/99.0.4844.51 Safari/537.36",xpyriment,legacy,legacy,0,uniform,0,0,0,0,24,24,24,0,0,60,60,60,60,60,0,60,0,,,,,,0,,12-02-22,12-02-22,11:58:56,Sat Mar 12 2022 11:58:56 GMT+0100 (közép-európai téli idő),The main experiment item,yes,0,0,C:/Users/rrics/Documents/!!ResearchBMECOGSCI/gnet,0,0,0,prototype1.png,no,mono,no,18,no,black,no,no,768,1193,3.5.6,legacy,xpyriment,osweb,1.3.13,0,space,space,space,,30782,29895,30782,,2,legacy,728,1366,24,768,24,0,0,1366,1647082751244,1024,2,48000,-16,experiment,p1sarrshacol2.png,1,odd,Win32,158,141877,138861,158,158,570197,571706,565198,143395,565198,158,,,,,,visual_patterns,0,0,0,yes,1366
undefined,undefined,undefined,undefined,white,no,Mozilla,Netscape,"5.0 (Windows NT 10.0; Win64; x64) AppleWebKit/537.36 (KHTML, like Gecko) Chrome/99.0.4844.51 Safari/537.36",xpyriment,legacy,legacy,0,uniform,0,0,0,0,24,24,24,0,0,61,61,61,61,61,0,61,0,,,,,,0,,12-02-22,12-02-22,11:58:56,Sat Mar 12 2022 11:58:56 GMT+0100 (közép-európai téli idő),The main experiment item,yes,0,0,C:/Users/rrics/Documents/!!ResearchBMECOGSCI/gnet,0,0,0,prototype1.png,no,mono,no,18,no,black,no,no,768,1193,3.5.6,legacy,xpyriment,osweb,1.3.13,0,space,space,space,,30782,29895,30782,,2,legacy,728,1366,24,768,24,0,0,1366,1647082751244,1024,2,48000,-16,experiment,p2sarrcol1.png,1,odd,Win32,158,141877,138861,158,158,576715,578223,571715,143395,571715,158,,,,,,visual_patterns,0,0,0,yes,1366
undefined,undefined,undefined,undefined,white,no,Mozilla,Netscape,"5.0 (Windows NT 10.0; Win64; x64) AppleWebKit/537.36 (KHTML, like Gecko) Chrome/99.0.4844.51 Safari/537.36",xpyriment,legacy,legacy,0,uniform,0,0,0,0,24,24,24,0,0,62,62,62,62,62,0,62,0,,,,,,0,,12-02-22,12-02-22,11:58:56,Sat Mar 12 2022 11:58:56 GMT+0100 (közép-európai téli idő),The main experiment item,yes,0,0,C:/Users/rrics/Documents/!!ResearchBMECOGSCI/gnet,0,0,0,prototype1.png,no,mono,no,18,no,black,no,no,768,1193,3.5.6,legacy,xpyriment,osweb,1.3.13,0,space,space,space,,30782,29895,30782,,2,legacy,728,1366,24,768,24,0,0,1366,1647082751244,1024,2,48000,-16,experiment,p5sarr2.png,1,odd,Win32,158,141877,138861,158,158,583235,584739,578238,143395,578238,158,,,,,,visual_patterns,0,0,0,yes,1366
undefined,undefined,undefined,undefined,white,no,Mozilla,Netscape,"5.0 (Windows NT 10.0; Win64; x64) AppleWebKit/537.36 (KHTML, like Gecko) Chrome/99.0.4844.51 Safari/537.36",xpyriment,legacy,legacy,0,uniform,0,0,0,0,24,24,24,0,0,63,63,63,63,63,0,63,0,,,,,,0,,12-02-22,12-02-22,11:58:56,Sat Mar 12 2022 11:58:56 GMT+0100 (közép-európai téli idő),The main experiment item,yes,0,0,C:/Users/rrics/Documents/!!ResearchBMECOGSCI/gnet,0,0,0,prototype1.png,no,mono,no,18,no,black,no,no,768,1193,3.5.6,legacy,xpyriment,osweb,1.3.13,0,space,space,space,,30782,29895,30782,,2,legacy,728,1366,24,768,24,0,0,1366,1647082751244,1024,2,48000,-16,experiment,p10sarr2.png,1,odd,Win32,158,141877,138861,158,158,589750,591256,584748,143395,584748,158,,,,,,visual_patterns,0,0,0,yes,1366
undefined,undefined,undefined,undefined,white,no,Mozilla,Netscape,"5.0 (Windows NT 10.0; Win64; x64) AppleWebKit/537.36 (KHTML, like Gecko) Chrome/99.0.4844.51 Safari/537.36",xpyriment,legacy,legacy,0,uniform,0,0,0,0,24,24,24,0,0,64,64,64,64,64,0,64,0,,,,,,0,,12-02-22,12-02-22,11:58:56,Sat Mar 12 2022 11:58:56 GMT+0100 (közép-európai téli idő),The main experiment item,yes,0,0,C:/Users/rrics/Documents/!!ResearchBMECOGSCI/gnet,0,0,0,prototype1.png,no,mono,no,18,no,black,no,no,768,1193,3.5.6,legacy,xpyriment,osweb,1.3.13,0,space,space,space,,30782,29895,30782,,2,legacy,728,1366,24,768,24,0,0,1366,1647082751244,1024,2,48000,-16,experiment,prototype1.png,1,odd,Win32,158,141877,138861,158,158,596268,597773,591264,143395,591264,158,,,,,,visual_patterns,0,0,0,yes,1366
undefined,undefined,undefined,undefined,white,no,Mozilla,Netscape,"5.0 (Windows NT 10.0; Win64; x64) AppleWebKit/537.36 (KHTML, like Gecko) Chrome/99.0.4844.51 Safari/537.36",xpyriment,legacy,legacy,0,uniform,0,0,0,0,24,24,24,0,0,65,65,65,65,65,0,65,0,,,,,,0,,12-02-22,12-02-22,11:58:56,Sat Mar 12 2022 11:58:56 GMT+0100 (közép-európai téli idő),The main experiment item,yes,0,0,C:/Users/rrics/Documents/!!ResearchBMECOGSCI/gnet,0,0,0,prototype1.png,no,mono,no,18,no,black,no,no,768,1193,3.5.6,legacy,xpyriment,osweb,1.3.13,0,space,space,space,,30782,29895,30782,,2,legacy,728,1366,24,768,24,0,0,1366,1647082751244,1024,2,48000,-16,experiment,prototype4.png,1,odd,Win32,158,141877,138861,158,158,602782,604290,597780,143395,597780,158,,,,,,visual_patterns,0,0,0,yes,1366
undefined,undefined,undefined,undefined,white,no,Mozilla,Netscape,"5.0 (Windows NT 10.0; Win64; x64) AppleWebKit/537.36 (KHTML, like Gecko) Chrome/99.0.4844.51 Safari/537.36",xpyriment,legacy,legacy,0,uniform,0,0,0,0,24,24,24,0,0,66,66,66,66,66,0,66,0,,,,,,0,,12-02-22,12-02-22,11:58:56,Sat Mar 12 2022 11:58:56 GMT+0100 (közép-európai téli idő),The main experiment item,yes,0,0,C:/Users/rrics/Documents/!!ResearchBMECOGSCI/gnet,0,0,0,prototype1.png,no,mono,no,18,no,black,no,no,768,1193,3.5.6,legacy,xpyriment,osweb,1.3.13,0,space,space,space,,30782,29895,30782,,2,legacy,728,1366,24,768,24,0,0,1366,1647082751244,1024,2,48000,-16,experiment,p2sarrshacol2.png,1,odd,Win32,158,141877,138861,158,158,609299,610807,604300,143395,604300,158,,,,,,visual_patterns,0,0,0,yes,1366
undefined,undefined,undefined,undefined,white,no,Mozilla,Netscape,"5.0 (Windows NT 10.0; Win64; x64) AppleWebKit/537.36 (KHTML, like Gecko) Chrome/99.0.4844.51 Safari/537.36",xpyriment,legacy,legacy,0,uniform,0,0,0,0,24,24,24,0,0,67,67,67,67,67,0,67,0,,,,,,0,,12-02-22,12-02-22,11:58:56,Sat Mar 12 2022 11:58:56 GMT+0100 (közép-európai téli idő),The main experiment item,yes,0,0,C:/Users/rrics/Documents/!!ResearchBMECOGSCI/gnet,0,0,0,prototype1.png,no,mono,no,18,no,black,no,no,768,1193,3.5.6,legacy,xpyriment,osweb,1.3.13,0,space,space,space,,30782,29895,30782,,2,legacy,728,1366,24,768,24,0,0,1366,1647082751244,1024,2,48000,-16,experiment,p1sarr2.png,1,odd,Win32,158,141877,138861,158,158,615815,617324,610815,143395,610815,158,,,,,,visual_patterns,0,0,0,yes,1366
undefined,undefined,undefined,undefined,white,no,Mozilla,Netscape,"5.0 (Windows NT 10.0; Win64; x64) AppleWebKit/537.36 (KHTML, like Gecko) Chrome/99.0.4844.51 Safari/537.36",xpyriment,legacy,legacy,0,uniform,0,0,0,0,24,24,24,0,0,68,68,68,68,68,0,68,0,,,,,,0,,12-02-22,12-02-22,11:58:56,Sat Mar 12 2022 11:58:56 GMT+0100 (közép-európai téli idő),The main experiment item,yes,0,0,C:/Users/rrics/Documents/!!ResearchBMECOGSCI/gnet,0,0,0,prototype1.png,no,mono,no,18,no,black,no,no,768,1193,3.5.6,legacy,xpyriment,osweb,1.3.13,0,space,space,space,,30782,29895,30782,,2,legacy,728,1366,24,768,24,0,0,1366,1647082751244,1024,2,48000,-16,experiment,p6sarr2.png,1,odd,Win32,158,141877,138861,158,158,622334,623841,617332,143395,617332,158,,,,,,visual_patterns,0,0,0,yes,1366
undefined,undefined,undefined,undefined,white,no,Mozilla,Netscape,"5.0 (Windows NT 10.0; Win64; x64) AppleWebKit/537.36 (KHTML, like Gecko) Chrome/99.0.4844.51 Safari/537.36",xpyriment,legacy,legacy,0,uniform,0,0,0,0,24,24,24,0,0,69,69,69,69,69,0,69,0,,,,,,0,,12-02-22,12-02-22,11:58:56,Sat Mar 12 2022 11:58:56 GMT+0100 (közép-európai téli idő),The main experiment item,yes,0,0,C:/Users/rrics/Documents/!!ResearchBMECOGSCI/gnet,0,0,0,prototype1.png,no,mono,no,18,no,black,no,no,768,1193,3.5.6,legacy,xpyriment,osweb,1.3.13,0,space,space,space,,30782,29895,30782,,2,legacy,728,1366,24,768,24,0,0,1366,1647082751244,1024,2,48000,-16,experiment,prototype2.png,1,odd,Win32,158,141877,138861,158,158,628847,630357,623847,143395,623847,158,,,,,,visual_patterns,0,0,0,yes,1366
undefined,undefined,undefined,undefined,white,no,Mozilla,Netscape,"5.0 (Windows NT 10.0; Win64; x64) AppleWebKit/537.36 (KHTML, like Gecko) Chrome/99.0.4844.51 Safari/537.36",xpyriment,legacy,legacy,0,uniform,0,0,0,0,24,24,24,0,0,70,70,70,70,70,0,70,0,,,,,,0,,12-02-22,12-02-22,11:58:56,Sat Mar 12 2022 11:58:56 GMT+0100 (közép-európai téli idő),The main experiment item,yes,0,0,C:/Users/rrics/Documents/!!ResearchBMECOGSCI/gnet,0,0,0,prototype1.png,no,mono,no,18,no,black,no,no,768,1193,3.5.6,legacy,xpyriment,osweb,1.3.13,0,space,space,space,,30782,29895,30782,,2,legacy,728,1366,24,768,24,0,0,1366,1647082751244,1024,2,48000,-16,experiment,p1sarrshacol1.png,1,odd,Win32,158,141877,138861,158,158,635367,636874,630366,143395,630366,158,,,,,,visual_patterns,0,0,0,yes,1366
undefined,undefined,undefined,undefined,white,no,Mozilla,Netscape,"5.0 (Windows NT 10.0; Win64; x64) AppleWebKit/537.36 (KHTML, like Gecko) Chrome/99.0.4844.51 Safari/537.36",xpyriment,legacy,legacy,0,uniform,0,0,0,0,24,24,24,0,0,71,71,71,71,71,0,71,0,,,,,,0,,12-02-22,12-02-22,11:58:56,Sat Mar 12 2022 11:58:56 GMT+0100 (közép-európai téli idő),The main experiment item,yes,0,0,C:/Users/rrics/Documents/!!ResearchBMECOGSCI/gnet,0,0,0,prototype1.png,no,mono,no,18,no,black,no,no,768,1193,3.5.6,legacy,xpyriment,osweb,1.3.13,0,space,space,space,,30782,29895,30782,,2,legacy,728,1366,24,768,24,0,0,1366,1647082751244,1024,2,48000,-16,experiment,prototype1.png,1,odd,Win32,158,141877,138861,158,158,641882,643391,636883,143395,636882,158,,,,,,visual_patterns,0,0,0,yes,1366
undefined,undefined,undefined,undefined,white,no,Mozilla,Netscape,"5.0 (Windows NT 10.0; Win64; x64) AppleWebKit/537.36 (KHTML, like Gecko) Chrome/99.0.4844.51 Safari/537.36",xpyriment,legacy,legacy,0,uniform,0,0,0,0,24,24,24,0,0,72,72,72,72,72,0,72,0,,,,,,0,,12-02-22,12-02-22,11:58:56,Sat Mar 12 2022 11:58:56 GMT+0100 (közép-európai téli idő),The main experiment item,yes,0,0,C:/Users/rrics/Documents/!!ResearchBMECOGSCI/gnet,0,0,0,prototype1.png,no,mono,no,18,no,black,no,no,768,1193,3.5.6,legacy,xpyriment,osweb,1.3.13,0,space,space,space,,30782,29895,30782,,2,legacy,728,1366,24,768,24,0,0,1366,1647082751244,1024,2,48000,-16,experiment,prototype5.png,1,odd,Win32,158,141877,138861,158,158,648398,649908,643398,143395,643398,158,,,,,,visual_patterns,0,0,0,yes,1366
undefined,undefined,undefined,undefined,white,no,Mozilla,Netscape,"5.0 (Windows NT 10.0; Win64; x64) AppleWebKit/537.36 (KHTML, like Gecko) Chrome/99.0.4844.51 Safari/537.36",xpyriment,legacy,legacy,0,uniform,0,0,0,0,24,24,24,0,0,73,73,73,73,73,0,73,0,,,,,,0,,12-02-22,12-02-22,11:58:56,Sat Mar 12 2022 11:58:56 GMT+0100 (közép-európai téli idő),The main experiment item,yes,0,0,C:/Users/rrics/Documents/!!ResearchBMECOGSCI/gnet,0,0,0,prototype1.png,no,mono,no,18,no,black,no,no,768,1193,3.5.6,legacy,xpyriment,osweb,1.3.13,0,space,space,space,,30782,29895,30782,,2,legacy,728,1366,24,768,24,0,0,1366,1647082751244,1024,2,48000,-16,experiment,prototype3.png,1,odd,Win32,158,141877,138861,158,158,654916,656425,649915,143395,649915,158,,,,,,visual_patterns,0,0,0,yes,1366
undefined,undefined,undefined,undefined,white,no,Mozilla,Netscape,"5.0 (Windows NT 10.0; Win64; x64) AppleWebKit/537.36 (KHTML, like Gecko) Chrome/99.0.4844.51 Safari/537.36",xpyriment,legacy,legacy,0,uniform,0,0,0,0,24,24,24,0,0,74,74,74,74,74,0,74,0,,,,,,0,,12-02-22,12-02-22,11:58:56,Sat Mar 12 2022 11:58:56 GMT+0100 (közép-európai téli idő),The main experiment item,yes,0,0,C:/Users/rrics/Documents/!!ResearchBMECOGSCI/gnet,0,0,0,prototype1.png,no,mono,no,18,no,black,no,no,768,1193,3.5.6,legacy,xpyriment,osweb,1.3.13,0,space,space,space,,30782,29895,30782,,2,legacy,728,1366,24,768,24,0,0,1366,1647082751244,1024,2,48000,-16,experiment,prototype2.png,1,odd,Win32,158,141877,138861,158,158,661434,662941,656434,143395,656434,158,,,,,,visual_patterns,0,0,0,yes,1366
undefined,undefined,undefined,undefined,white,no,Mozilla,Netscape,"5.0 (Windows NT 10.0; Win64; x64) AppleWebKit/537.36 (KHTML, like Gecko) Chrome/99.0.4844.51 Safari/537.36",xpyriment,legacy,legacy,0,uniform,0,0,0,0,24,24,24,0,0,74,74,74,74,74,0,74,0,0,0,0,0,0,0,0,12-02-22,12-02-22,11:58:56,Sat Mar 12 2022 11:58:56 GMT+0100 (közép-európai téli idő),The main experiment item,yes,0,0,C:/Users/rrics/Documents/!!ResearchBMECOGSCI/gnet,0,0,0,prototype1.png,no,mono,no,18,no,black,no,no,768,1193,3.5.6,legacy,xpyriment,osweb,1.3.13,0,space,space,space,space,62989,29895,30782,62989,2,legacy,728,1366,24,768,24,0,0,1366,1647082751244,1024,2,48000,-16,experiment,p5sarrsha3.png,1,odd,Win32,158,141877,138861,158,158,661434,662941,656434,143395,656434,158,728959,730460,725960,662944,725960,visual_patterns,0,0,0,yes,1366
undefined,undefined,undefined,undefined,white,no,Mozilla,Netscape,"5.0 (Windows NT 10.0; Win64; x64) AppleWebKit/537.36 (KHTML, like Gecko) Chrome/99.0.4844.51 Safari/537.36",xpyriment,legacy,legacy,0,uniform,0,0,0,0,24,24,24,0,0,74,74,74,74,74,0,74,0,1,1,1,1,1,0,1,12-02-22,12-02-22,11:58:56,Sat Mar 12 2022 11:58:56 GMT+0100 (közép-európai téli idő),The main experiment item,yes,0,0,C:/Users/rrics/Documents/!!ResearchBMECOGSCI/gnet,0,0,0,prototype1.png,no,mono,no,18,no,black,no,no,768,1193,3.5.6,legacy,xpyriment,osweb,1.3.13,0,space,space,space,space,62989,29895,30782,62989,2,legacy,728,1366,24,768,24,0,0,1366,1647082751244,1024,2,48000,-16,experiment,p2sarrshacol1.png,1,odd,Win32,158,141877,138861,158,158,661434,662941,656434,143395,656434,158,733469,734977,730470,662944,730469,visual_patterns,0,0,0,yes,1366
undefined,undefined,undefined,undefined,white,no,Mozilla,Netscape,"5.0 (Windows NT 10.0; Win64; x64) AppleWebKit/537.36 (KHTML, like Gecko) Chrome/99.0.4844.51 Safari/537.36",xpyriment,legacy,legacy,0,uniform,0,0,0,0,24,24,24,0,0,74,74,74,74,74,0,74,0,2,2,2,2,2,0,2,12-02-22,12-02-22,11:58:56,Sat Mar 12 2022 11:58:56 GMT+0100 (közép-európai téli idő),The main experiment item,yes,0,0,C:/Users/rrics/Documents/!!ResearchBMECOGSCI/gnet,0,0,0,prototype1.png,no,mono,no,18,no,black,no,no,768,1193,3.5.6,legacy,xpyriment,osweb,1.3.13,0,space,space,space,space,62989,29895,30782,62989,2,legacy,728,1366,24,768,24,0,0,1366,1647082751244,1024,2,48000,-16,experiment,p4sarr4.png,1,odd,Win32,158,141877,138861,158,158,661434,662941,656434,143395,656434,158,737985,739494,734987,662944,734987,visual_patterns,0,0,0,yes,1366
undefined,undefined,undefined,undefined,white,no,Mozilla,Netscape,"5.0 (Windows NT 10.0; Win64; x64) AppleWebKit/537.36 (KHTML, like Gecko) Chrome/99.0.4844.51 Safari/537.36",xpyriment,legacy,legacy,0,uniform,0,0,0,0,24,24,24,0,0,74,74,74,74,74,0,74,0,3,3,3,3,3,0,3,12-02-22,12-02-22,11:58:56,Sat Mar 12 2022 11:58:56 GMT+0100 (közép-európai téli idő),The main experiment item,yes,0,0,C:/Users/rrics/Documents/!!ResearchBMECOGSCI/gnet,0,0,0,prototype1.png,no,mono,no,18,no,black,no,no,768,1193,3.5.6,legacy,xpyriment,osweb,1.3.13,0,space,space,space,space,62989,29895,30782,62989,2,legacy,728,1366,24,768,24,0,0,1366,1647082751244,1024,2,48000,-16,experiment,p5sarrsha2.png,1,odd,Win32,158,141877,138861,158,158,661434,662941,656434,143395,656434,158,742504,744011,739503,662944,739503,visual_patterns,0,0,0,yes,1366
undefined,undefined,undefined,undefined,white,no,Mozilla,Netscape,"5.0 (Windows NT 10.0; Win64; x64) AppleWebKit/537.36 (KHTML, like Gecko) Chrome/99.0.4844.51 Safari/537.36",xpyriment,legacy,legacy,0,uniform,0,0,0,0,24,24,24,0,0,74,74,74,74,74,0,74,0,4,4,4,4,4,0,4,12-02-22,12-02-22,11:58:56,Sat Mar 12 2022 11:58:56 GMT+0100 (közép-európai téli idő),The main experiment item,yes,0,0,C:/Users/rrics/Documents/!!ResearchBMECOGSCI/gnet,0,0,0,prototype1.png,no,mono,no,18,no,black,no,no,768,1193,3.5.6,legacy,xpyriment,osweb,1.3.13,0,space,space,space,space,62989,29895,30782,62989,2,legacy,728,1366,24,768,24,0,0,1366,1647082751244,1024,2,48000,-16,experiment,p7sarr2.png,1,odd,Win32,158,141877,138861,158,158,661434,662941,656434,143395,656434,158,747019,748527,744020,662944,744019,visual_patterns,0,0,0,yes,1366
undefined,undefined,undefined,undefined,white,no,Mozilla,Netscape,"5.0 (Windows NT 10.0; Win64; x64) AppleWebKit/537.36 (KHTML, like Gecko) Chrome/99.0.4844.51 Safari/537.36",xpyriment,legacy,legacy,0,uniform,0,0,0,0,24,24,24,0,0,74,74,74,74,74,0,74,0,5,5,5,5,5,0,5,12-02-22,12-02-22,11:58:56,Sat Mar 12 2022 11:58:56 GMT+0100 (közép-európai téli idő),The main experiment item,yes,0,0,C:/Users/rrics/Documents/!!ResearchBMECOGSCI/gnet,0,0,0,prototype1.png,no,mono,no,18,no,black,no,no,768,1193,3.5.6,legacy,xpyriment,osweb,1.3.13,0,space,space,space,space,62989,29895,30782,62989,2,legacy,728,1366,24,768,24,0,0,1366,1647082751244,1024,2,48000,-16,experiment,p1sarrsha4.png,1,odd,Win32,158,141877,138861,158,158,661434,662941,656434,143395,656434,158,751535,753044,748538,662944,748538,visual_patterns,0,0,0,yes,1366
undefined,undefined,undefined,undefined,white,no,Mozilla,Netscape,"5.0 (Windows NT 10.0; Win64; x64) AppleWebKit/537.36 (KHTML, like Gecko) Chrome/99.0.4844.51 Safari/537.36",xpyriment,legacy,legacy,0,uniform,0,0,0,0,24,24,24,0,0,74,74,74,74,74,0,74,0,6,6,6,6,6,0,6,12-02-22,12-02-22,11:58:56,Sat Mar 12 2022 11:58:56 GMT+0100 (közép-európai téli idő),The main experiment item,yes,0,0,C:/Users/rrics/Documents/!!ResearchBMECOGSCI/gnet,0,0,0,prototype1.png,no,mono,no,18,no,black,no,no,768,1193,3.5.6,legacy,xpyriment,osweb,1.3.13,0,space,space,space,space,62989,29895,30782,62989,2,legacy,728,1366,24,768,24,0,0,1366,1647082751244,1024,2,48000,-16,experiment,p3sarrcol2.png,1,odd,Win32,158,141877,138861,158,158,661434,662941,656434,143395,656434,158,756056,757561,753054,662944,753053,visual_patterns,0,0,0,yes,1366
undefined,undefined,undefined,undefined,white,no,Mozilla,Netscape,"5.0 (Windows NT 10.0; Win64; x64) AppleWebKit/537.36 (KHTML, like Gecko) Chrome/99.0.4844.51 Safari/537.36",xpyriment,legacy,legacy,0,uniform,0,0,0,0,24,24,24,0,0,74,74,74,74,74,0,74,0,7,7,7,7,7,0,7,12-02-22,12-02-22,11:58:56,Sat Mar 12 2022 11:58:56 GMT+0100 (közép-európai téli idő),The main experiment item,yes,0,0,C:/Users/rrics/Documents/!!ResearchBMECOGSCI/gnet,0,0,0,prototype1.png,no,mono,no,18,no,black,no,no,768,1193,3.5.6,legacy,xpyriment,osweb,1.3.13,0,space,space,space,space,62989,29895,30782,62989,2,legacy,728,1366,24,768,24,0,0,1366,1647082751244,1024,2,48000,-16,experiment,p3sarrcol3.png,1,odd,Win32,158,141877,138861,158,158,661434,662941,656434,143395,656434,158,760571,762078,757572,662944,757571,visual_patterns,0,0,0,yes,1366
undefined,undefined,undefined,undefined,white,no,Mozilla,Netscape,"5.0 (Windows NT 10.0; Win64; x64) AppleWebKit/537.36 (KHTML, like Gecko) Chrome/99.0.4844.51 Safari/537.36",xpyriment,legacy,legacy,0,uniform,0,0,0,0,24,24,24,0,0,74,74,74,74,74,0,74,0,8,8,8,8,8,0,8,12-02-22,12-02-22,11:58:56,Sat Mar 12 2022 11:58:56 GMT+0100 (közép-európai téli idő),The main experiment item,yes,0,0,C:/Users/rrics/Documents/!!ResearchBMECOGSCI/gnet,0,0,0,prototype1.png,no,mono,no,18,no,black,no,no,768,1193,3.5.6,legacy,xpyriment,osweb,1.3.13,0,space,space,space,space,62989,29895,30782,62989,2,legacy,728,1366,24,768,24,0,0,1366,1647082751244,1024,2,48000,-16,experiment,p1sarrsha1.png,1,odd,Win32,158,141877,138861,158,158,661434,662941,656434,143395,656434,158,765088,766595,762086,662944,762086,visual_patterns,0,0,0,yes,1366
undefined,undefined,undefined,undefined,white,no,Mozilla,Netscape,"5.0 (Windows NT 10.0; Win64; x64) AppleWebKit/537.36 (KHTML, like Gecko) Chrome/99.0.4844.51 Safari/537.36",xpyriment,legacy,legacy,0,uniform,0,0,0,0,24,24,24,0,0,74,74,74,74,74,0,74,0,9,9,9,9,9,0,9,12-02-22,12-02-22,11:58:56,Sat Mar 12 2022 11:58:56 GMT+0100 (közép-európai téli idő),The main experiment item,yes,0,0,C:/Users/rrics/Documents/!!ResearchBMECOGSCI/gnet,0,0,0,prototype1.png,no,mono,no,18,no,black,no,no,768,1193,3.5.6,legacy,xpyriment,osweb,1.3.13,0,space,space,space,space,62989,29895,30782,62989,2,legacy,728,1366,24,768,24,0,0,1366,1647082751244,1024,2,48000,-16,experiment,p4sarr1.png,1,odd,Win32,158,141877,138861,158,158,661434,662941,656434,143395,656434,158,769604,771112,766603,662944,766603,visual_patterns,0,0,0,yes,1366
undefined,undefined,undefined,undefined,white,no,Mozilla,Netscape,"5.0 (Windows NT 10.0; Win64; x64) AppleWebKit/537.36 (KHTML, like Gecko) Chrome/99.0.4844.51 Safari/537.36",xpyriment,legacy,legacy,0,uniform,0,0,0,0,24,24,24,0,0,74,74,74,74,74,0,74,0,10,10,10,10,10,0,10,12-02-22,12-02-22,11:58:56,Sat Mar 12 2022 11:58:56 GMT+0100 (közép-európai téli idő),The main experiment item,yes,0,0,C:/Users/rrics/Documents/!!ResearchBMECOGSCI/gnet,0,0,0,prototype1.png,no,mono,no,18,no,black,no,no,768,1193,3.5.6,legacy,xpyriment,osweb,1.3.13,0,space,space,space,space,62989,29895,30782,62989,2,legacy,728,1366,24,768,24,0,0,1366,1647082751244,1024,2,48000,-16,experiment,p9sarr2.png,1,odd,Win32,158,141877,138861,158,158,661434,662941,656434,143395,656434,158,774121,775628,771121,662944,771121,visual_patterns,0,0,0,yes,1366
undefined,undefined,undefined,undefined,white,no,Mozilla,Netscape,"5.0 (Windows NT 10.0; Win64; x64) AppleWebKit/537.36 (KHTML, like Gecko) Chrome/99.0.4844.51 Safari/537.36",xpyriment,legacy,legacy,0,uniform,0,0,0,0,24,24,24,0,0,74,74,74,74,74,0,74,0,11,11,11,11,11,0,11,12-02-22,12-02-22,11:58:56,Sat Mar 12 2022 11:58:56 GMT+0100 (közép-európai téli idő),The main experiment item,yes,0,0,C:/Users/rrics/Documents/!!ResearchBMECOGSCI/gnet,0,0,0,prototype1.png,no,mono,no,18,no,black,no,no,768,1193,3.5.6,legacy,xpyriment,osweb,1.3.13,0,space,space,space,space,62989,29895,30782,62989,2,legacy,728,1366,24,768,24,0,0,1366,1647082751244,1024,2,48000,-16,experiment,p1sarr2.png,1,odd,Win32,158,141877,138861,158,158,661434,662941,656434,143395,656434,158,778637,780145,775637,662944,775637,visual_patterns,0,0,0,yes,1366
undefined,undefined,undefined,undefined,white,no,Mozilla,Netscape,"5.0 (Windows NT 10.0; Win64; x64) AppleWebKit/537.36 (KHTML, like Gecko) Chrome/99.0.4844.51 Safari/537.36",xpyriment,legacy,legacy,0,uniform,0,0,0,0,24,24,24,0,0,74,74,74,74,74,0,74,0,12,12,12,12,12,0,12,12-02-22,12-02-22,11:58:56,Sat Mar 12 2022 11:58:56 GMT+0100 (közép-európai téli idő),The main experiment item,yes,0,0,C:/Users/rrics/Documents/!!ResearchBMECOGSCI/gnet,0,0,0,prototype1.png,no,mono,no,18,no,black,no,no,768,1193,3.5.6,legacy,xpyriment,osweb,1.3.13,0,space,space,space,space,62989,29895,30782,62989,2,legacy,728,1366,24,768,24,0,0,1366,1647082751244,1024,2,48000,-16,experiment,p3sarrcol4.png,1,odd,Win32,158,141877,138861,158,158,661434,662941,656434,143395,656434,158,783157,784662,780157,662944,780157,visual_patterns,0,0,0,yes,1366
undefined,undefined,undefined,undefined,white,no,Mozilla,Netscape,"5.0 (Windows NT 10.0; Win64; x64) AppleWebKit/537.36 (KHTML, like Gecko) Chrome/99.0.4844.51 Safari/537.36",xpyriment,legacy,legacy,0,uniform,0,0,0,0,24,24,24,0,0,74,74,74,74,74,0,74,0,13,13,13,13,13,0,13,12-02-22,12-02-22,11:58:56,Sat Mar 12 2022 11:58:56 GMT+0100 (közép-európai téli idő),The main experiment item,yes,0,0,C:/Users/rrics/Documents/!!ResearchBMECOGSCI/gnet,0,0,0,prototype1.png,no,mono,no,18,no,black,no,no,768,1193,3.5.6,legacy,xpyriment,osweb,1.3.13,0,space,space,space,space,62989,29895,30782,62989,2,legacy,728,1366,24,768,24,0,0,1366,1647082751244,1024,2,48000,-16,experiment,p2sarrshacol2.png,1,odd,Win32,158,141877,138861,158,158,661434,662941,656434,143395,656434,158,787673,789178,784670,662944,784670,visual_patterns,0,0,0,yes,1366
undefined,undefined,undefined,undefined,white,no,Mozilla,Netscape,"5.0 (Windows NT 10.0; Win64; x64) AppleWebKit/537.36 (KHTML, like Gecko) Chrome/99.0.4844.51 Safari/537.36",xpyriment,legacy,legacy,0,uniform,0,0,0,0,24,24,24,0,0,74,74,74,74,74,0,74,0,14,14,14,14,14,0,14,12-02-22,12-02-22,11:58:56,Sat Mar 12 2022 11:58:56 GMT+0100 (közép-európai téli idő),The main experiment item,yes,0,0,C:/Users/rrics/Documents/!!ResearchBMECOGSCI/gnet,0,0,0,prototype1.png,no,mono,no,18,no,black,no,no,768,1193,3.5.6,legacy,xpyriment,osweb,1.3.13,0,space,space,space,space,62989,29895,30782,62989,2,legacy,728,1366,24,768,24,0,0,1366,1647082751244,1024,2,48000,-16,experiment,p6sarr1.png,1,odd,Win32,158,141877,138861,158,158,661434,662941,656434,143395,656434,158,792188,793695,789189,662944,789189,visual_patterns,0,0,0,yes,1366
undefined,undefined,undefined,undefined,white,no,Mozilla,Netscape,"5.0 (Windows NT 10.0; Win64; x64) AppleWebKit/537.36 (KHTML, like Gecko) Chrome/99.0.4844.51 Safari/537.36",xpyriment,legacy,legacy,0,uniform,0,0,0,0,24,24,24,0,0,74,74,74,74,74,0,74,0,15,15,15,15,15,0,15,12-02-22,12-02-22,11:58:56,Sat Mar 12 2022 11:58:56 GMT+0100 (közép-európai téli idő),The main experiment item,yes,0,0,C:/Users/rrics/Documents/!!ResearchBMECOGSCI/gnet,0,0,0,prototype1.png,no,mono,no,18,no,black,no,no,768,1193,3.5.6,legacy,xpyriment,osweb,1.3.13,0,space,space,space,space,62989,29895,30782,62989,2,legacy,728,1366,24,768,24,0,0,1366,1647082751244,1024,2,48000,-16,experiment,p4sarrshacol3.png,1,odd,Win32,158,141877,138861,158,158,661434,662941,656434,143395,656434,158,796704,798212,793706,662944,793706,visual_patterns,0,0,0,yes,1366
undefined,undefined,undefined,undefined,white,no,Mozilla,Netscape,"5.0 (Windows NT 10.0; Win64; x64) AppleWebKit/537.36 (KHTML, like Gecko) Chrome/99.0.4844.51 Safari/537.36",xpyriment,legacy,legacy,0,uniform,0,0,0,0,24,24,24,0,0,74,74,74,74,74,0,74,0,16,16,16,16,16,0,16,12-02-22,12-02-22,11:58:56,Sat Mar 12 2022 11:58:56 GMT+0100 (közép-európai téli idő),The main experiment item,yes,0,0,C:/Users/rrics/Documents/!!ResearchBMECOGSCI/gnet,0,0,0,prototype1.png,no,mono,no,18,no,black,no,no,768,1193,3.5.6,legacy,xpyriment,osweb,1.3.13,0,space,space,space,space,62989,29895,30782,62989,2,legacy,728,1366,24,768,24,0,0,1366,1647082751244,1024,2,48000,-16,experiment,p4sarrshacol4.png,1,odd,Win32,158,141877,138861,158,158,661434,662941,656434,143395,656434,158,801223,802729,798222,662944,798222,visual_patterns,0,0,0,yes,1366
undefined,undefined,undefined,undefined,white,no,Mozilla,Netscape,"5.0 (Windows NT 10.0; Win64; x64) AppleWebKit/537.36 (KHTML, like Gecko) Chrome/99.0.4844.51 Safari/537.36",xpyriment,legacy,legacy,0,uniform,0,0,0,0,24,24,24,0,0,74,74,74,74,74,0,74,0,17,17,17,17,17,0,17,12-02-22,12-02-22,11:58:56,Sat Mar 12 2022 11:58:56 GMT+0100 (közép-európai téli idő),The main experiment item,yes,0,0,C:/Users/rrics/Documents/!!ResearchBMECOGSCI/gnet,0,0,0,prototype1.png,no,mono,no,18,no,black,no,no,768,1193,3.5.6,legacy,xpyriment,osweb,1.3.13,0,space,space,space,space,62989,29895,30782,62989,2,legacy,728,1366,24,768,24,0,0,1366,1647082751244,1024,2,48000,-16,experiment,p2sarrcol1.png,1,odd,Win32,158,141877,138861,158,158,661434,662941,656434,143395,656434,158,805743,807246,802741,662944,802741,visual_patterns,0,0,0,yes,1366
undefined,undefined,undefined,undefined,white,no,Mozilla,Netscape,"5.0 (Windows NT 10.0; Win64; x64) AppleWebKit/537.36 (KHTML, like Gecko) Chrome/99.0.4844.51 Safari/537.36",xpyriment,legacy,legacy,0,uniform,0,0,0,0,24,24,24,0,0,74,74,74,74,74,0,74,0,18,18,18,18,18,0,18,12-02-22,12-02-22,11:58:56,Sat Mar 12 2022 11:58:56 GMT+0100 (közép-európai téli idő),The main experiment item,yes,0,0,C:/Users/rrics/Documents/!!ResearchBMECOGSCI/gnet,0,0,0,prototype1.png,no,mono,no,18,no,black,no,no,768,1193,3.5.6,legacy,xpyriment,osweb,1.3.13,0,space,space,space,space,62989,29895,30782,62989,2,legacy,728,1366,24,768,24,0,0,1366,1647082751244,1024,2,48000,-16,experiment,p1sarr4.png,1,odd,Win32,158,141877,138861,158,158,661434,662941,656434,143395,656434,158,810258,811763,807257,662944,807257,visual_patterns,0,0,0,yes,1366
undefined,undefined,undefined,undefined,white,no,Mozilla,Netscape,"5.0 (Windows NT 10.0; Win64; x64) AppleWebKit/537.36 (KHTML, like Gecko) Chrome/99.0.4844.51 Safari/537.36",xpyriment,legacy,legacy,0,uniform,0,0,0,0,24,24,24,0,0,74,74,74,74,74,0,74,0,19,19,19,19,19,0,19,12-02-22,12-02-22,11:58:56,Sat Mar 12 2022 11:58:56 GMT+0100 (közép-európai téli idő),The main experiment item,yes,0,0,C:/Users/rrics/Documents/!!ResearchBMECOGSCI/gnet,0,0,0,prototype1.png,no,mono,no,18,no,black,no,no,768,1193,3.5.6,legacy,xpyriment,osweb,1.3.13,0,space,space,space,space,62989,29895,30782,62989,2,legacy,728,1366,24,768,24,0,0,1366,1647082751244,1024,2,48000,-16,experiment,p10sarr1.png,1,odd,Win32,158,141877,138861,158,158,661434,662941,656434,143395,656434,158,814772,816279,811772,662944,811772,visual_patterns,0,0,0,yes,1366
undefined,undefined,undefined,undefined,white,no,Mozilla,Netscape,"5.0 (Windows NT 10.0; Win64; x64) AppleWebKit/537.36 (KHTML, like Gecko) Chrome/99.0.4844.51 Safari/537.36",xpyriment,legacy,legacy,0,uniform,0,0,0,0,24,24,24,0,0,74,74,74,74,74,0,74,0,20,20,20,20,20,0,20,12-02-22,12-02-22,11:58:56,Sat Mar 12 2022 11:58:56 GMT+0100 (közép-európai téli idő),The main experiment item,yes,0,0,C:/Users/rrics/Documents/!!ResearchBMECOGSCI/gnet,0,0,0,prototype1.png,no,mono,no,18,no,black,no,no,768,1193,3.5.6,legacy,xpyriment,osweb,1.3.13,0,space,space,space,space,62989,29895,30782,62989,2,legacy,728,1366,24,768,24,0,0,1366,1647082751244,1024,2,48000,-16,experiment,p8sarr3.png,1,odd,Win32,158,141877,138861,158,158,661434,662941,656434,143395,656434,158,819288,820796,816290,662944,816290,visual_patterns,0,0,0,yes,1366
undefined,undefined,undefined,undefined,white,no,Mozilla,Netscape,"5.0 (Windows NT 10.0; Win64; x64) AppleWebKit/537.36 (KHTML, like Gecko) Chrome/99.0.4844.51 Safari/537.36",xpyriment,legacy,legacy,0,uniform,0,0,0,0,24,24,24,0,0,74,74,74,74,74,0,74,0,21,21,21,21,21,0,21,12-02-22,12-02-22,11:58:56,Sat Mar 12 2022 11:58:56 GMT+0100 (közép-európai téli idő),The main experiment item,yes,0,0,C:/Users/rrics/Documents/!!ResearchBMECOGSCI/gnet,0,0,0,prototype1.png,no,mono,no,18,no,black,no,no,768,1193,3.5.6,legacy,xpyriment,osweb,1.3.13,0,space,space,space,space,62989,29895,30782,62989,2,legacy,728,1366,24,768,24,0,0,1366,1647082751244,1024,2,48000,-16,experiment,p9sarr4.png,1,odd,Win32,158,141877,138861,158,158,661434,662941,656434,143395,656434,158,823804,825313,820806,662944,820806,visual_patterns,0,0,0,yes,1366
undefined,undefined,undefined,undefined,white,no,Mozilla,Netscape,"5.0 (Windows NT 10.0; Win64; x64) AppleWebKit/537.36 (KHTML, like Gecko) Chrome/99.0.4844.51 Safari/537.36",xpyriment,legacy,legacy,0,uniform,0,0,0,0,24,24,24,0,0,74,74,74,74,74,0,74,0,22,22,22,22,22,0,22,12-02-22,12-02-22,11:58:56,Sat Mar 12 2022 11:58:56 GMT+0100 (közép-európai téli idő),The main experiment item,yes,0,0,C:/Users/rrics/Documents/!!ResearchBMECOGSCI/gnet,0,0,0,prototype1.png,no,mono,no,18,no,black,no,no,768,1193,3.5.6,legacy,xpyriment,osweb,1.3.13,0,space,space,space,space,62989,29895,30782,62989,2,legacy,728,1366,24,768,24,0,0,1366,1647082751244,1024,2,48000,-16,experiment,p5sarrcol2.png,1,odd,Win32,158,141877,138861,158,158,661434,662941,656434,143395,656434,158,828324,829830,825322,662944,825322,visual_patterns,0,0,0,yes,1366
undefined,undefined,undefined,undefined,white,no,Mozilla,Netscape,"5.0 (Windows NT 10.0; Win64; x64) AppleWebKit/537.36 (KHTML, like Gecko) Chrome/99.0.4844.51 Safari/537.36",xpyriment,legacy,legacy,0,uniform,0,0,0,0,24,24,24,0,0,74,74,74,74,74,0,74,0,23,23,23,23,23,0,23,12-02-22,12-02-22,11:58:56,Sat Mar 12 2022 11:58:56 GMT+0100 (közép-európai téli idő),The main experiment item,yes,0,0,C:/Users/rrics/Documents/!!ResearchBMECOGSCI/gnet,0,0,0,prototype1.png,no,mono,no,18,no,black,no,no,768,1193,3.5.6,legacy,xpyriment,osweb,1.3.13,0,space,space,space,space,62989,29895,30782,62989,2,legacy,728,1366,24,768,24,0,0,1366,1647082751244,1024,2,48000,-16,experiment,p7sarr4.png,1,odd,Win32,158,141877,138861,158,158,661434,662941,656434,143395,656434,158,832841,834347,829840,662944,829839,visual_patterns,0,0,0,yes,1366
undefined,undefined,undefined,undefined,white,no,Mozilla,Netscape,"5.0 (Windows NT 10.0; Win64; x64) AppleWebKit/537.36 (KHTML, like Gecko) Chrome/99.0.4844.51 Safari/537.36",xpyriment,legacy,legacy,0,uniform,0,0,0,0,24,24,24,0,0,74,74,74,74,74,0,74,0,24,24,24,24,24,0,24,12-02-22,12-02-22,11:58:56,Sat Mar 12 2022 11:58:56 GMT+0100 (közép-európai téli idő),The main experiment item,yes,0,0,C:/Users/rrics/Documents/!!ResearchBMECOGSCI/gnet,0,0,0,prototype1.png,no,mono,no,18,no,black,no,no,768,1193,3.5.6,legacy,xpyriment,osweb,1.3.13,0,space,space,space,space,62989,29895,30782,62989,2,legacy,728,1366,24,768,24,0,0,1366,1647082751244,1024,2,48000,-16,experiment,p3sarrsha3.png,1,odd,Win32,158,141877,138861,158,158,661434,662941,656434,143395,656434,158,837355,838863,834358,662944,834358,visual_patterns,0,0,0,yes,1366
undefined,undefined,undefined,undefined,white,no,Mozilla,Netscape,"5.0 (Windows NT 10.0; Win64; x64) AppleWebKit/537.36 (KHTML, like Gecko) Chrome/99.0.4844.51 Safari/537.36",xpyriment,legacy,legacy,0,uniform,0,0,0,0,24,24,24,0,0,74,74,74,74,74,0,74,0,25,25,25,25,25,0,25,12-02-22,12-02-22,11:58:56,Sat Mar 12 2022 11:58:56 GMT+0100 (közép-európai téli idő),The main experiment item,yes,0,0,C:/Users/rrics/Documents/!!ResearchBMECOGSCI/gnet,0,0,0,prototype1.png,no,mono,no,18,no,black,no,no,768,1193,3.5.6,legacy,xpyriment,osweb,1.3.13,0,space,space,space,space,62989,29895,30782,62989,2,legacy,728,1366,24,768,24,0,0,1366,1647082751244,1024,2,48000,-16,experiment,p8sarr4.png,1,odd,Win32,158,141877,138861,158,158,661434,662941,656434,143395,656434,158,841876,843380,838873,662944,838873,visual_patterns,0,0,0,yes,1366
undefined,undefined,undefined,undefined,white,no,Mozilla,Netscape,"5.0 (Windows NT 10.0; Win64; x64) AppleWebKit/537.36 (KHTML, like Gecko) Chrome/99.0.4844.51 Safari/537.36",xpyriment,legacy,legacy,0,uniform,0,0,0,0,24,24,24,0,0,74,74,74,74,74,0,74,0,26,26,26,26,26,0,26,12-02-22,12-02-22,11:58:56,Sat Mar 12 2022 11:58:56 GMT+0100 (közép-európai téli idő),The main experiment item,yes,0,0,C:/Users/rrics/Documents/!!ResearchBMECOGSCI/gnet,0,0,0,prototype1.png,no,mono,no,18,no,black,no,no,768,1193,3.5.6,legacy,xpyriment,osweb,1.3.13,0,space,space,space,space,62989,29895,30782,62989,2,legacy,728,1366,24,768,24,0,0,1366,1647082751244,1024,2,48000,-16,experiment,p2sarrshacol4.png,1,odd,Win32,158,141877,138861,158,158,661434,662941,656434,143395,656434,158,846390,847897,843391,662944,843391,visual_patterns,0,0,0,yes,1366
undefined,undefined,undefined,undefined,white,no,Mozilla,Netscape,"5.0 (Windows NT 10.0; Win64; x64) AppleWebKit/537.36 (KHTML, like Gecko) Chrome/99.0.4844.51 Safari/537.36",xpyriment,legacy,legacy,0,uniform,0,0,0,0,24,24,24,0,0,74,74,74,74,74,0,74,0,27,27,27,27,27,0,27,12-02-22,12-02-22,11:58:56,Sat Mar 12 2022 11:58:56 GMT+0100 (közép-európai téli idő),The main experiment item,yes,0,0,C:/Users/rrics/Documents/!!ResearchBMECOGSCI/gnet,0,0,0,prototype1.png,no,mono,no,18,no,black,no,no,768,1193,3.5.6,legacy,xpyriment,osweb,1.3.13,0,space,space,space,space,62989,29895,30782,62989,2,legacy,728,1366,24,768,24,0,0,1366,1647082751244,1024,2,48000,-16,experiment,p4sarrshacol1.png,1,odd,Win32,158,141877,138861,158,158,661434,662941,656434,143395,656434,158,850907,852414,847905,662944,847905,visual_patterns,0,0,0,yes,1366
undefined,undefined,undefined,undefined,white,no,Mozilla,Netscape,"5.0 (Windows NT 10.0; Win64; x64) AppleWebKit/537.36 (KHTML, like Gecko) Chrome/99.0.4844.51 Safari/537.36",xpyriment,legacy,legacy,0,uniform,0,0,0,0,24,24,24,0,0,74,74,74,74,74,0,74,0,28,28,28,28,28,0,28,12-02-22,12-02-22,11:58:56,Sat Mar 12 2022 11:58:56 GMT+0100 (közép-európai téli idő),The main experiment item,yes,0,0,C:/Users/rrics/Documents/!!ResearchBMECOGSCI/gnet,0,0,0,prototype1.png,no,mono,no,18,no,black,no,no,768,1193,3.5.6,legacy,xpyriment,osweb,1.3.13,0,space,space,space,space,62989,29895,30782,62989,2,legacy,728,1366,24,768,24,0,0,1366,1647082751244,1024,2,48000,-16,experiment,p1sarrshacol3.png,1,odd,Win32,158,141877,138861,158,158,661434,662941,656434,143395,656434,158,855424,856931,852423,662944,852423,visual_patterns,0,0,0,yes,1366
undefined,undefined,undefined,undefined,white,no,Mozilla,Netscape,"5.0 (Windows NT 10.0; Win64; x64) AppleWebKit/537.36 (KHTML, like Gecko) Chrome/99.0.4844.51 Safari/537.36",xpyriment,legacy,legacy,0,uniform,0,0,0,0,24,24,24,0,0,74,74,74,74,74,0,74,0,29,29,29,29,29,0,29,12-02-22,12-02-22,11:58:56,Sat Mar 12 2022 11:58:56 GMT+0100 (közép-európai téli idő),The main experiment item,yes,0,0,C:/Users/rrics/Documents/!!ResearchBMECOGSCI/gnet,0,0,0,prototype1.png,no,mono,no,18,no,black,no,no,768,1193,3.5.6,legacy,xpyriment,osweb,1.3.13,0,space,space,space,space,62989,29895,30782,62989,2,legacy,728,1366,24,768,24,0,0,1366,1647082751244,1024,2,48000,-16,experiment,p2sarrsha1.png,1,odd,Win32,158,141877,138861,158,158,661434,662941,656434,143395,656434,158,859942,861447,856939,662944,856939,visual_patterns,0,0,0,yes,1366
undefined,undefined,undefined,undefined,white,no,Mozilla,Netscape,"5.0 (Windows NT 10.0; Win64; x64) AppleWebKit/537.36 (KHTML, like Gecko) Chrome/99.0.4844.51 Safari/537.36",xpyriment,legacy,legacy,0,uniform,0,0,0,0,24,24,24,0,0,74,74,74,74,74,0,74,0,30,30,30,30,30,0,30,12-02-22,12-02-22,11:58:56,Sat Mar 12 2022 11:58:56 GMT+0100 (közép-európai téli idő),The main experiment item,yes,0,0,C:/Users/rrics/Documents/!!ResearchBMECOGSCI/gnet,0,0,0,prototype1.png,no,mono,no,18,no,black,no,no,768,1193,3.5.6,legacy,xpyriment,osweb,1.3.13,0,space,space,space,space,62989,29895,30782,62989,2,legacy,728,1366,24,768,24,0,0,1366,1647082751244,1024,2,48000,-16,experiment,p3sarr2.png,1,odd,Win32,158,141877,138861,158,158,661434,662941,656434,143395,656434,158,864457,865964,861456,662944,861455,visual_patterns,0,0,0,yes,1366
undefined,undefined,undefined,undefined,white,no,Mozilla,Netscape,"5.0 (Windows NT 10.0; Win64; x64) AppleWebKit/537.36 (KHTML, like Gecko) Chrome/99.0.4844.51 Safari/537.36",xpyriment,legacy,legacy,0,uniform,0,0,0,0,24,24,24,0,0,74,74,74,74,74,0,74,0,31,31,31,31,31,0,31,12-02-22,12-02-22,11:58:56,Sat Mar 12 2022 11:58:56 GMT+0100 (közép-európai téli idő),The main experiment item,yes,0,0,C:/Users/rrics/Documents/!!ResearchBMECOGSCI/gnet,0,0,0,prototype1.png,no,mono,no,18,no,black,no,no,768,1193,3.5.6,legacy,xpyriment,osweb,1.3.13,0,space,space,space,space,62989,29895,30782,62989,2,legacy,728,1366,24,768,24,0,0,1366,1647082751244,1024,2,48000,-16,experiment,p3sarrshacol3.png,1,odd,Win32,158,141877,138861,158,158,661434,662941,656434,143395,656434,158,868976,870481,865975,662944,865975,visual_patterns,0,0,0,yes,1366
undefined,undefined,undefined,undefined,white,no,Mozilla,Netscape,"5.0 (Windows NT 10.0; Win64; x64) AppleWebKit/537.36 (KHTML, like Gecko) Chrome/99.0.4844.51 Safari/537.36",xpyriment,legacy,legacy,0,uniform,0,0,0,0,24,24,24,0,0,74,74,74,74,74,0,74,0,32,32,32,32,32,0,32,12-02-22,12-02-22,11:58:56,Sat Mar 12 2022 11:58:56 GMT+0100 (közép-európai téli idő),The main experiment item,yes,0,0,C:/Users/rrics/Documents/!!ResearchBMECOGSCI/gnet,0,0,0,prototype1.png,no,mono,no,18,no,black,no,no,768,1193,3.5.6,legacy,xpyriment,osweb,1.3.13,0,space,space,space,space,62989,29895,30782,62989,2,legacy,728,1366,24,768,24,0,0,1366,1647082751244,1024,2,48000,-16,experiment,p2sarrcol4.png,1,odd,Win32,158,141877,138861,158,158,661434,662941,656434,143395,656434,158,873490,874998,870492,662944,870491,visual_patterns,0,0,0,yes,1366
undefined,undefined,undefined,undefined,white,no,Mozilla,Netscape,"5.0 (Windows NT 10.0; Win64; x64) AppleWebKit/537.36 (KHTML, like Gecko) Chrome/99.0.4844.51 Safari/537.36",xpyriment,legacy,legacy,0,uniform,0,0,0,0,24,24,24,0,0,74,74,74,74,74,0,74,0,33,33,33,33,33,0,33,12-02-22,12-02-22,11:58:56,Sat Mar 12 2022 11:58:56 GMT+0100 (közép-európai téli idő),The main experiment item,yes,0,0,C:/Users/rrics/Documents/!!ResearchBMECOGSCI/gnet,0,0,0,prototype1.png,no,mono,no,18,no,black,no,no,768,1193,3.5.6,legacy,xpyriment,osweb,1.3.13,0,space,space,space,space,62989,29895,30782,62989,2,legacy,728,1366,24,768,24,0,0,1366,1647082751244,1024,2,48000,-16,experiment,p5sarrcol1.png,1,odd,Win32,158,141877,138861,158,158,661434,662941,656434,143395,656434,158,878009,879515,875007,662944,875007,visual_patterns,0,0,0,yes,1366
undefined,undefined,undefined,undefined,white,no,Mozilla,Netscape,"5.0 (Windows NT 10.0; Win64; x64) AppleWebKit/537.36 (KHTML, like Gecko) Chrome/99.0.4844.51 Safari/537.36",xpyriment,legacy,legacy,0,uniform,0,0,0,0,24,24,24,0,0,74,74,74,74,74,0,74,0,34,34,34,34,34,0,34,12-02-22,12-02-22,11:58:56,Sat Mar 12 2022 11:58:56 GMT+0100 (közép-európai téli idő),The main experiment item,yes,0,0,C:/Users/rrics/Documents/!!ResearchBMECOGSCI/gnet,0,0,0,prototype1.png,no,mono,no,18,no,black,no,no,768,1193,3.5.6,legacy,xpyriment,osweb,1.3.13,0,space,space,space,space,62989,29895,30782,62989,2,legacy,728,1366,24,768,24,0,0,1366,1647082751244,1024,2,48000,-16,experiment,p8sarr2.png,1,odd,Win32,158,141877,138861,158,158,661434,662941,656434,143395,656434,158,882527,884031,879523,662944,879522,visual_patterns,0,0,0,yes,1366
undefined,undefined,undefined,undefined,white,no,Mozilla,Netscape,"5.0 (Windows NT 10.0; Win64; x64) AppleWebKit/537.36 (KHTML, like Gecko) Chrome/99.0.4844.51 Safari/537.36",xpyriment,legacy,legacy,0,uniform,0,0,0,0,24,24,24,0,0,74,74,74,74,74,0,74,0,35,35,35,35,35,0,35,12-02-22,12-02-22,11:58:56,Sat Mar 12 2022 11:58:56 GMT+0100 (közép-európai téli idő),The main experiment item,yes,0,0,C:/Users/rrics/Documents/!!ResearchBMECOGSCI/gnet,0,0,0,prototype1.png,no,mono,no,18,no,black,no,no,768,1193,3.5.6,legacy,xpyriment,osweb,1.3.13,0,space,space,space,space,62989,29895,30782,62989,2,legacy,728,1366,24,768,24,0,0,1366,1647082751244,1024,2,48000,-16,experiment,p5sarr3.png,1,odd,Win32,158,141877,138861,158,158,661434,662941,656434,143395,656434,158,887041,888548,884041,662944,884040,visual_patterns,0,0,0,yes,1366
undefined,undefined,undefined,undefined,white,no,Mozilla,Netscape,"5.0 (Windows NT 10.0; Win64; x64) AppleWebKit/537.36 (KHTML, like Gecko) Chrome/99.0.4844.51 Safari/537.36",xpyriment,legacy,legacy,0,uniform,0,0,0,0,24,24,24,0,0,74,74,74,74,74,0,74,0,36,36,36,36,36,0,36,12-02-22,12-02-22,11:58:56,Sat Mar 12 2022 11:58:56 GMT+0100 (közép-európai téli idő),The main experiment item,yes,0,0,C:/Users/rrics/Documents/!!ResearchBMECOGSCI/gnet,0,0,0,prototype1.png,no,mono,no,18,no,black,no,no,768,1193,3.5.6,legacy,xpyriment,osweb,1.3.13,0,space,space,space,space,62989,29895,30782,62989,2,legacy,728,1366,24,768,24,0,0,1366,1647082751244,1024,2,48000,-16,experiment,p7sarr1.png,1,odd,Win32,158,141877,138861,158,158,661434,662941,656434,143395,656434,158,891558,893065,888556,662944,888556,visual_patterns,0,0,0,yes,1366
undefined,undefined,undefined,undefined,white,no,Mozilla,Netscape,"5.0 (Windows NT 10.0; Win64; x64) AppleWebKit/537.36 (KHTML, like Gecko) Chrome/99.0.4844.51 Safari/537.36",xpyriment,legacy,legacy,0,uniform,0,0,0,0,24,24,24,0,0,74,74,74,74,74,0,74,0,37,37,37,37,37,0,37,12-02-22,12-02-22,11:58:56,Sat Mar 12 2022 11:58:56 GMT+0100 (közép-európai téli idő),The main experiment item,yes,0,0,C:/Users/rrics/Documents/!!ResearchBMECOGSCI/gnet,0,0,0,prototype1.png,no,mono,no,18,no,black,no,no,768,1193,3.5.6,legacy,xpyriment,osweb,1.3.13,0,space,space,space,space,62989,29895,30782,62989,2,legacy,728,1366,24,768,24,0,0,1366,1647082751244,1024,2,48000,-16,experiment,p1sarrcol4.png,1,odd,Win32,158,141877,138861,158,158,661434,662941,656434,143395,656434,158,896075,897582,893076,662944,893076,visual_patterns,0,0,0,yes,1366
undefined,undefined,undefined,undefined,white,no,Mozilla,Netscape,"5.0 (Windows NT 10.0; Win64; x64) AppleWebKit/537.36 (KHTML, like Gecko) Chrome/99.0.4844.51 Safari/537.36",xpyriment,legacy,legacy,0,uniform,0,0,0,0,24,24,24,0,0,74,74,74,74,74,0,74,0,38,38,38,38,38,0,38,12-02-22,12-02-22,11:58:56,Sat Mar 12 2022 11:58:56 GMT+0100 (közép-európai téli idő),The main experiment item,yes,0,0,C:/Users/rrics/Documents/!!ResearchBMECOGSCI/gnet,0,0,0,prototype1.png,no,mono,no,18,no,black,no,no,768,1193,3.5.6,legacy,xpyriment,osweb,1.3.13,0,space,space,space,space,62989,29895,30782,62989,2,legacy,728,1366,24,768,24,0,0,1366,1647082751244,1024,2,48000,-16,experiment,p3sarrsha4.png,1,odd,Win32,158,141877,138861,158,158,661434,662941,656434,143395,656434,158,900593,902099,897592,662944,897592,visual_patterns,0,0,0,yes,1366
undefined,undefined,undefined,undefined,white,no,Mozilla,Netscape,"5.0 (Windows NT 10.0; Win64; x64) AppleWebKit/537.36 (KHTML, like Gecko) Chrome/99.0.4844.51 Safari/537.36",xpyriment,legacy,legacy,0,uniform,0,0,0,0,24,24,24,0,0,74,74,74,74,74,0,74,0,39,39,39,39,39,0,39,12-02-22,12-02-22,11:58:56,Sat Mar 12 2022 11:58:56 GMT+0100 (közép-európai téli idő),The main experiment item,yes,0,0,C:/Users/rrics/Documents/!!ResearchBMECOGSCI/gnet,0,0,0,prototype1.png,no,mono,no,18,no,black,no,no,768,1193,3.5.6,legacy,xpyriment,osweb,1.3.13,0,space,space,space,space,62989,29895,30782,62989,2,legacy,728,1366,24,768,24,0,0,1366,1647082751244,1024,2,48000,-16,experiment,p3sarr1.png,1,odd,Win32,158,141877,138861,158,158,661434,662941,656434,143395,656434,158,905109,906615,902107,662944,902106,visual_patterns,0,0,0,yes,1366
undefined,undefined,undefined,undefined,white,no,Mozilla,Netscape,"5.0 (Windows NT 10.0; Win64; x64) AppleWebKit/537.36 (KHTML, like Gecko) Chrome/99.0.4844.51 Safari/537.36",xpyriment,legacy,legacy,0,uniform,0,0,0,0,24,24,24,0,0,74,74,74,74,74,0,74,0,40,40,40,40,40,0,40,12-02-22,12-02-22,11:58:56,Sat Mar 12 2022 11:58:56 GMT+0100 (közép-európai téli idő),The main experiment item,yes,0,0,C:/Users/rrics/Documents/!!ResearchBMECOGSCI/gnet,0,0,0,prototype1.png,no,mono,no,18,no,black,no,no,768,1193,3.5.6,legacy,xpyriment,osweb,1.3.13,0,space,space,space,space,62989,29895,30782,62989,2,legacy,728,1366,24,768,24,0,0,1366,1647082751244,1024,2,48000,-16,experiment,p2sarrsha3.png,1,odd,Win32,158,141877,138861,158,158,661434,662941,656434,143395,656434,158,909627,911132,906626,662944,906626,visual_patterns,0,0,0,yes,1366
undefined,undefined,undefined,undefined,white,no,Mozilla,Netscape,"5.0 (Windows NT 10.0; Win64; x64) AppleWebKit/537.36 (KHTML, like Gecko) Chrome/99.0.4844.51 Safari/537.36",xpyriment,legacy,legacy,0,uniform,0,0,0,0,24,24,24,0,0,74,74,74,74,74,0,74,0,41,41,41,41,41,0,41,12-02-22,12-02-22,11:58:56,Sat Mar 12 2022 11:58:56 GMT+0100 (közép-európai téli idő),The main experiment item,yes,0,0,C:/Users/rrics/Documents/!!ResearchBMECOGSCI/gnet,0,0,0,prototype1.png,no,mono,no,18,no,black,no,no,768,1193,3.5.6,legacy,xpyriment,osweb,1.3.13,0,space,space,space,space,62989,29895,30782,62989,2,legacy,728,1366,24,768,24,0,0,1366,1647082751244,1024,2,48000,-16,experiment,p9sarr3.png,1,odd,Win32,158,141877,138861,158,158,661434,662941,656434,143395,656434,158,914140,915649,911142,662944,911142,visual_patterns,0,0,0,yes,1366
undefined,undefined,undefined,undefined,white,no,Mozilla,Netscape,"5.0 (Windows NT 10.0; Win64; x64) AppleWebKit/537.36 (KHTML, like Gecko) Chrome/99.0.4844.51 Safari/537.36",xpyriment,legacy,legacy,0,uniform,0,0,0,0,24,24,24,0,0,74,74,74,74,74,0,74,0,42,42,42,42,42,0,42,12-02-22,12-02-22,11:58:56,Sat Mar 12 2022 11:58:56 GMT+0100 (közép-európai téli idő),The main experiment item,yes,0,0,C:/Users/rrics/Documents/!!ResearchBMECOGSCI/gnet,0,0,0,prototype1.png,no,mono,no,18,no,black,no,no,768,1193,3.5.6,legacy,xpyriment,osweb,1.3.13,0,space,space,space,space,62989,29895,30782,62989,2,legacy,728,1366,24,768,24,0,0,1366,1647082751244,1024,2,48000,-16,experiment,p10sarr4.png,1,odd,Win32,158,141877,138861,158,158,661434,662941,656434,143395,656434,158,918659,920166,915658,662944,915658,visual_patterns,0,0,0,yes,1366
undefined,undefined,undefined,undefined,white,no,Mozilla,Netscape,"5.0 (Windows NT 10.0; Win64; x64) AppleWebKit/537.36 (KHTML, like Gecko) Chrome/99.0.4844.51 Safari/537.36",xpyriment,legacy,legacy,0,uniform,0,0,0,0,24,24,24,0,0,74,74,74,74,74,0,74,0,43,43,43,43,43,0,43,12-02-22,12-02-22,11:58:56,Sat Mar 12 2022 11:58:56 GMT+0100 (közép-európai téli idő),The main experiment item,yes,0,0,C:/Users/rrics/Documents/!!ResearchBMECOGSCI/gnet,0,0,0,prototype1.png,no,mono,no,18,no,black,no,no,768,1193,3.5.6,legacy,xpyriment,osweb,1.3.13,0,space,space,space,space,62989,29895,30782,62989,2,legacy,728,1366,24,768,24,0,0,1366,1647082751244,1024,2,48000,-16,experiment,p4sarrcol1.png,1,odd,Win32,158,141877,138861,158,158,661434,662941,656434,143395,656434,158,923177,924683,920174,662944,920174,visual_patterns,0,0,0,yes,1366
undefined,undefined,undefined,undefined,white,no,Mozilla,Netscape,"5.0 (Windows NT 10.0; Win64; x64) AppleWebKit/537.36 (KHTML, like Gecko) Chrome/99.0.4844.51 Safari/537.36",xpyriment,legacy,legacy,0,uniform,0,0,0,0,24,24,24,0,0,74,74,74,74,74,0,74,0,44,44,44,44,44,0,44,12-02-22,12-02-22,11:58:56,Sat Mar 12 2022 11:58:56 GMT+0100 (közép-európai téli idő),The main experiment item,yes,0,0,C:/Users/rrics/Documents/!!ResearchBMECOGSCI/gnet,0,0,0,prototype1.png,no,mono,no,18,no,black,no,no,768,1193,3.5.6,legacy,xpyriment,osweb,1.3.13,0,space,space,space,space,62989,29895,30782,62989,2,legacy,728,1366,24,768,24,0,0,1366,1647082751244,1024,2,48000,-16,experiment,p5sarrshacol4.png,1,odd,Win32,158,141877,138861,158,158,661434,662941,656434,143395,656434,158,927691,929199,924692,662944,924692,visual_patterns,0,0,0,yes,1366
undefined,undefined,undefined,undefined,white,no,Mozilla,Netscape,"5.0 (Windows NT 10.0; Win64; x64) AppleWebKit/537.36 (KHTML, like Gecko) Chrome/99.0.4844.51 Safari/537.36",xpyriment,legacy,legacy,0,uniform,0,0,0,0,24,24,24,0,0,74,74,74,74,74,0,74,0,45,45,45,45,45,0,45,12-02-22,12-02-22,11:58:56,Sat Mar 12 2022 11:58:56 GMT+0100 (közép-európai téli idő),The main experiment item,yes,0,0,C:/Users/rrics/Documents/!!ResearchBMECOGSCI/gnet,0,0,0,prototype1.png,no,mono,no,18,no,black,no,no,768,1193,3.5.6,legacy,xpyriment,osweb,1.3.13,0,space,space,space,space,62989,29895,30782,62989,2,legacy,728,1366,24,768,24,0,0,1366,1647082751244,1024,2,48000,-16,experiment,p3sarr3.png,1,odd,Win32,158,141877,138861,158,158,661434,662941,656434,143395,656434,158,932207,933716,929210,662944,929210,visual_patterns,0,0,0,yes,1366
undefined,undefined,undefined,undefined,white,no,Mozilla,Netscape,"5.0 (Windows NT 10.0; Win64; x64) AppleWebKit/537.36 (KHTML, like Gecko) Chrome/99.0.4844.51 Safari/537.36",xpyriment,legacy,legacy,0,uniform,0,0,0,0,24,24,24,0,0,74,74,74,74,74,0,74,0,46,46,46,46,46,0,46,12-02-22,12-02-22,11:58:56,Sat Mar 12 2022 11:58:56 GMT+0100 (közép-európai téli idő),The main experiment item,yes,0,0,C:/Users/rrics/Documents/!!ResearchBMECOGSCI/gnet,0,0,0,prototype1.png,no,mono,no,18,no,black,no,no,768,1193,3.5.6,legacy,xpyriment,osweb,1.3.13,0,space,space,space,space,62989,29895,30782,62989,2,legacy,728,1366,24,768,24,0,0,1366,1647082751244,1024,2,48000,-16,experiment,p2sarr3.png,1,odd,Win32,158,141877,138861,158,158,661434,662941,656434,143395,656434,158,936725,938233,933727,662944,933727,visual_patterns,0,0,0,yes,1366
undefined,undefined,undefined,undefined,white,no,Mozilla,Netscape,"5.0 (Windows NT 10.0; Win64; x64) AppleWebKit/537.36 (KHTML, like Gecko) Chrome/99.0.4844.51 Safari/537.36",xpyriment,legacy,legacy,0,uniform,0,0,0,0,24,24,24,0,0,74,74,74,74,74,0,74,0,47,47,47,47,47,0,47,12-02-22,12-02-22,11:58:56,Sat Mar 12 2022 11:58:56 GMT+0100 (közép-európai téli idő),The main experiment item,yes,0,0,C:/Users/rrics/Documents/!!ResearchBMECOGSCI/gnet,0,0,0,prototype1.png,no,mono,no,18,no,black,no,no,768,1193,3.5.6,legacy,xpyriment,osweb,1.3.13,0,space,space,space,space,62989,29895,30782,62989,2,legacy,728,1366,24,768,24,0,0,1366,1647082751244,1024,2,48000,-16,experiment,p4sarr2.png,1,odd,Win32,158,141877,138861,158,158,661434,662941,656434,143395,656434,158,941241,942750,938241,662944,938241,visual_patterns,0,0,0,yes,1366
undefined,undefined,undefined,undefined,white,no,Mozilla,Netscape,"5.0 (Windows NT 10.0; Win64; x64) AppleWebKit/537.36 (KHTML, like Gecko) Chrome/99.0.4844.51 Safari/537.36",xpyriment,legacy,legacy,0,uniform,0,0,0,0,24,24,24,0,0,74,74,74,74,74,0,74,0,48,48,48,48,48,0,48,12-02-22,12-02-22,11:58:56,Sat Mar 12 2022 11:58:56 GMT+0100 (közép-európai téli idő),The main experiment item,yes,0,0,C:/Users/rrics/Documents/!!ResearchBMECOGSCI/gnet,0,0,0,prototype1.png,no,mono,no,18,no,black,no,no,768,1193,3.5.6,legacy,xpyriment,osweb,1.3.13,0,space,space,space,space,62989,29895,30782,62989,2,legacy,728,1366,24,768,24,0,0,1366,1647082751244,1024,2,48000,-16,experiment,p2sarrshacol3.png,1,odd,Win32,158,141877,138861,158,158,661434,662941,656434,143395,656434,158,945761,947267,942760,662944,942760,visual_patterns,0,0,0,yes,1366
