acc,accuracy,average_response_time,avg_rt,background,bidi,browser_codename,browser_name,browser_version,canvas_backend,clock_backend,color_backend,compensation,coordinates,count_end,count_experiment,count_osweb,count_prestudy,count_prestudy_isi,count_prestudy_sequence,count_prestudy_stimpres,count_start,count_study,count_study_coroutines,count_study_isi,count_study_logger,count_study_response,count_study_sequence,count_study_start,count_study_stimpres,count_test,count_test_coroutines,count_test_isi,count_test_logger,count_test_response,count_test_sequence,count_test_start,count_test_stimpres,date_startdate,date_startdateUTC,date_starttime,datetime,description,disable_garbage_collection,experiment_debug,experiment_parameters,experiment_path,experiment_pilot,experiment_taskname,experiment_taskversion,fampict,font_bold,font_family,font_italic,font_size,font_underline,foreground,form_clicks,fullscreen,height,jatosStudyResultId,jatosVersion,keyboard_backend,mouse_backend,opensesame_codename,opensesame_version,repeat_cycle,response,response_start,response_study_start,response_test_start,response_time,response_time_start,response_time_study_start,response_time_test_start,round_decimals,sampler_backend,screen_availableHeight,screen_availableWidth,screen_colorDepth,screen_height,screen_pixelDepth,screen_screenX,screen_screenY,screen_width,sessionid,sound_buf_size,sound_channels,sound_freq,sound_sample_size,start,stim,subject_nr,subject_parity,system_os,time_prestudy,time_prestudy_isi,time_prestudy_stimpres,time_start,time_study,time_study_isi,time_study_logger,time_study_response,time_study_start,time_study_stimpres,time_test,time_test_isi,time_test_logger,time_test_response,time_test_start,time_test_stimpres,title,total_correct,total_response_time,total_responses,uniform_coordinates,width
undefined,undefined,undefined,undefined,white,no,Mozilla,Netscape,"5.0 (Windows NT 10.0; Win64; x64) AppleWebKit/537.36 (KHTML, like Gecko) Chrome/97.0.4692.71 Safari/537.36 Edg/97.0.1072.62",xpyriment,legacy,legacy,0,uniform,0,0,0,0,24,24,24,0,0,0,0,0,0,0,0,0,0,,,,,,0,,12-02-22,12-02-22,13:53:48,Sat Mar 12 2022 13:53:48 GMT+0100 (Central European Standard Time),The main experiment item,yes,0,0,C:/Users/rrics/Documents/!!ResearchBMECOGSCI/gnet,0,0,0,prototype5.png,no,mono,no,18,no,black,no,no,768,1197,3.5.6,legacy,xpyriment,osweb,1.3.13,0,enter,space,enter,,20108,11746,20108,,2,legacy,680,1280,24,720,24,0,0,1280,1647089685134,1024,2,48000,-16,experiment,p6sarr1.png,1,odd,Win32,93,123675,120661,93,93,150321,151840,145322,125195,145322,93,,,,,,visual_patterns,0,0,0,yes,1366
undefined,undefined,undefined,undefined,white,no,Mozilla,Netscape,"5.0 (Windows NT 10.0; Win64; x64) AppleWebKit/537.36 (KHTML, like Gecko) Chrome/97.0.4692.71 Safari/537.36 Edg/97.0.1072.62",xpyriment,legacy,legacy,0,uniform,0,0,0,0,24,24,24,0,0,1,1,1,1,1,0,1,0,,,,,,0,,12-02-22,12-02-22,13:53:48,Sat Mar 12 2022 13:53:48 GMT+0100 (Central European Standard Time),The main experiment item,yes,0,0,C:/Users/rrics/Documents/!!ResearchBMECOGSCI/gnet,0,0,0,prototype5.png,no,mono,no,18,no,black,no,no,768,1197,3.5.6,legacy,xpyriment,osweb,1.3.13,0,enter,space,enter,,20108,11746,20108,,2,legacy,680,1280,24,720,24,0,0,1280,1647089685134,1024,2,48000,-16,experiment,prototype3.png,1,odd,Win32,93,123675,120661,93,93,156856,158369,151857,125195,151857,93,,,,,,visual_patterns,0,0,0,yes,1366
undefined,undefined,undefined,undefined,white,no,Mozilla,Netscape,"5.0 (Windows NT 10.0; Win64; x64) AppleWebKit/537.36 (KHTML, like Gecko) Chrome/97.0.4692.71 Safari/537.36 Edg/97.0.1072.62",xpyriment,legacy,legacy,0,uniform,0,0,0,0,24,24,24,0,0,2,2,2,2,2,0,2,0,,,,,,0,,12-02-22,12-02-22,13:53:48,Sat Mar 12 2022 13:53:48 GMT+0100 (Central European Standard Time),The main experiment item,yes,0,0,C:/Users/rrics/Documents/!!ResearchBMECOGSCI/gnet,0,0,0,prototype5.png,no,mono,no,18,no,black,no,no,768,1197,3.5.6,legacy,xpyriment,osweb,1.3.13,0,enter,space,enter,,20108,11746,20108,,2,legacy,680,1280,24,720,24,0,0,1280,1647089685134,1024,2,48000,-16,experiment,p3sarr1.png,1,odd,Win32,93,123675,120661,93,93,163374,164886,158374,125195,158374,93,,,,,,visual_patterns,0,0,0,yes,1366
undefined,undefined,undefined,undefined,white,no,Mozilla,Netscape,"5.0 (Windows NT 10.0; Win64; x64) AppleWebKit/537.36 (KHTML, like Gecko) Chrome/97.0.4692.71 Safari/537.36 Edg/97.0.1072.62",xpyriment,legacy,legacy,0,uniform,0,0,0,0,24,24,24,0,0,3,3,3,3,3,0,3,0,,,,,,0,,12-02-22,12-02-22,13:53:48,Sat Mar 12 2022 13:53:48 GMT+0100 (Central European Standard Time),The main experiment item,yes,0,0,C:/Users/rrics/Documents/!!ResearchBMECOGSCI/gnet,0,0,0,prototype5.png,no,mono,no,18,no,black,no,no,768,1197,3.5.6,legacy,xpyriment,osweb,1.3.13,0,enter,space,enter,,20108,11746,20108,,2,legacy,680,1280,24,720,24,0,0,1280,1647089685134,1024,2,48000,-16,experiment,p9sarr2.png,1,odd,Win32,93,123675,120661,93,93,169902,171418,164903,125195,164903,93,,,,,,visual_patterns,0,0,0,yes,1366
undefined,undefined,undefined,undefined,white,no,Mozilla,Netscape,"5.0 (Windows NT 10.0; Win64; x64) AppleWebKit/537.36 (KHTML, like Gecko) Chrome/97.0.4692.71 Safari/537.36 Edg/97.0.1072.62",xpyriment,legacy,legacy,0,uniform,0,0,0,0,24,24,24,0,0,4,4,4,4,4,0,4,0,,,,,,0,,12-02-22,12-02-22,13:53:48,Sat Mar 12 2022 13:53:48 GMT+0100 (Central European Standard Time),The main experiment item,yes,0,0,C:/Users/rrics/Documents/!!ResearchBMECOGSCI/gnet,0,0,0,prototype5.png,no,mono,no,18,no,black,no,no,768,1197,3.5.6,legacy,xpyriment,osweb,1.3.13,0,enter,space,enter,,20108,11746,20108,,2,legacy,680,1280,24,720,24,0,0,1280,1647089685134,1024,2,48000,-16,experiment,p4sarr2.png,1,odd,Win32,93,123675,120661,93,93,176435,177951,171436,125195,171436,93,,,,,,visual_patterns,0,0,0,yes,1366
undefined,undefined,undefined,undefined,white,no,Mozilla,Netscape,"5.0 (Windows NT 10.0; Win64; x64) AppleWebKit/537.36 (KHTML, like Gecko) Chrome/97.0.4692.71 Safari/537.36 Edg/97.0.1072.62",xpyriment,legacy,legacy,0,uniform,0,0,0,0,24,24,24,0,0,5,5,5,5,5,0,5,0,,,,,,0,,12-02-22,12-02-22,13:53:48,Sat Mar 12 2022 13:53:48 GMT+0100 (Central European Standard Time),The main experiment item,yes,0,0,C:/Users/rrics/Documents/!!ResearchBMECOGSCI/gnet,0,0,0,prototype5.png,no,mono,no,18,no,black,no,no,768,1197,3.5.6,legacy,xpyriment,osweb,1.3.13,0,enter,space,enter,,20108,11746,20108,,2,legacy,680,1280,24,720,24,0,0,1280,1647089685134,1024,2,48000,-16,experiment,p4sarrshacol2.png,1,odd,Win32,93,123675,120661,93,93,182966,184467,177966,125195,177966,93,,,,,,visual_patterns,0,0,0,yes,1366
undefined,undefined,undefined,undefined,white,no,Mozilla,Netscape,"5.0 (Windows NT 10.0; Win64; x64) AppleWebKit/537.36 (KHTML, like Gecko) Chrome/97.0.4692.71 Safari/537.36 Edg/97.0.1072.62",xpyriment,legacy,legacy,0,uniform,0,0,0,0,24,24,24,0,0,6,6,6,6,6,0,6,0,,,,,,0,,12-02-22,12-02-22,13:53:48,Sat Mar 12 2022 13:53:48 GMT+0100 (Central European Standard Time),The main experiment item,yes,0,0,C:/Users/rrics/Documents/!!ResearchBMECOGSCI/gnet,0,0,0,prototype5.png,no,mono,no,18,no,black,no,no,768,1197,3.5.6,legacy,xpyriment,osweb,1.3.13,0,enter,space,enter,,20108,11746,20108,,2,legacy,680,1280,24,720,24,0,0,1280,1647089685134,1024,2,48000,-16,experiment,p5sarrsha2.png,1,odd,Win32,93,123675,120661,93,93,189482,190998,184485,125195,184485,93,,,,,,visual_patterns,0,0,0,yes,1366
undefined,undefined,undefined,undefined,white,no,Mozilla,Netscape,"5.0 (Windows NT 10.0; Win64; x64) AppleWebKit/537.36 (KHTML, like Gecko) Chrome/97.0.4692.71 Safari/537.36 Edg/97.0.1072.62",xpyriment,legacy,legacy,0,uniform,0,0,0,0,24,24,24,0,0,7,7,7,7,7,0,7,0,,,,,,0,,12-02-22,12-02-22,13:53:48,Sat Mar 12 2022 13:53:48 GMT+0100 (Central European Standard Time),The main experiment item,yes,0,0,C:/Users/rrics/Documents/!!ResearchBMECOGSCI/gnet,0,0,0,prototype5.png,no,mono,no,18,no,black,no,no,768,1197,3.5.6,legacy,xpyriment,osweb,1.3.13,0,enter,space,enter,,20108,11746,20108,,2,legacy,680,1280,24,720,24,0,0,1280,1647089685134,1024,2,48000,-16,experiment,p2sarr1.png,1,odd,Win32,93,123675,120661,93,93,196009,197515,191008,125195,191008,93,,,,,,visual_patterns,0,0,0,yes,1366
undefined,undefined,undefined,undefined,white,no,Mozilla,Netscape,"5.0 (Windows NT 10.0; Win64; x64) AppleWebKit/537.36 (KHTML, like Gecko) Chrome/97.0.4692.71 Safari/537.36 Edg/97.0.1072.62",xpyriment,legacy,legacy,0,uniform,0,0,0,0,24,24,24,0,0,8,8,8,8,8,0,8,0,,,,,,0,,12-02-22,12-02-22,13:53:48,Sat Mar 12 2022 13:53:48 GMT+0100 (Central European Standard Time),The main experiment item,yes,0,0,C:/Users/rrics/Documents/!!ResearchBMECOGSCI/gnet,0,0,0,prototype5.png,no,mono,no,18,no,black,no,no,768,1197,3.5.6,legacy,xpyriment,osweb,1.3.13,0,enter,space,enter,,20108,11746,20108,,2,legacy,680,1280,24,720,24,0,0,1280,1647089685134,1024,2,48000,-16,experiment,prototype4.png,1,odd,Win32,93,123675,120661,93,93,202534,204047,197530,125195,197530,93,,,,,,visual_patterns,0,0,0,yes,1366
undefined,undefined,undefined,undefined,white,no,Mozilla,Netscape,"5.0 (Windows NT 10.0; Win64; x64) AppleWebKit/537.36 (KHTML, like Gecko) Chrome/97.0.4692.71 Safari/537.36 Edg/97.0.1072.62",xpyriment,legacy,legacy,0,uniform,0,0,0,0,24,24,24,0,0,9,9,9,9,9,0,9,0,,,,,,0,,12-02-22,12-02-22,13:53:48,Sat Mar 12 2022 13:53:48 GMT+0100 (Central European Standard Time),The main experiment item,yes,0,0,C:/Users/rrics/Documents/!!ResearchBMECOGSCI/gnet,0,0,0,prototype5.png,no,mono,no,18,no,black,no,no,768,1197,3.5.6,legacy,xpyriment,osweb,1.3.13,0,enter,space,enter,,20108,11746,20108,,2,legacy,680,1280,24,720,24,0,0,1280,1647089685134,1024,2,48000,-16,experiment,p5sarrsha1.png,1,odd,Win32,93,123675,120661,93,93,209061,210564,204062,125195,204062,93,,,,,,visual_patterns,0,0,0,yes,1366
undefined,undefined,undefined,undefined,white,no,Mozilla,Netscape,"5.0 (Windows NT 10.0; Win64; x64) AppleWebKit/537.36 (KHTML, like Gecko) Chrome/97.0.4692.71 Safari/537.36 Edg/97.0.1072.62",xpyriment,legacy,legacy,0,uniform,0,0,0,0,24,24,24,0,0,10,10,10,10,10,0,10,0,,,,,,0,,12-02-22,12-02-22,13:53:48,Sat Mar 12 2022 13:53:48 GMT+0100 (Central European Standard Time),The main experiment item,yes,0,0,C:/Users/rrics/Documents/!!ResearchBMECOGSCI/gnet,0,0,0,prototype5.png,no,mono,no,18,no,black,no,no,768,1197,3.5.6,legacy,xpyriment,osweb,1.3.13,0,enter,space,enter,,20108,11746,20108,,2,legacy,680,1280,24,720,24,0,0,1280,1647089685134,1024,2,48000,-16,experiment,p5sarrcol1.png,1,odd,Win32,93,123675,120661,93,93,215582,217096,210581,125195,210581,93,,,,,,visual_patterns,0,0,0,yes,1366
undefined,undefined,undefined,undefined,white,no,Mozilla,Netscape,"5.0 (Windows NT 10.0; Win64; x64) AppleWebKit/537.36 (KHTML, like Gecko) Chrome/97.0.4692.71 Safari/537.36 Edg/97.0.1072.62",xpyriment,legacy,legacy,0,uniform,0,0,0,0,24,24,24,0,0,11,11,11,11,11,0,11,0,,,,,,0,,12-02-22,12-02-22,13:53:48,Sat Mar 12 2022 13:53:48 GMT+0100 (Central European Standard Time),The main experiment item,yes,0,0,C:/Users/rrics/Documents/!!ResearchBMECOGSCI/gnet,0,0,0,prototype5.png,no,mono,no,18,no,black,no,no,768,1197,3.5.6,legacy,xpyriment,osweb,1.3.13,0,enter,space,enter,,20108,11746,20108,,2,legacy,680,1280,24,720,24,0,0,1280,1647089685134,1024,2,48000,-16,experiment,p8sarr2.png,1,odd,Win32,93,123675,120661,93,93,222110,223611,217110,125195,217110,93,,,,,,visual_patterns,0,0,0,yes,1366
undefined,undefined,undefined,undefined,white,no,Mozilla,Netscape,"5.0 (Windows NT 10.0; Win64; x64) AppleWebKit/537.36 (KHTML, like Gecko) Chrome/97.0.4692.71 Safari/537.36 Edg/97.0.1072.62",xpyriment,legacy,legacy,0,uniform,0,0,0,0,24,24,24,0,0,12,12,12,12,12,0,12,0,,,,,,0,,12-02-22,12-02-22,13:53:48,Sat Mar 12 2022 13:53:48 GMT+0100 (Central European Standard Time),The main experiment item,yes,0,0,C:/Users/rrics/Documents/!!ResearchBMECOGSCI/gnet,0,0,0,prototype5.png,no,mono,no,18,no,black,no,no,768,1197,3.5.6,legacy,xpyriment,osweb,1.3.13,0,enter,space,enter,,20108,11746,20108,,2,legacy,680,1280,24,720,24,0,0,1280,1647089685134,1024,2,48000,-16,experiment,p5sarrshacol2.png,1,odd,Win32,93,123675,120661,93,93,228626,230127,223627,125195,223627,93,,,,,,visual_patterns,0,0,0,yes,1366
undefined,undefined,undefined,undefined,white,no,Mozilla,Netscape,"5.0 (Windows NT 10.0; Win64; x64) AppleWebKit/537.36 (KHTML, like Gecko) Chrome/97.0.4692.71 Safari/537.36 Edg/97.0.1072.62",xpyriment,legacy,legacy,0,uniform,0,0,0,0,24,24,24,0,0,13,13,13,13,13,0,13,0,,,,,,0,,12-02-22,12-02-22,13:53:48,Sat Mar 12 2022 13:53:48 GMT+0100 (Central European Standard Time),The main experiment item,yes,0,0,C:/Users/rrics/Documents/!!ResearchBMECOGSCI/gnet,0,0,0,prototype5.png,no,mono,no,18,no,black,no,no,768,1197,3.5.6,legacy,xpyriment,osweb,1.3.13,0,enter,space,enter,,20108,11746,20108,,2,legacy,680,1280,24,720,24,0,0,1280,1647089685134,1024,2,48000,-16,experiment,p8sarr1.png,1,odd,Win32,93,123675,120661,93,93,235142,236643,230145,125195,230144,93,,,,,,visual_patterns,0,0,0,yes,1366
undefined,undefined,undefined,undefined,white,no,Mozilla,Netscape,"5.0 (Windows NT 10.0; Win64; x64) AppleWebKit/537.36 (KHTML, like Gecko) Chrome/97.0.4692.71 Safari/537.36 Edg/97.0.1072.62",xpyriment,legacy,legacy,0,uniform,0,0,0,0,24,24,24,0,0,14,14,14,14,14,0,14,0,,,,,,0,,12-02-22,12-02-22,13:53:48,Sat Mar 12 2022 13:53:48 GMT+0100 (Central European Standard Time),The main experiment item,yes,0,0,C:/Users/rrics/Documents/!!ResearchBMECOGSCI/gnet,0,0,0,prototype5.png,no,mono,no,18,no,black,no,no,768,1197,3.5.6,legacy,xpyriment,osweb,1.3.13,0,enter,space,enter,,20108,11746,20108,,2,legacy,680,1280,24,720,24,0,0,1280,1647089685134,1024,2,48000,-16,experiment,p3sarrcol1.png,1,odd,Win32,93,123675,120661,93,93,241652,243159,236654,125195,236654,93,,,,,,visual_patterns,0,0,0,yes,1366
undefined,undefined,undefined,undefined,white,no,Mozilla,Netscape,"5.0 (Windows NT 10.0; Win64; x64) AppleWebKit/537.36 (KHTML, like Gecko) Chrome/97.0.4692.71 Safari/537.36 Edg/97.0.1072.62",xpyriment,legacy,legacy,0,uniform,0,0,0,0,24,24,24,0,0,15,15,15,15,15,0,15,0,,,,,,0,,12-02-22,12-02-22,13:53:48,Sat Mar 12 2022 13:53:48 GMT+0100 (Central European Standard Time),The main experiment item,yes,0,0,C:/Users/rrics/Documents/!!ResearchBMECOGSCI/gnet,0,0,0,prototype5.png,no,mono,no,18,no,black,no,no,768,1197,3.5.6,legacy,xpyriment,osweb,1.3.13,0,enter,space,enter,,20108,11746,20108,,2,legacy,680,1280,24,720,24,0,0,1280,1647089685134,1024,2,48000,-16,experiment,prototype1.png,1,odd,Win32,93,123675,120661,93,93,248174,249690,243175,125195,243175,93,,,,,,visual_patterns,0,0,0,yes,1366
undefined,undefined,undefined,undefined,white,no,Mozilla,Netscape,"5.0 (Windows NT 10.0; Win64; x64) AppleWebKit/537.36 (KHTML, like Gecko) Chrome/97.0.4692.71 Safari/537.36 Edg/97.0.1072.62",xpyriment,legacy,legacy,0,uniform,0,0,0,0,24,24,24,0,0,16,16,16,16,16,0,16,0,,,,,,0,,12-02-22,12-02-22,13:53:48,Sat Mar 12 2022 13:53:48 GMT+0100 (Central European Standard Time),The main experiment item,yes,0,0,C:/Users/rrics/Documents/!!ResearchBMECOGSCI/gnet,0,0,0,prototype5.png,no,mono,no,18,no,black,no,no,768,1197,3.5.6,legacy,xpyriment,osweb,1.3.13,0,enter,space,enter,,20108,11746,20108,,2,legacy,680,1280,24,720,24,0,0,1280,1647089685134,1024,2,48000,-16,experiment,p2sarr2.png,1,odd,Win32,93,123675,120661,93,93,254696,256207,249696,125195,249696,93,,,,,,visual_patterns,0,0,0,yes,1366
undefined,undefined,undefined,undefined,white,no,Mozilla,Netscape,"5.0 (Windows NT 10.0; Win64; x64) AppleWebKit/537.36 (KHTML, like Gecko) Chrome/97.0.4692.71 Safari/537.36 Edg/97.0.1072.62",xpyriment,legacy,legacy,0,uniform,0,0,0,0,24,24,24,0,0,17,17,17,17,17,0,17,0,,,,,,0,,12-02-22,12-02-22,13:53:48,Sat Mar 12 2022 13:53:48 GMT+0100 (Central European Standard Time),The main experiment item,yes,0,0,C:/Users/rrics/Documents/!!ResearchBMECOGSCI/gnet,0,0,0,prototype5.png,no,mono,no,18,no,black,no,no,768,1197,3.5.6,legacy,xpyriment,osweb,1.3.13,0,enter,space,enter,,20108,11746,20108,,2,legacy,680,1280,24,720,24,0,0,1280,1647089685134,1024,2,48000,-16,experiment,p3sarrsha2.png,1,odd,Win32,93,123675,120661,93,93,261234,262740,256234,125195,256234,93,,,,,,visual_patterns,0,0,0,yes,1366
undefined,undefined,undefined,undefined,white,no,Mozilla,Netscape,"5.0 (Windows NT 10.0; Win64; x64) AppleWebKit/537.36 (KHTML, like Gecko) Chrome/97.0.4692.71 Safari/537.36 Edg/97.0.1072.62",xpyriment,legacy,legacy,0,uniform,0,0,0,0,24,24,24,0,0,18,18,18,18,18,0,18,0,,,,,,0,,12-02-22,12-02-22,13:53:48,Sat Mar 12 2022 13:53:48 GMT+0100 (Central European Standard Time),The main experiment item,yes,0,0,C:/Users/rrics/Documents/!!ResearchBMECOGSCI/gnet,0,0,0,prototype5.png,no,mono,no,18,no,black,no,no,768,1197,3.5.6,legacy,xpyriment,osweb,1.3.13,0,enter,space,enter,,20108,11746,20108,,2,legacy,680,1280,24,720,24,0,0,1280,1647089685134,1024,2,48000,-16,experiment,prototype4.png,1,odd,Win32,93,123675,120661,93,93,267757,269272,262754,125195,262754,93,,,,,,visual_patterns,0,0,0,yes,1366
undefined,undefined,undefined,undefined,white,no,Mozilla,Netscape,"5.0 (Windows NT 10.0; Win64; x64) AppleWebKit/537.36 (KHTML, like Gecko) Chrome/97.0.4692.71 Safari/537.36 Edg/97.0.1072.62",xpyriment,legacy,legacy,0,uniform,0,0,0,0,24,24,24,0,0,19,19,19,19,19,0,19,0,,,,,,0,,12-02-22,12-02-22,13:53:48,Sat Mar 12 2022 13:53:48 GMT+0100 (Central European Standard Time),The main experiment item,yes,0,0,C:/Users/rrics/Documents/!!ResearchBMECOGSCI/gnet,0,0,0,prototype5.png,no,mono,no,18,no,black,no,no,768,1197,3.5.6,legacy,xpyriment,osweb,1.3.13,0,enter,space,enter,,20108,11746,20108,,2,legacy,680,1280,24,720,24,0,0,1280,1647089685134,1024,2,48000,-16,experiment,p3sarrsha1.png,1,odd,Win32,93,123675,120661,93,93,274287,275788,269285,125195,269285,93,,,,,,visual_patterns,0,0,0,yes,1366
undefined,undefined,undefined,undefined,white,no,Mozilla,Netscape,"5.0 (Windows NT 10.0; Win64; x64) AppleWebKit/537.36 (KHTML, like Gecko) Chrome/97.0.4692.71 Safari/537.36 Edg/97.0.1072.62",xpyriment,legacy,legacy,0,uniform,0,0,0,0,24,24,24,0,0,20,20,20,20,20,0,20,0,,,,,,0,,12-02-22,12-02-22,13:53:48,Sat Mar 12 2022 13:53:48 GMT+0100 (Central European Standard Time),The main experiment item,yes,0,0,C:/Users/rrics/Documents/!!ResearchBMECOGSCI/gnet,0,0,0,prototype5.png,no,mono,no,18,no,black,no,no,768,1197,3.5.6,legacy,xpyriment,osweb,1.3.13,0,enter,space,enter,,20108,11746,20108,,2,legacy,680,1280,24,720,24,0,0,1280,1647089685134,1024,2,48000,-16,experiment,prototype2.png,1,odd,Win32,93,123675,120661,93,93,280805,282320,275802,125195,275802,93,,,,,,visual_patterns,0,0,0,yes,1366
undefined,undefined,undefined,undefined,white,no,Mozilla,Netscape,"5.0 (Windows NT 10.0; Win64; x64) AppleWebKit/537.36 (KHTML, like Gecko) Chrome/97.0.4692.71 Safari/537.36 Edg/97.0.1072.62",xpyriment,legacy,legacy,0,uniform,0,0,0,0,24,24,24,0,0,21,21,21,21,21,0,21,0,,,,,,0,,12-02-22,12-02-22,13:53:48,Sat Mar 12 2022 13:53:48 GMT+0100 (Central European Standard Time),The main experiment item,yes,0,0,C:/Users/rrics/Documents/!!ResearchBMECOGSCI/gnet,0,0,0,prototype5.png,no,mono,no,18,no,black,no,no,768,1197,3.5.6,legacy,xpyriment,osweb,1.3.13,0,enter,space,enter,,20108,11746,20108,,2,legacy,680,1280,24,720,24,0,0,1280,1647089685134,1024,2,48000,-16,experiment,p4sarrcol2.png,1,odd,Win32,93,123675,120661,93,93,287335,288836,282334,125195,282334,93,,,,,,visual_patterns,0,0,0,yes,1366
undefined,undefined,undefined,undefined,white,no,Mozilla,Netscape,"5.0 (Windows NT 10.0; Win64; x64) AppleWebKit/537.36 (KHTML, like Gecko) Chrome/97.0.4692.71 Safari/537.36 Edg/97.0.1072.62",xpyriment,legacy,legacy,0,uniform,0,0,0,0,24,24,24,0,0,22,22,22,22,22,0,22,0,,,,,,0,,12-02-22,12-02-22,13:53:48,Sat Mar 12 2022 13:53:48 GMT+0100 (Central European Standard Time),The main experiment item,yes,0,0,C:/Users/rrics/Documents/!!ResearchBMECOGSCI/gnet,0,0,0,prototype5.png,no,mono,no,18,no,black,no,no,768,1197,3.5.6,legacy,xpyriment,osweb,1.3.13,0,enter,space,enter,,20108,11746,20108,,2,legacy,680,1280,24,720,24,0,0,1280,1647089685134,1024,2,48000,-16,experiment,p5sarrshacol1.png,1,odd,Win32,93,123675,120661,93,93,293849,295351,288846,125195,288846,93,,,,,,visual_patterns,0,0,0,yes,1366
undefined,undefined,undefined,undefined,white,no,Mozilla,Netscape,"5.0 (Windows NT 10.0; Win64; x64) AppleWebKit/537.36 (KHTML, like Gecko) Chrome/97.0.4692.71 Safari/537.36 Edg/97.0.1072.62",xpyriment,legacy,legacy,0,uniform,0,0,0,0,24,24,24,0,0,23,23,23,23,23,0,23,0,,,,,,0,,12-02-22,12-02-22,13:53:48,Sat Mar 12 2022 13:53:48 GMT+0100 (Central European Standard Time),The main experiment item,yes,0,0,C:/Users/rrics/Documents/!!ResearchBMECOGSCI/gnet,0,0,0,prototype5.png,no,mono,no,18,no,black,no,no,768,1197,3.5.6,legacy,xpyriment,osweb,1.3.13,0,enter,space,enter,,20108,11746,20108,,2,legacy,680,1280,24,720,24,0,0,1280,1647089685134,1024,2,48000,-16,experiment,prototype2.png,1,odd,Win32,93,123675,120661,93,93,300359,301867,295355,125195,295355,93,,,,,,visual_patterns,0,0,0,yes,1366
undefined,undefined,undefined,undefined,white,no,Mozilla,Netscape,"5.0 (Windows NT 10.0; Win64; x64) AppleWebKit/537.36 (KHTML, like Gecko) Chrome/97.0.4692.71 Safari/537.36 Edg/97.0.1072.62",xpyriment,legacy,legacy,0,uniform,0,0,0,0,24,24,24,0,0,24,24,24,24,24,0,24,0,,,,,,0,,12-02-22,12-02-22,13:53:48,Sat Mar 12 2022 13:53:48 GMT+0100 (Central European Standard Time),The main experiment item,yes,0,0,C:/Users/rrics/Documents/!!ResearchBMECOGSCI/gnet,0,0,0,prototype5.png,no,mono,no,18,no,black,no,no,768,1197,3.5.6,legacy,xpyriment,osweb,1.3.13,0,enter,space,enter,,20108,11746,20108,,2,legacy,680,1280,24,720,24,0,0,1280,1647089685134,1024,2,48000,-16,experiment,p4sarrsha2.png,1,odd,Win32,93,123675,120661,93,93,306874,308384,301874,125195,301874,93,,,,,,visual_patterns,0,0,0,yes,1366
undefined,undefined,undefined,undefined,white,no,Mozilla,Netscape,"5.0 (Windows NT 10.0; Win64; x64) AppleWebKit/537.36 (KHTML, like Gecko) Chrome/97.0.4692.71 Safari/537.36 Edg/97.0.1072.62",xpyriment,legacy,legacy,0,uniform,0,0,0,0,24,24,24,0,0,25,25,25,25,25,0,25,0,,,,,,0,,12-02-22,12-02-22,13:53:48,Sat Mar 12 2022 13:53:48 GMT+0100 (Central European Standard Time),The main experiment item,yes,0,0,C:/Users/rrics/Documents/!!ResearchBMECOGSCI/gnet,0,0,0,prototype5.png,no,mono,no,18,no,black,no,no,768,1197,3.5.6,legacy,xpyriment,osweb,1.3.13,0,enter,space,enter,,20108,11746,20108,,2,legacy,680,1280,24,720,24,0,0,1280,1647089685134,1024,2,48000,-16,experiment,p9sarr1.png,1,odd,Win32,93,123675,120661,93,93,313395,314900,308397,125195,308397,93,,,,,,visual_patterns,0,0,0,yes,1366
undefined,undefined,undefined,undefined,white,no,Mozilla,Netscape,"5.0 (Windows NT 10.0; Win64; x64) AppleWebKit/537.36 (KHTML, like Gecko) Chrome/97.0.4692.71 Safari/537.36 Edg/97.0.1072.62",xpyriment,legacy,legacy,0,uniform,0,0,0,0,24,24,24,0,0,26,26,26,26,26,0,26,0,,,,,,0,,12-02-22,12-02-22,13:53:48,Sat Mar 12 2022 13:53:48 GMT+0100 (Central European Standard Time),The main experiment item,yes,0,0,C:/Users/rrics/Documents/!!ResearchBMECOGSCI/gnet,0,0,0,prototype5.png,no,mono,no,18,no,black,no,no,768,1197,3.5.6,legacy,xpyriment,osweb,1.3.13,0,enter,space,enter,,20108,11746,20108,,2,legacy,680,1280,24,720,24,0,0,1280,1647089685134,1024,2,48000,-16,experiment,prototype1.png,1,odd,Win32,93,123675,120661,93,93,319913,321415,314913,125195,314912,93,,,,,,visual_patterns,0,0,0,yes,1366
undefined,undefined,undefined,undefined,white,no,Mozilla,Netscape,"5.0 (Windows NT 10.0; Win64; x64) AppleWebKit/537.36 (KHTML, like Gecko) Chrome/97.0.4692.71 Safari/537.36 Edg/97.0.1072.62",xpyriment,legacy,legacy,0,uniform,0,0,0,0,24,24,24,0,0,27,27,27,27,27,0,27,0,,,,,,0,,12-02-22,12-02-22,13:53:48,Sat Mar 12 2022 13:53:48 GMT+0100 (Central European Standard Time),The main experiment item,yes,0,0,C:/Users/rrics/Documents/!!ResearchBMECOGSCI/gnet,0,0,0,prototype5.png,no,mono,no,18,no,black,no,no,768,1197,3.5.6,legacy,xpyriment,osweb,1.3.13,0,enter,space,enter,,20108,11746,20108,,2,legacy,680,1280,24,720,24,0,0,1280,1647089685134,1024,2,48000,-16,experiment,p4sarrcol1.png,1,odd,Win32,93,123675,120661,93,93,326443,327947,321445,125195,321445,93,,,,,,visual_patterns,0,0,0,yes,1366
undefined,undefined,undefined,undefined,white,no,Mozilla,Netscape,"5.0 (Windows NT 10.0; Win64; x64) AppleWebKit/537.36 (KHTML, like Gecko) Chrome/97.0.4692.71 Safari/537.36 Edg/97.0.1072.62",xpyriment,legacy,legacy,0,uniform,0,0,0,0,24,24,24,0,0,28,28,28,28,28,0,28,0,,,,,,0,,12-02-22,12-02-22,13:53:48,Sat Mar 12 2022 13:53:48 GMT+0100 (Central European Standard Time),The main experiment item,yes,0,0,C:/Users/rrics/Documents/!!ResearchBMECOGSCI/gnet,0,0,0,prototype5.png,no,mono,no,18,no,black,no,no,768,1197,3.5.6,legacy,xpyriment,osweb,1.3.13,0,enter,space,enter,,20108,11746,20108,,2,legacy,680,1280,24,720,24,0,0,1280,1647089685134,1024,2,48000,-16,experiment,prototype4.png,1,odd,Win32,93,123675,120661,93,93,332958,334463,327952,125195,327952,93,,,,,,visual_patterns,0,0,0,yes,1366
undefined,undefined,undefined,undefined,white,no,Mozilla,Netscape,"5.0 (Windows NT 10.0; Win64; x64) AppleWebKit/537.36 (KHTML, like Gecko) Chrome/97.0.4692.71 Safari/537.36 Edg/97.0.1072.62",xpyriment,legacy,legacy,0,uniform,0,0,0,0,24,24,24,0,0,29,29,29,29,29,0,29,0,,,,,,0,,12-02-22,12-02-22,13:53:48,Sat Mar 12 2022 13:53:48 GMT+0100 (Central European Standard Time),The main experiment item,yes,0,0,C:/Users/rrics/Documents/!!ResearchBMECOGSCI/gnet,0,0,0,prototype5.png,no,mono,no,18,no,black,no,no,768,1197,3.5.6,legacy,xpyriment,osweb,1.3.13,0,enter,space,enter,,20108,11746,20108,,2,legacy,680,1280,24,720,24,0,0,1280,1647089685134,1024,2,48000,-16,experiment,prototype5.png,1,odd,Win32,93,123675,120661,93,93,339471,340979,334467,125195,334467,93,,,,,,visual_patterns,0,0,0,yes,1366
undefined,undefined,undefined,undefined,white,no,Mozilla,Netscape,"5.0 (Windows NT 10.0; Win64; x64) AppleWebKit/537.36 (KHTML, like Gecko) Chrome/97.0.4692.71 Safari/537.36 Edg/97.0.1072.62",xpyriment,legacy,legacy,0,uniform,0,0,0,0,24,24,24,0,0,30,30,30,30,30,0,30,0,,,,,,0,,12-02-22,12-02-22,13:53:48,Sat Mar 12 2022 13:53:48 GMT+0100 (Central European Standard Time),The main experiment item,yes,0,0,C:/Users/rrics/Documents/!!ResearchBMECOGSCI/gnet,0,0,0,prototype5.png,no,mono,no,18,no,black,no,no,768,1197,3.5.6,legacy,xpyriment,osweb,1.3.13,0,enter,space,enter,,20108,11746,20108,,2,legacy,680,1280,24,720,24,0,0,1280,1647089685134,1024,2,48000,-16,experiment,p5sarrcol2.png,1,odd,Win32,93,123675,120661,93,93,345986,347496,340986,125195,340986,93,,,,,,visual_patterns,0,0,0,yes,1366
undefined,undefined,undefined,undefined,white,no,Mozilla,Netscape,"5.0 (Windows NT 10.0; Win64; x64) AppleWebKit/537.36 (KHTML, like Gecko) Chrome/97.0.4692.71 Safari/537.36 Edg/97.0.1072.62",xpyriment,legacy,legacy,0,uniform,0,0,0,0,24,24,24,0,0,31,31,31,31,31,0,31,0,,,,,,0,,12-02-22,12-02-22,13:53:48,Sat Mar 12 2022 13:53:48 GMT+0100 (Central European Standard Time),The main experiment item,yes,0,0,C:/Users/rrics/Documents/!!ResearchBMECOGSCI/gnet,0,0,0,prototype5.png,no,mono,no,18,no,black,no,no,768,1197,3.5.6,legacy,xpyriment,osweb,1.3.13,0,enter,space,enter,,20108,11746,20108,,2,legacy,680,1280,24,720,24,0,0,1280,1647089685134,1024,2,48000,-16,experiment,p2sarrsha2.png,1,odd,Win32,93,123675,120661,93,93,352509,354011,347513,125195,347513,93,,,,,,visual_patterns,0,0,0,yes,1366
undefined,undefined,undefined,undefined,white,no,Mozilla,Netscape,"5.0 (Windows NT 10.0; Win64; x64) AppleWebKit/537.36 (KHTML, like Gecko) Chrome/97.0.4692.71 Safari/537.36 Edg/97.0.1072.62",xpyriment,legacy,legacy,0,uniform,0,0,0,0,24,24,24,0,0,32,32,32,32,32,0,32,0,,,,,,0,,12-02-22,12-02-22,13:53:48,Sat Mar 12 2022 13:53:48 GMT+0100 (Central European Standard Time),The main experiment item,yes,0,0,C:/Users/rrics/Documents/!!ResearchBMECOGSCI/gnet,0,0,0,prototype5.png,no,mono,no,18,no,black,no,no,768,1197,3.5.6,legacy,xpyriment,osweb,1.3.13,0,enter,space,enter,,20108,11746,20108,,2,legacy,680,1280,24,720,24,0,0,1280,1647089685134,1024,2,48000,-16,experiment,p5sarr1.png,1,odd,Win32,93,123675,120661,93,93,359035,360544,354034,125195,354034,93,,,,,,visual_patterns,0,0,0,yes,1366
undefined,undefined,undefined,undefined,white,no,Mozilla,Netscape,"5.0 (Windows NT 10.0; Win64; x64) AppleWebKit/537.36 (KHTML, like Gecko) Chrome/97.0.4692.71 Safari/537.36 Edg/97.0.1072.62",xpyriment,legacy,legacy,0,uniform,0,0,0,0,24,24,24,0,0,33,33,33,33,33,0,33,0,,,,,,0,,12-02-22,12-02-22,13:53:48,Sat Mar 12 2022 13:53:48 GMT+0100 (Central European Standard Time),The main experiment item,yes,0,0,C:/Users/rrics/Documents/!!ResearchBMECOGSCI/gnet,0,0,0,prototype5.png,no,mono,no,18,no,black,no,no,768,1197,3.5.6,legacy,xpyriment,osweb,1.3.13,0,enter,space,enter,,20108,11746,20108,,2,legacy,680,1280,24,720,24,0,0,1280,1647089685134,1024,2,48000,-16,experiment,p3sarrshacol1.png,1,odd,Win32,93,123675,120661,93,93,365559,367060,360562,125195,360561,93,,,,,,visual_patterns,0,0,0,yes,1366
undefined,undefined,undefined,undefined,white,no,Mozilla,Netscape,"5.0 (Windows NT 10.0; Win64; x64) AppleWebKit/537.36 (KHTML, like Gecko) Chrome/97.0.4692.71 Safari/537.36 Edg/97.0.1072.62",xpyriment,legacy,legacy,0,uniform,0,0,0,0,24,24,24,0,0,34,34,34,34,34,0,34,0,,,,,,0,,12-02-22,12-02-22,13:53:48,Sat Mar 12 2022 13:53:48 GMT+0100 (Central European Standard Time),The main experiment item,yes,0,0,C:/Users/rrics/Documents/!!ResearchBMECOGSCI/gnet,0,0,0,prototype5.png,no,mono,no,18,no,black,no,no,768,1197,3.5.6,legacy,xpyriment,osweb,1.3.13,0,enter,space,enter,,20108,11746,20108,,2,legacy,680,1280,24,720,24,0,0,1280,1647089685134,1024,2,48000,-16,experiment,prototype1.png,1,odd,Win32,93,123675,120661,93,93,372080,373592,367076,125195,367076,93,,,,,,visual_patterns,0,0,0,yes,1366
undefined,undefined,undefined,undefined,white,no,Mozilla,Netscape,"5.0 (Windows NT 10.0; Win64; x64) AppleWebKit/537.36 (KHTML, like Gecko) Chrome/97.0.4692.71 Safari/537.36 Edg/97.0.1072.62",xpyriment,legacy,legacy,0,uniform,0,0,0,0,24,24,24,0,0,35,35,35,35,35,0,35,0,,,,,,0,,12-02-22,12-02-22,13:53:48,Sat Mar 12 2022 13:53:48 GMT+0100 (Central European Standard Time),The main experiment item,yes,0,0,C:/Users/rrics/Documents/!!ResearchBMECOGSCI/gnet,0,0,0,prototype5.png,no,mono,no,18,no,black,no,no,768,1197,3.5.6,legacy,xpyriment,osweb,1.3.13,0,enter,space,enter,,20108,11746,20108,,2,legacy,680,1280,24,720,24,0,0,1280,1647089685134,1024,2,48000,-16,experiment,p4sarrshacol1.png,1,odd,Win32,93,123675,120661,93,93,378610,380125,373613,125195,373613,93,,,,,,visual_patterns,0,0,0,yes,1366
undefined,undefined,undefined,undefined,white,no,Mozilla,Netscape,"5.0 (Windows NT 10.0; Win64; x64) AppleWebKit/537.36 (KHTML, like Gecko) Chrome/97.0.4692.71 Safari/537.36 Edg/97.0.1072.62",xpyriment,legacy,legacy,0,uniform,0,0,0,0,24,24,24,0,0,36,36,36,36,36,0,36,0,,,,,,0,,12-02-22,12-02-22,13:53:48,Sat Mar 12 2022 13:53:48 GMT+0100 (Central European Standard Time),The main experiment item,yes,0,0,C:/Users/rrics/Documents/!!ResearchBMECOGSCI/gnet,0,0,0,prototype5.png,no,mono,no,18,no,black,no,no,768,1197,3.5.6,legacy,xpyriment,osweb,1.3.13,0,enter,space,enter,,20108,11746,20108,,2,legacy,680,1280,24,720,24,0,0,1280,1647089685134,1024,2,48000,-16,experiment,prototype3.png,1,odd,Win32,93,123675,120661,93,93,385140,386641,380141,125195,380141,93,,,,,,visual_patterns,0,0,0,yes,1366
undefined,undefined,undefined,undefined,white,no,Mozilla,Netscape,"5.0 (Windows NT 10.0; Win64; x64) AppleWebKit/537.36 (KHTML, like Gecko) Chrome/97.0.4692.71 Safari/537.36 Edg/97.0.1072.62",xpyriment,legacy,legacy,0,uniform,0,0,0,0,24,24,24,0,0,37,37,37,37,37,0,37,0,,,,,,0,,12-02-22,12-02-22,13:53:48,Sat Mar 12 2022 13:53:48 GMT+0100 (Central European Standard Time),The main experiment item,yes,0,0,C:/Users/rrics/Documents/!!ResearchBMECOGSCI/gnet,0,0,0,prototype5.png,no,mono,no,18,no,black,no,no,768,1197,3.5.6,legacy,xpyriment,osweb,1.3.13,0,enter,space,enter,,20108,11746,20108,,2,legacy,680,1280,24,720,24,0,0,1280,1647089685134,1024,2,48000,-16,experiment,prototype3.png,1,odd,Win32,93,123675,120661,93,93,391659,393173,386655,125195,386655,93,,,,,,visual_patterns,0,0,0,yes,1366
undefined,undefined,undefined,undefined,white,no,Mozilla,Netscape,"5.0 (Windows NT 10.0; Win64; x64) AppleWebKit/537.36 (KHTML, like Gecko) Chrome/97.0.4692.71 Safari/537.36 Edg/97.0.1072.62",xpyriment,legacy,legacy,0,uniform,0,0,0,0,24,24,24,0,0,38,38,38,38,38,0,38,0,,,,,,0,,12-02-22,12-02-22,13:53:48,Sat Mar 12 2022 13:53:48 GMT+0100 (Central European Standard Time),The main experiment item,yes,0,0,C:/Users/rrics/Documents/!!ResearchBMECOGSCI/gnet,0,0,0,prototype5.png,no,mono,no,18,no,black,no,no,768,1197,3.5.6,legacy,xpyriment,osweb,1.3.13,0,enter,space,enter,,20108,11746,20108,,2,legacy,680,1280,24,720,24,0,0,1280,1647089685134,1024,2,48000,-16,experiment,p7sarr1.png,1,odd,Win32,93,123675,120661,93,93,398186,399688,393188,125195,393188,93,,,,,,visual_patterns,0,0,0,yes,1366
undefined,undefined,undefined,undefined,white,no,Mozilla,Netscape,"5.0 (Windows NT 10.0; Win64; x64) AppleWebKit/537.36 (KHTML, like Gecko) Chrome/97.0.4692.71 Safari/537.36 Edg/97.0.1072.62",xpyriment,legacy,legacy,0,uniform,0,0,0,0,24,24,24,0,0,39,39,39,39,39,0,39,0,,,,,,0,,12-02-22,12-02-22,13:53:48,Sat Mar 12 2022 13:53:48 GMT+0100 (Central European Standard Time),The main experiment item,yes,0,0,C:/Users/rrics/Documents/!!ResearchBMECOGSCI/gnet,0,0,0,prototype5.png,no,mono,no,18,no,black,no,no,768,1197,3.5.6,legacy,xpyriment,osweb,1.3.13,0,enter,space,enter,,20108,11746,20108,,2,legacy,680,1280,24,720,24,0,0,1280,1647089685134,1024,2,48000,-16,experiment,p1sarrsha1.png,1,odd,Win32,93,123675,120661,93,93,404694,406204,399693,125195,399693,93,,,,,,visual_patterns,0,0,0,yes,1366
undefined,undefined,undefined,undefined,white,no,Mozilla,Netscape,"5.0 (Windows NT 10.0; Win64; x64) AppleWebKit/537.36 (KHTML, like Gecko) Chrome/97.0.4692.71 Safari/537.36 Edg/97.0.1072.62",xpyriment,legacy,legacy,0,uniform,0,0,0,0,24,24,24,0,0,40,40,40,40,40,0,40,0,,,,,,0,,12-02-22,12-02-22,13:53:48,Sat Mar 12 2022 13:53:48 GMT+0100 (Central European Standard Time),The main experiment item,yes,0,0,C:/Users/rrics/Documents/!!ResearchBMECOGSCI/gnet,0,0,0,prototype5.png,no,mono,no,18,no,black,no,no,768,1197,3.5.6,legacy,xpyriment,osweb,1.3.13,0,enter,space,enter,,20108,11746,20108,,2,legacy,680,1280,24,720,24,0,0,1280,1647089685134,1024,2,48000,-16,experiment,prototype5.png,1,odd,Win32,93,123675,120661,93,93,411212,412720,406209,125195,406209,93,,,,,,visual_patterns,0,0,0,yes,1366
undefined,undefined,undefined,undefined,white,no,Mozilla,Netscape,"5.0 (Windows NT 10.0; Win64; x64) AppleWebKit/537.36 (KHTML, like Gecko) Chrome/97.0.4692.71 Safari/537.36 Edg/97.0.1072.62",xpyriment,legacy,legacy,0,uniform,0,0,0,0,24,24,24,0,0,41,41,41,41,41,0,41,0,,,,,,0,,12-02-22,12-02-22,13:53:48,Sat Mar 12 2022 13:53:48 GMT+0100 (Central European Standard Time),The main experiment item,yes,0,0,C:/Users/rrics/Documents/!!ResearchBMECOGSCI/gnet,0,0,0,prototype5.png,no,mono,no,18,no,black,no,no,768,1197,3.5.6,legacy,xpyriment,osweb,1.3.13,0,enter,space,enter,,20108,11746,20108,,2,legacy,680,1280,24,720,24,0,0,1280,1647089685134,1024,2,48000,-16,experiment,p3sarrshacol2.png,1,odd,Win32,93,123675,120661,93,93,417725,419235,412725,125195,412725,93,,,,,,visual_patterns,0,0,0,yes,1366
undefined,undefined,undefined,undefined,white,no,Mozilla,Netscape,"5.0 (Windows NT 10.0; Win64; x64) AppleWebKit/537.36 (KHTML, like Gecko) Chrome/97.0.4692.71 Safari/537.36 Edg/97.0.1072.62",xpyriment,legacy,legacy,0,uniform,0,0,0,0,24,24,24,0,0,42,42,42,42,42,0,42,0,,,,,,0,,12-02-22,12-02-22,13:53:48,Sat Mar 12 2022 13:53:48 GMT+0100 (Central European Standard Time),The main experiment item,yes,0,0,C:/Users/rrics/Documents/!!ResearchBMECOGSCI/gnet,0,0,0,prototype5.png,no,mono,no,18,no,black,no,no,768,1197,3.5.6,legacy,xpyriment,osweb,1.3.13,0,enter,space,enter,,20108,11746,20108,,2,legacy,680,1280,24,720,24,0,0,1280,1647089685134,1024,2,48000,-16,experiment,p3sarrcol2.png,1,odd,Win32,93,123675,120661,93,93,424239,425752,419241,125195,419241,93,,,,,,visual_patterns,0,0,0,yes,1366
undefined,undefined,undefined,undefined,white,no,Mozilla,Netscape,"5.0 (Windows NT 10.0; Win64; x64) AppleWebKit/537.36 (KHTML, like Gecko) Chrome/97.0.4692.71 Safari/537.36 Edg/97.0.1072.62",xpyriment,legacy,legacy,0,uniform,0,0,0,0,24,24,24,0,0,43,43,43,43,43,0,43,0,,,,,,0,,12-02-22,12-02-22,13:53:48,Sat Mar 12 2022 13:53:48 GMT+0100 (Central European Standard Time),The main experiment item,yes,0,0,C:/Users/rrics/Documents/!!ResearchBMECOGSCI/gnet,0,0,0,prototype5.png,no,mono,no,18,no,black,no,no,768,1197,3.5.6,legacy,xpyriment,osweb,1.3.13,0,enter,space,enter,,20108,11746,20108,,2,legacy,680,1280,24,720,24,0,0,1280,1647089685134,1024,2,48000,-16,experiment,p3sarr2.png,1,odd,Win32,93,123675,120661,93,93,430766,432268,425768,125195,425768,93,,,,,,visual_patterns,0,0,0,yes,1366
undefined,undefined,undefined,undefined,white,no,Mozilla,Netscape,"5.0 (Windows NT 10.0; Win64; x64) AppleWebKit/537.36 (KHTML, like Gecko) Chrome/97.0.4692.71 Safari/537.36 Edg/97.0.1072.62",xpyriment,legacy,legacy,0,uniform,0,0,0,0,24,24,24,0,0,44,44,44,44,44,0,44,0,,,,,,0,,12-02-22,12-02-22,13:53:48,Sat Mar 12 2022 13:53:48 GMT+0100 (Central European Standard Time),The main experiment item,yes,0,0,C:/Users/rrics/Documents/!!ResearchBMECOGSCI/gnet,0,0,0,prototype5.png,no,mono,no,18,no,black,no,no,768,1197,3.5.6,legacy,xpyriment,osweb,1.3.13,0,enter,space,enter,,20108,11746,20108,,2,legacy,680,1280,24,720,24,0,0,1280,1647089685134,1024,2,48000,-16,experiment,p2sarrsha1.png,1,odd,Win32,93,123675,120661,93,93,437281,438783,432283,125195,432283,93,,,,,,visual_patterns,0,0,0,yes,1366
undefined,undefined,undefined,undefined,white,no,Mozilla,Netscape,"5.0 (Windows NT 10.0; Win64; x64) AppleWebKit/537.36 (KHTML, like Gecko) Chrome/97.0.4692.71 Safari/537.36 Edg/97.0.1072.62",xpyriment,legacy,legacy,0,uniform,0,0,0,0,24,24,24,0,0,45,45,45,45,45,0,45,0,,,,,,0,,12-02-22,12-02-22,13:53:48,Sat Mar 12 2022 13:53:48 GMT+0100 (Central European Standard Time),The main experiment item,yes,0,0,C:/Users/rrics/Documents/!!ResearchBMECOGSCI/gnet,0,0,0,prototype5.png,no,mono,no,18,no,black,no,no,768,1197,3.5.6,legacy,xpyriment,osweb,1.3.13,0,enter,space,enter,,20108,11746,20108,,2,legacy,680,1280,24,720,24,0,0,1280,1647089685134,1024,2,48000,-16,experiment,p4sarrsha1.png,1,odd,Win32,93,123675,120661,93,93,443792,445299,438791,125195,438791,93,,,,,,visual_patterns,0,0,0,yes,1366
undefined,undefined,undefined,undefined,white,no,Mozilla,Netscape,"5.0 (Windows NT 10.0; Win64; x64) AppleWebKit/537.36 (KHTML, like Gecko) Chrome/97.0.4692.71 Safari/537.36 Edg/97.0.1072.62",xpyriment,legacy,legacy,0,uniform,0,0,0,0,24,24,24,0,0,46,46,46,46,46,0,46,0,,,,,,0,,12-02-22,12-02-22,13:53:48,Sat Mar 12 2022 13:53:48 GMT+0100 (Central European Standard Time),The main experiment item,yes,0,0,C:/Users/rrics/Documents/!!ResearchBMECOGSCI/gnet,0,0,0,prototype5.png,no,mono,no,18,no,black,no,no,768,1197,3.5.6,legacy,xpyriment,osweb,1.3.13,0,enter,space,enter,,20108,11746,20108,,2,legacy,680,1280,24,720,24,0,0,1280,1647089685134,1024,2,48000,-16,experiment,p1sarrcol1.png,1,odd,Win32,93,123675,120661,93,93,450308,451816,445311,125195,445311,93,,,,,,visual_patterns,0,0,0,yes,1366
undefined,undefined,undefined,undefined,white,no,Mozilla,Netscape,"5.0 (Windows NT 10.0; Win64; x64) AppleWebKit/537.36 (KHTML, like Gecko) Chrome/97.0.4692.71 Safari/537.36 Edg/97.0.1072.62",xpyriment,legacy,legacy,0,uniform,0,0,0,0,24,24,24,0,0,47,47,47,47,47,0,47,0,,,,,,0,,12-02-22,12-02-22,13:53:48,Sat Mar 12 2022 13:53:48 GMT+0100 (Central European Standard Time),The main experiment item,yes,0,0,C:/Users/rrics/Documents/!!ResearchBMECOGSCI/gnet,0,0,0,prototype5.png,no,mono,no,18,no,black,no,no,768,1197,3.5.6,legacy,xpyriment,osweb,1.3.13,0,enter,space,enter,,20108,11746,20108,,2,legacy,680,1280,24,720,24,0,0,1280,1647089685134,1024,2,48000,-16,experiment,p1sarrsha2.png,1,odd,Win32,93,123675,120661,93,93,456832,458347,451832,125195,451832,93,,,,,,visual_patterns,0,0,0,yes,1366
undefined,undefined,undefined,undefined,white,no,Mozilla,Netscape,"5.0 (Windows NT 10.0; Win64; x64) AppleWebKit/537.36 (KHTML, like Gecko) Chrome/97.0.4692.71 Safari/537.36 Edg/97.0.1072.62",xpyriment,legacy,legacy,0,uniform,0,0,0,0,24,24,24,0,0,48,48,48,48,48,0,48,0,,,,,,0,,12-02-22,12-02-22,13:53:48,Sat Mar 12 2022 13:53:48 GMT+0100 (Central European Standard Time),The main experiment item,yes,0,0,C:/Users/rrics/Documents/!!ResearchBMECOGSCI/gnet,0,0,0,prototype5.png,no,mono,no,18,no,black,no,no,768,1197,3.5.6,legacy,xpyriment,osweb,1.3.13,0,enter,space,enter,,20108,11746,20108,,2,legacy,680,1280,24,720,24,0,0,1280,1647089685134,1024,2,48000,-16,experiment,p7sarr2.png,1,odd,Win32,93,123675,120661,93,93,463353,464864,458352,125195,458352,93,,,,,,visual_patterns,0,0,0,yes,1366
undefined,undefined,undefined,undefined,white,no,Mozilla,Netscape,"5.0 (Windows NT 10.0; Win64; x64) AppleWebKit/537.36 (KHTML, like Gecko) Chrome/97.0.4692.71 Safari/537.36 Edg/97.0.1072.62",xpyriment,legacy,legacy,0,uniform,0,0,0,0,24,24,24,0,0,49,49,49,49,49,0,49,0,,,,,,0,,12-02-22,12-02-22,13:53:48,Sat Mar 12 2022 13:53:48 GMT+0100 (Central European Standard Time),The main experiment item,yes,0,0,C:/Users/rrics/Documents/!!ResearchBMECOGSCI/gnet,0,0,0,prototype5.png,no,mono,no,18,no,black,no,no,768,1197,3.5.6,legacy,xpyriment,osweb,1.3.13,0,enter,space,enter,,20108,11746,20108,,2,legacy,680,1280,24,720,24,0,0,1280,1647089685134,1024,2,48000,-16,experiment,p4sarr1.png,1,odd,Win32,93,123675,120661,93,93,469876,471380,464877,125195,464877,93,,,,,,visual_patterns,0,0,0,yes,1366
undefined,undefined,undefined,undefined,white,no,Mozilla,Netscape,"5.0 (Windows NT 10.0; Win64; x64) AppleWebKit/537.36 (KHTML, like Gecko) Chrome/97.0.4692.71 Safari/537.36 Edg/97.0.1072.62",xpyriment,legacy,legacy,0,uniform,0,0,0,0,24,24,24,0,0,50,50,50,50,50,0,50,0,,,,,,0,,12-02-22,12-02-22,13:53:48,Sat Mar 12 2022 13:53:48 GMT+0100 (Central European Standard Time),The main experiment item,yes,0,0,C:/Users/rrics/Documents/!!ResearchBMECOGSCI/gnet,0,0,0,prototype5.png,no,mono,no,18,no,black,no,no,768,1197,3.5.6,legacy,xpyriment,osweb,1.3.13,0,enter,space,enter,,20108,11746,20108,,2,legacy,680,1280,24,720,24,0,0,1280,1647089685134,1024,2,48000,-16,experiment,p10sarr1.png,1,odd,Win32,93,123675,120661,93,93,476392,477896,471397,125195,471397,93,,,,,,visual_patterns,0,0,0,yes,1366
undefined,undefined,undefined,undefined,white,no,Mozilla,Netscape,"5.0 (Windows NT 10.0; Win64; x64) AppleWebKit/537.36 (KHTML, like Gecko) Chrome/97.0.4692.71 Safari/537.36 Edg/97.0.1072.62",xpyriment,legacy,legacy,0,uniform,0,0,0,0,24,24,24,0,0,51,51,51,51,51,0,51,0,,,,,,0,,12-02-22,12-02-22,13:53:48,Sat Mar 12 2022 13:53:48 GMT+0100 (Central European Standard Time),The main experiment item,yes,0,0,C:/Users/rrics/Documents/!!ResearchBMECOGSCI/gnet,0,0,0,prototype5.png,no,mono,no,18,no,black,no,no,768,1197,3.5.6,legacy,xpyriment,osweb,1.3.13,0,enter,space,enter,,20108,11746,20108,,2,legacy,680,1280,24,720,24,0,0,1280,1647089685134,1024,2,48000,-16,experiment,prototype3.png,1,odd,Win32,93,123675,120661,93,93,482910,484411,477910,125195,477910,93,,,,,,visual_patterns,0,0,0,yes,1366
undefined,undefined,undefined,undefined,white,no,Mozilla,Netscape,"5.0 (Windows NT 10.0; Win64; x64) AppleWebKit/537.36 (KHTML, like Gecko) Chrome/97.0.4692.71 Safari/537.36 Edg/97.0.1072.62",xpyriment,legacy,legacy,0,uniform,0,0,0,0,24,24,24,0,0,52,52,52,52,52,0,52,0,,,,,,0,,12-02-22,12-02-22,13:53:48,Sat Mar 12 2022 13:53:48 GMT+0100 (Central European Standard Time),The main experiment item,yes,0,0,C:/Users/rrics/Documents/!!ResearchBMECOGSCI/gnet,0,0,0,prototype5.png,no,mono,no,18,no,black,no,no,768,1197,3.5.6,legacy,xpyriment,osweb,1.3.13,0,enter,space,enter,,20108,11746,20108,,2,legacy,680,1280,24,720,24,0,0,1280,1647089685134,1024,2,48000,-16,experiment,p1sarr1.png,1,odd,Win32,93,123675,120661,93,93,489437,490944,484439,125195,484439,93,,,,,,visual_patterns,0,0,0,yes,1366
undefined,undefined,undefined,undefined,white,no,Mozilla,Netscape,"5.0 (Windows NT 10.0; Win64; x64) AppleWebKit/537.36 (KHTML, like Gecko) Chrome/97.0.4692.71 Safari/537.36 Edg/97.0.1072.62",xpyriment,legacy,legacy,0,uniform,0,0,0,0,24,24,24,0,0,53,53,53,53,53,0,53,0,,,,,,0,,12-02-22,12-02-22,13:53:48,Sat Mar 12 2022 13:53:48 GMT+0100 (Central European Standard Time),The main experiment item,yes,0,0,C:/Users/rrics/Documents/!!ResearchBMECOGSCI/gnet,0,0,0,prototype5.png,no,mono,no,18,no,black,no,no,768,1197,3.5.6,legacy,xpyriment,osweb,1.3.13,0,enter,space,enter,,20108,11746,20108,,2,legacy,680,1280,24,720,24,0,0,1280,1647089685134,1024,2,48000,-16,experiment,p1sarrcol2.png,1,odd,Win32,93,123675,120661,93,93,495957,497459,490961,125195,490961,93,,,,,,visual_patterns,0,0,0,yes,1366
undefined,undefined,undefined,undefined,white,no,Mozilla,Netscape,"5.0 (Windows NT 10.0; Win64; x64) AppleWebKit/537.36 (KHTML, like Gecko) Chrome/97.0.4692.71 Safari/537.36 Edg/97.0.1072.62",xpyriment,legacy,legacy,0,uniform,0,0,0,0,24,24,24,0,0,54,54,54,54,54,0,54,0,,,,,,0,,12-02-22,12-02-22,13:53:48,Sat Mar 12 2022 13:53:48 GMT+0100 (Central European Standard Time),The main experiment item,yes,0,0,C:/Users/rrics/Documents/!!ResearchBMECOGSCI/gnet,0,0,0,prototype5.png,no,mono,no,18,no,black,no,no,768,1197,3.5.6,legacy,xpyriment,osweb,1.3.13,0,enter,space,enter,,20108,11746,20108,,2,legacy,680,1280,24,720,24,0,0,1280,1647089685134,1024,2,48000,-16,experiment,p2sarrcol2.png,1,odd,Win32,93,123675,120661,93,93,502474,503976,497476,125195,497476,93,,,,,,visual_patterns,0,0,0,yes,1366
undefined,undefined,undefined,undefined,white,no,Mozilla,Netscape,"5.0 (Windows NT 10.0; Win64; x64) AppleWebKit/537.36 (KHTML, like Gecko) Chrome/97.0.4692.71 Safari/537.36 Edg/97.0.1072.62",xpyriment,legacy,legacy,0,uniform,0,0,0,0,24,24,24,0,0,55,55,55,55,55,0,55,0,,,,,,0,,12-02-22,12-02-22,13:53:48,Sat Mar 12 2022 13:53:48 GMT+0100 (Central European Standard Time),The main experiment item,yes,0,0,C:/Users/rrics/Documents/!!ResearchBMECOGSCI/gnet,0,0,0,prototype5.png,no,mono,no,18,no,black,no,no,768,1197,3.5.6,legacy,xpyriment,osweb,1.3.13,0,enter,space,enter,,20108,11746,20108,,2,legacy,680,1280,24,720,24,0,0,1280,1647089685134,1024,2,48000,-16,experiment,prototype4.png,1,odd,Win32,93,123675,120661,93,93,508989,510492,503987,125195,503987,93,,,,,,visual_patterns,0,0,0,yes,1366
undefined,undefined,undefined,undefined,white,no,Mozilla,Netscape,"5.0 (Windows NT 10.0; Win64; x64) AppleWebKit/537.36 (KHTML, like Gecko) Chrome/97.0.4692.71 Safari/537.36 Edg/97.0.1072.62",xpyriment,legacy,legacy,0,uniform,0,0,0,0,24,24,24,0,0,56,56,56,56,56,0,56,0,,,,,,0,,12-02-22,12-02-22,13:53:48,Sat Mar 12 2022 13:53:48 GMT+0100 (Central European Standard Time),The main experiment item,yes,0,0,C:/Users/rrics/Documents/!!ResearchBMECOGSCI/gnet,0,0,0,prototype5.png,no,mono,no,18,no,black,no,no,768,1197,3.5.6,legacy,xpyriment,osweb,1.3.13,0,enter,space,enter,,20108,11746,20108,,2,legacy,680,1280,24,720,24,0,0,1280,1647089685134,1024,2,48000,-16,experiment,p2sarrshacol1.png,1,odd,Win32,93,123675,120661,93,93,515506,517007,510512,125195,510512,93,,,,,,visual_patterns,0,0,0,yes,1366
undefined,undefined,undefined,undefined,white,no,Mozilla,Netscape,"5.0 (Windows NT 10.0; Win64; x64) AppleWebKit/537.36 (KHTML, like Gecko) Chrome/97.0.4692.71 Safari/537.36 Edg/97.0.1072.62",xpyriment,legacy,legacy,0,uniform,0,0,0,0,24,24,24,0,0,57,57,57,57,57,0,57,0,,,,,,0,,12-02-22,12-02-22,13:53:48,Sat Mar 12 2022 13:53:48 GMT+0100 (Central European Standard Time),The main experiment item,yes,0,0,C:/Users/rrics/Documents/!!ResearchBMECOGSCI/gnet,0,0,0,prototype5.png,no,mono,no,18,no,black,no,no,768,1197,3.5.6,legacy,xpyriment,osweb,1.3.13,0,enter,space,enter,,20108,11746,20108,,2,legacy,680,1280,24,720,24,0,0,1280,1647089685134,1024,2,48000,-16,experiment,prototype5.png,1,odd,Win32,93,123675,120661,93,93,522035,523540,517035,125195,517035,93,,,,,,visual_patterns,0,0,0,yes,1366
undefined,undefined,undefined,undefined,white,no,Mozilla,Netscape,"5.0 (Windows NT 10.0; Win64; x64) AppleWebKit/537.36 (KHTML, like Gecko) Chrome/97.0.4692.71 Safari/537.36 Edg/97.0.1072.62",xpyriment,legacy,legacy,0,uniform,0,0,0,0,24,24,24,0,0,58,58,58,58,58,0,58,0,,,,,,0,,12-02-22,12-02-22,13:53:48,Sat Mar 12 2022 13:53:48 GMT+0100 (Central European Standard Time),The main experiment item,yes,0,0,C:/Users/rrics/Documents/!!ResearchBMECOGSCI/gnet,0,0,0,prototype5.png,no,mono,no,18,no,black,no,no,768,1197,3.5.6,legacy,xpyriment,osweb,1.3.13,0,enter,space,enter,,20108,11746,20108,,2,legacy,680,1280,24,720,24,0,0,1280,1647089685134,1024,2,48000,-16,experiment,prototype2.png,1,odd,Win32,93,123675,120661,93,93,528556,530073,523554,125195,523554,93,,,,,,visual_patterns,0,0,0,yes,1366
undefined,undefined,undefined,undefined,white,no,Mozilla,Netscape,"5.0 (Windows NT 10.0; Win64; x64) AppleWebKit/537.36 (KHTML, like Gecko) Chrome/97.0.4692.71 Safari/537.36 Edg/97.0.1072.62",xpyriment,legacy,legacy,0,uniform,0,0,0,0,24,24,24,0,0,59,59,59,59,59,0,59,0,,,,,,0,,12-02-22,12-02-22,13:53:48,Sat Mar 12 2022 13:53:48 GMT+0100 (Central European Standard Time),The main experiment item,yes,0,0,C:/Users/rrics/Documents/!!ResearchBMECOGSCI/gnet,0,0,0,prototype5.png,no,mono,no,18,no,black,no,no,768,1197,3.5.6,legacy,xpyriment,osweb,1.3.13,0,enter,space,enter,,20108,11746,20108,,2,legacy,680,1280,24,720,24,0,0,1280,1647089685134,1024,2,48000,-16,experiment,prototype5.png,1,odd,Win32,93,123675,120661,93,93,535086,536588,530085,125195,530085,93,,,,,,visual_patterns,0,0,0,yes,1366
undefined,undefined,undefined,undefined,white,no,Mozilla,Netscape,"5.0 (Windows NT 10.0; Win64; x64) AppleWebKit/537.36 (KHTML, like Gecko) Chrome/97.0.4692.71 Safari/537.36 Edg/97.0.1072.62",xpyriment,legacy,legacy,0,uniform,0,0,0,0,24,24,24,0,0,60,60,60,60,60,0,60,0,,,,,,0,,12-02-22,12-02-22,13:53:48,Sat Mar 12 2022 13:53:48 GMT+0100 (Central European Standard Time),The main experiment item,yes,0,0,C:/Users/rrics/Documents/!!ResearchBMECOGSCI/gnet,0,0,0,prototype5.png,no,mono,no,18,no,black,no,no,768,1197,3.5.6,legacy,xpyriment,osweb,1.3.13,0,enter,space,enter,,20108,11746,20108,,2,legacy,680,1280,24,720,24,0,0,1280,1647089685134,1024,2,48000,-16,experiment,p1sarrshacol2.png,1,odd,Win32,93,123675,120661,93,93,541606,543119,536606,125195,536606,93,,,,,,visual_patterns,0,0,0,yes,1366
undefined,undefined,undefined,undefined,white,no,Mozilla,Netscape,"5.0 (Windows NT 10.0; Win64; x64) AppleWebKit/537.36 (KHTML, like Gecko) Chrome/97.0.4692.71 Safari/537.36 Edg/97.0.1072.62",xpyriment,legacy,legacy,0,uniform,0,0,0,0,24,24,24,0,0,61,61,61,61,61,0,61,0,,,,,,0,,12-02-22,12-02-22,13:53:48,Sat Mar 12 2022 13:53:48 GMT+0100 (Central European Standard Time),The main experiment item,yes,0,0,C:/Users/rrics/Documents/!!ResearchBMECOGSCI/gnet,0,0,0,prototype5.png,no,mono,no,18,no,black,no,no,768,1197,3.5.6,legacy,xpyriment,osweb,1.3.13,0,enter,space,enter,,20108,11746,20108,,2,legacy,680,1280,24,720,24,0,0,1280,1647089685134,1024,2,48000,-16,experiment,p2sarrcol1.png,1,odd,Win32,93,123675,120661,93,93,548127,549636,543125,125195,543125,93,,,,,,visual_patterns,0,0,0,yes,1366
undefined,undefined,undefined,undefined,white,no,Mozilla,Netscape,"5.0 (Windows NT 10.0; Win64; x64) AppleWebKit/537.36 (KHTML, like Gecko) Chrome/97.0.4692.71 Safari/537.36 Edg/97.0.1072.62",xpyriment,legacy,legacy,0,uniform,0,0,0,0,24,24,24,0,0,62,62,62,62,62,0,62,0,,,,,,0,,12-02-22,12-02-22,13:53:48,Sat Mar 12 2022 13:53:48 GMT+0100 (Central European Standard Time),The main experiment item,yes,0,0,C:/Users/rrics/Documents/!!ResearchBMECOGSCI/gnet,0,0,0,prototype5.png,no,mono,no,18,no,black,no,no,768,1197,3.5.6,legacy,xpyriment,osweb,1.3.13,0,enter,space,enter,,20108,11746,20108,,2,legacy,680,1280,24,720,24,0,0,1280,1647089685134,1024,2,48000,-16,experiment,p5sarr2.png,1,odd,Win32,93,123675,120661,93,93,554645,556152,549644,125195,549644,93,,,,,,visual_patterns,0,0,0,yes,1366
undefined,undefined,undefined,undefined,white,no,Mozilla,Netscape,"5.0 (Windows NT 10.0; Win64; x64) AppleWebKit/537.36 (KHTML, like Gecko) Chrome/97.0.4692.71 Safari/537.36 Edg/97.0.1072.62",xpyriment,legacy,legacy,0,uniform,0,0,0,0,24,24,24,0,0,63,63,63,63,63,0,63,0,,,,,,0,,12-02-22,12-02-22,13:53:48,Sat Mar 12 2022 13:53:48 GMT+0100 (Central European Standard Time),The main experiment item,yes,0,0,C:/Users/rrics/Documents/!!ResearchBMECOGSCI/gnet,0,0,0,prototype5.png,no,mono,no,18,no,black,no,no,768,1197,3.5.6,legacy,xpyriment,osweb,1.3.13,0,enter,space,enter,,20108,11746,20108,,2,legacy,680,1280,24,720,24,0,0,1280,1647089685134,1024,2,48000,-16,experiment,p10sarr2.png,1,odd,Win32,93,123675,120661,93,93,561167,562668,556171,125195,556171,93,,,,,,visual_patterns,0,0,0,yes,1366
undefined,undefined,undefined,undefined,white,no,Mozilla,Netscape,"5.0 (Windows NT 10.0; Win64; x64) AppleWebKit/537.36 (KHTML, like Gecko) Chrome/97.0.4692.71 Safari/537.36 Edg/97.0.1072.62",xpyriment,legacy,legacy,0,uniform,0,0,0,0,24,24,24,0,0,64,64,64,64,64,0,64,0,,,,,,0,,12-02-22,12-02-22,13:53:48,Sat Mar 12 2022 13:53:48 GMT+0100 (Central European Standard Time),The main experiment item,yes,0,0,C:/Users/rrics/Documents/!!ResearchBMECOGSCI/gnet,0,0,0,prototype5.png,no,mono,no,18,no,black,no,no,768,1197,3.5.6,legacy,xpyriment,osweb,1.3.13,0,enter,space,enter,,20108,11746,20108,,2,legacy,680,1280,24,720,24,0,0,1280,1647089685134,1024,2,48000,-16,experiment,prototype1.png,1,odd,Win32,93,123675,120661,93,93,567680,569183,562680,125195,562680,93,,,,,,visual_patterns,0,0,0,yes,1366
undefined,undefined,undefined,undefined,white,no,Mozilla,Netscape,"5.0 (Windows NT 10.0; Win64; x64) AppleWebKit/537.36 (KHTML, like Gecko) Chrome/97.0.4692.71 Safari/537.36 Edg/97.0.1072.62",xpyriment,legacy,legacy,0,uniform,0,0,0,0,24,24,24,0,0,65,65,65,65,65,0,65,0,,,,,,0,,12-02-22,12-02-22,13:53:48,Sat Mar 12 2022 13:53:48 GMT+0100 (Central European Standard Time),The main experiment item,yes,0,0,C:/Users/rrics/Documents/!!ResearchBMECOGSCI/gnet,0,0,0,prototype5.png,no,mono,no,18,no,black,no,no,768,1197,3.5.6,legacy,xpyriment,osweb,1.3.13,0,enter,space,enter,,20108,11746,20108,,2,legacy,680,1280,24,720,24,0,0,1280,1647089685134,1024,2,48000,-16,experiment,prototype4.png,1,odd,Win32,93,123675,120661,93,93,574193,575699,569190,125195,569190,93,,,,,,visual_patterns,0,0,0,yes,1366
undefined,undefined,undefined,undefined,white,no,Mozilla,Netscape,"5.0 (Windows NT 10.0; Win64; x64) AppleWebKit/537.36 (KHTML, like Gecko) Chrome/97.0.4692.71 Safari/537.36 Edg/97.0.1072.62",xpyriment,legacy,legacy,0,uniform,0,0,0,0,24,24,24,0,0,66,66,66,66,66,0,66,0,,,,,,0,,12-02-22,12-02-22,13:53:48,Sat Mar 12 2022 13:53:48 GMT+0100 (Central European Standard Time),The main experiment item,yes,0,0,C:/Users/rrics/Documents/!!ResearchBMECOGSCI/gnet,0,0,0,prototype5.png,no,mono,no,18,no,black,no,no,768,1197,3.5.6,legacy,xpyriment,osweb,1.3.13,0,enter,space,enter,,20108,11746,20108,,2,legacy,680,1280,24,720,24,0,0,1280,1647089685134,1024,2,48000,-16,experiment,p2sarrshacol2.png,1,odd,Win32,93,123675,120661,93,93,580714,582215,575719,125195,575718,93,,,,,,visual_patterns,0,0,0,yes,1366
undefined,undefined,undefined,undefined,white,no,Mozilla,Netscape,"5.0 (Windows NT 10.0; Win64; x64) AppleWebKit/537.36 (KHTML, like Gecko) Chrome/97.0.4692.71 Safari/537.36 Edg/97.0.1072.62",xpyriment,legacy,legacy,0,uniform,0,0,0,0,24,24,24,0,0,67,67,67,67,67,0,67,0,,,,,,0,,12-02-22,12-02-22,13:53:48,Sat Mar 12 2022 13:53:48 GMT+0100 (Central European Standard Time),The main experiment item,yes,0,0,C:/Users/rrics/Documents/!!ResearchBMECOGSCI/gnet,0,0,0,prototype5.png,no,mono,no,18,no,black,no,no,768,1197,3.5.6,legacy,xpyriment,osweb,1.3.13,0,enter,space,enter,,20108,11746,20108,,2,legacy,680,1280,24,720,24,0,0,1280,1647089685134,1024,2,48000,-16,experiment,p1sarr2.png,1,odd,Win32,93,123675,120661,93,93,587233,588747,582233,125195,582233,93,,,,,,visual_patterns,0,0,0,yes,1366
undefined,undefined,undefined,undefined,white,no,Mozilla,Netscape,"5.0 (Windows NT 10.0; Win64; x64) AppleWebKit/537.36 (KHTML, like Gecko) Chrome/97.0.4692.71 Safari/537.36 Edg/97.0.1072.62",xpyriment,legacy,legacy,0,uniform,0,0,0,0,24,24,24,0,0,68,68,68,68,68,0,68,0,,,,,,0,,12-02-22,12-02-22,13:53:48,Sat Mar 12 2022 13:53:48 GMT+0100 (Central European Standard Time),The main experiment item,yes,0,0,C:/Users/rrics/Documents/!!ResearchBMECOGSCI/gnet,0,0,0,prototype5.png,no,mono,no,18,no,black,no,no,768,1197,3.5.6,legacy,xpyriment,osweb,1.3.13,0,enter,space,enter,,20108,11746,20108,,2,legacy,680,1280,24,720,24,0,0,1280,1647089685134,1024,2,48000,-16,experiment,p6sarr2.png,1,odd,Win32,93,123675,120661,93,93,593757,595264,588755,125195,588755,93,,,,,,visual_patterns,0,0,0,yes,1366
undefined,undefined,undefined,undefined,white,no,Mozilla,Netscape,"5.0 (Windows NT 10.0; Win64; x64) AppleWebKit/537.36 (KHTML, like Gecko) Chrome/97.0.4692.71 Safari/537.36 Edg/97.0.1072.62",xpyriment,legacy,legacy,0,uniform,0,0,0,0,24,24,24,0,0,69,69,69,69,69,0,69,0,,,,,,0,,12-02-22,12-02-22,13:53:48,Sat Mar 12 2022 13:53:48 GMT+0100 (Central European Standard Time),The main experiment item,yes,0,0,C:/Users/rrics/Documents/!!ResearchBMECOGSCI/gnet,0,0,0,prototype5.png,no,mono,no,18,no,black,no,no,768,1197,3.5.6,legacy,xpyriment,osweb,1.3.13,0,enter,space,enter,,20108,11746,20108,,2,legacy,680,1280,24,720,24,0,0,1280,1647089685134,1024,2,48000,-16,experiment,prototype2.png,1,odd,Win32,93,123675,120661,93,93,600279,601796,595279,125195,595279,93,,,,,,visual_patterns,0,0,0,yes,1366
undefined,undefined,undefined,undefined,white,no,Mozilla,Netscape,"5.0 (Windows NT 10.0; Win64; x64) AppleWebKit/537.36 (KHTML, like Gecko) Chrome/97.0.4692.71 Safari/537.36 Edg/97.0.1072.62",xpyriment,legacy,legacy,0,uniform,0,0,0,0,24,24,24,0,0,70,70,70,70,70,0,70,0,,,,,,0,,12-02-22,12-02-22,13:53:48,Sat Mar 12 2022 13:53:48 GMT+0100 (Central European Standard Time),The main experiment item,yes,0,0,C:/Users/rrics/Documents/!!ResearchBMECOGSCI/gnet,0,0,0,prototype5.png,no,mono,no,18,no,black,no,no,768,1197,3.5.6,legacy,xpyriment,osweb,1.3.13,0,enter,space,enter,,20108,11746,20108,,2,legacy,680,1280,24,720,24,0,0,1280,1647089685134,1024,2,48000,-16,experiment,p1sarrshacol1.png,1,odd,Win32,93,123675,120661,93,93,606804,608311,601800,125195,601800,93,,,,,,visual_patterns,0,0,0,yes,1366
undefined,undefined,undefined,undefined,white,no,Mozilla,Netscape,"5.0 (Windows NT 10.0; Win64; x64) AppleWebKit/537.36 (KHTML, like Gecko) Chrome/97.0.4692.71 Safari/537.36 Edg/97.0.1072.62",xpyriment,legacy,legacy,0,uniform,0,0,0,0,24,24,24,0,0,71,71,71,71,71,0,71,0,,,,,,0,,12-02-22,12-02-22,13:53:48,Sat Mar 12 2022 13:53:48 GMT+0100 (Central European Standard Time),The main experiment item,yes,0,0,C:/Users/rrics/Documents/!!ResearchBMECOGSCI/gnet,0,0,0,prototype5.png,no,mono,no,18,no,black,no,no,768,1197,3.5.6,legacy,xpyriment,osweb,1.3.13,0,enter,space,enter,,20108,11746,20108,,2,legacy,680,1280,24,720,24,0,0,1280,1647089685134,1024,2,48000,-16,experiment,prototype1.png,1,odd,Win32,93,123675,120661,93,93,613318,614827,608315,125195,608315,93,,,,,,visual_patterns,0,0,0,yes,1366
undefined,undefined,undefined,undefined,white,no,Mozilla,Netscape,"5.0 (Windows NT 10.0; Win64; x64) AppleWebKit/537.36 (KHTML, like Gecko) Chrome/97.0.4692.71 Safari/537.36 Edg/97.0.1072.62",xpyriment,legacy,legacy,0,uniform,0,0,0,0,24,24,24,0,0,72,72,72,72,72,0,72,0,,,,,,0,,12-02-22,12-02-22,13:53:48,Sat Mar 12 2022 13:53:48 GMT+0100 (Central European Standard Time),The main experiment item,yes,0,0,C:/Users/rrics/Documents/!!ResearchBMECOGSCI/gnet,0,0,0,prototype5.png,no,mono,no,18,no,black,no,no,768,1197,3.5.6,legacy,xpyriment,osweb,1.3.13,0,enter,space,enter,,20108,11746,20108,,2,legacy,680,1280,24,720,24,0,0,1280,1647089685134,1024,2,48000,-16,experiment,prototype5.png,1,odd,Win32,93,123675,120661,93,93,619835,621343,614834,125195,614834,93,,,,,,visual_patterns,0,0,0,yes,1366
undefined,undefined,undefined,undefined,white,no,Mozilla,Netscape,"5.0 (Windows NT 10.0; Win64; x64) AppleWebKit/537.36 (KHTML, like Gecko) Chrome/97.0.4692.71 Safari/537.36 Edg/97.0.1072.62",xpyriment,legacy,legacy,0,uniform,0,0,0,0,24,24,24,0,0,73,73,73,73,73,0,73,0,,,,,,0,,12-02-22,12-02-22,13:53:48,Sat Mar 12 2022 13:53:48 GMT+0100 (Central European Standard Time),The main experiment item,yes,0,0,C:/Users/rrics/Documents/!!ResearchBMECOGSCI/gnet,0,0,0,prototype5.png,no,mono,no,18,no,black,no,no,768,1197,3.5.6,legacy,xpyriment,osweb,1.3.13,0,enter,space,enter,,20108,11746,20108,,2,legacy,680,1280,24,720,24,0,0,1280,1647089685134,1024,2,48000,-16,experiment,prototype3.png,1,odd,Win32,93,123675,120661,93,93,626347,627859,621347,125195,621347,93,,,,,,visual_patterns,0,0,0,yes,1366
undefined,undefined,undefined,undefined,white,no,Mozilla,Netscape,"5.0 (Windows NT 10.0; Win64; x64) AppleWebKit/537.36 (KHTML, like Gecko) Chrome/97.0.4692.71 Safari/537.36 Edg/97.0.1072.62",xpyriment,legacy,legacy,0,uniform,0,0,0,0,24,24,24,0,0,74,74,74,74,74,0,74,0,,,,,,0,,12-02-22,12-02-22,13:53:48,Sat Mar 12 2022 13:53:48 GMT+0100 (Central European Standard Time),The main experiment item,yes,0,0,C:/Users/rrics/Documents/!!ResearchBMECOGSCI/gnet,0,0,0,prototype5.png,no,mono,no,18,no,black,no,no,768,1197,3.5.6,legacy,xpyriment,osweb,1.3.13,0,enter,space,enter,,20108,11746,20108,,2,legacy,680,1280,24,720,24,0,0,1280,1647089685134,1024,2,48000,-16,experiment,prototype2.png,1,odd,Win32,93,123675,120661,93,93,632867,634375,627864,125195,627864,93,,,,,,visual_patterns,0,0,0,yes,1366
undefined,undefined,undefined,undefined,white,no,Mozilla,Netscape,"5.0 (Windows NT 10.0; Win64; x64) AppleWebKit/537.36 (KHTML, like Gecko) Chrome/97.0.4692.71 Safari/537.36 Edg/97.0.1072.62",xpyriment,legacy,legacy,0,uniform,0,0,0,0,24,24,24,0,0,74,74,74,74,74,0,74,0,0,0,0,0,0,0,0,12-02-22,12-02-22,13:53:48,Sat Mar 12 2022 13:53:48 GMT+0100 (Central European Standard Time),The main experiment item,yes,0,0,C:/Users/rrics/Documents/!!ResearchBMECOGSCI/gnet,0,0,0,prototype5.png,no,mono,no,18,no,black,no,no,768,1197,3.5.6,legacy,xpyriment,osweb,1.3.13,0,down,space,enter,down,24896,11746,20108,24896,2,legacy,680,1280,24,720,24,0,0,1280,1647089685134,1024,2,48000,-16,experiment,p5sarrsha3.png,1,odd,Win32,93,123675,120661,93,93,632867,634375,627864,125195,627864,93,662296,663804,659295,634377,659295,visual_patterns,0,0,0,yes,1366
undefined,undefined,undefined,undefined,white,no,Mozilla,Netscape,"5.0 (Windows NT 10.0; Win64; x64) AppleWebKit/537.36 (KHTML, like Gecko) Chrome/97.0.4692.71 Safari/537.36 Edg/97.0.1072.62",xpyriment,legacy,legacy,0,uniform,0,0,0,0,24,24,24,0,0,74,74,74,74,74,0,74,0,1,1,1,1,1,0,1,12-02-22,12-02-22,13:53:48,Sat Mar 12 2022 13:53:48 GMT+0100 (Central European Standard Time),The main experiment item,yes,0,0,C:/Users/rrics/Documents/!!ResearchBMECOGSCI/gnet,0,0,0,prototype5.png,no,mono,no,18,no,black,no,no,768,1197,3.5.6,legacy,xpyriment,osweb,1.3.13,0,down,space,enter,down,24896,11746,20108,24896,2,legacy,680,1280,24,720,24,0,0,1280,1647089685134,1024,2,48000,-16,experiment,p2sarrshacol1.png,1,odd,Win32,93,123675,120661,93,93,632867,634375,627864,125195,627864,93,666813,668320,663809,634377,663809,visual_patterns,0,0,0,yes,1366
undefined,undefined,undefined,undefined,white,no,Mozilla,Netscape,"5.0 (Windows NT 10.0; Win64; x64) AppleWebKit/537.36 (KHTML, like Gecko) Chrome/97.0.4692.71 Safari/537.36 Edg/97.0.1072.62",xpyriment,legacy,legacy,0,uniform,0,0,0,0,24,24,24,0,0,74,74,74,74,74,0,74,0,2,2,2,2,2,0,2,12-02-22,12-02-22,13:53:48,Sat Mar 12 2022 13:53:48 GMT+0100 (Central European Standard Time),The main experiment item,yes,0,0,C:/Users/rrics/Documents/!!ResearchBMECOGSCI/gnet,0,0,0,prototype5.png,no,mono,no,18,no,black,no,no,768,1197,3.5.6,legacy,xpyriment,osweb,1.3.13,0,down,space,enter,down,24896,11746,20108,24896,2,legacy,680,1280,24,720,24,0,0,1280,1647089685134,1024,2,48000,-16,experiment,p4sarr4.png,1,odd,Win32,93,123675,120661,93,93,632867,634375,627864,125195,627864,93,671337,672853,668335,634377,668334,visual_patterns,0,0,0,yes,1366
undefined,undefined,undefined,undefined,white,no,Mozilla,Netscape,"5.0 (Windows NT 10.0; Win64; x64) AppleWebKit/537.36 (KHTML, like Gecko) Chrome/97.0.4692.71 Safari/537.36 Edg/97.0.1072.62",xpyriment,legacy,legacy,0,uniform,0,0,0,0,24,24,24,0,0,74,74,74,74,74,0,74,0,3,3,3,3,3,0,3,12-02-22,12-02-22,13:53:48,Sat Mar 12 2022 13:53:48 GMT+0100 (Central European Standard Time),The main experiment item,yes,0,0,C:/Users/rrics/Documents/!!ResearchBMECOGSCI/gnet,0,0,0,prototype5.png,no,mono,no,18,no,black,no,no,768,1197,3.5.6,legacy,xpyriment,osweb,1.3.13,0,down,space,enter,down,24896,11746,20108,24896,2,legacy,680,1280,24,720,24,0,0,1280,1647089685134,1024,2,48000,-16,experiment,p5sarrsha2.png,1,odd,Win32,93,123675,120661,93,93,632867,634375,627864,125195,627864,93,675861,677369,672861,634377,672861,visual_patterns,0,0,0,yes,1366
undefined,undefined,undefined,undefined,white,no,Mozilla,Netscape,"5.0 (Windows NT 10.0; Win64; x64) AppleWebKit/537.36 (KHTML, like Gecko) Chrome/97.0.4692.71 Safari/537.36 Edg/97.0.1072.62",xpyriment,legacy,legacy,0,uniform,0,0,0,0,24,24,24,0,0,74,74,74,74,74,0,74,0,4,4,4,4,4,0,4,12-02-22,12-02-22,13:53:48,Sat Mar 12 2022 13:53:48 GMT+0100 (Central European Standard Time),The main experiment item,yes,0,0,C:/Users/rrics/Documents/!!ResearchBMECOGSCI/gnet,0,0,0,prototype5.png,no,mono,no,18,no,black,no,no,768,1197,3.5.6,legacy,xpyriment,osweb,1.3.13,0,down,space,enter,down,24896,11746,20108,24896,2,legacy,680,1280,24,720,24,0,0,1280,1647089685134,1024,2,48000,-16,experiment,p7sarr2.png,1,odd,Win32,93,123675,120661,93,93,632867,634375,627864,125195,627864,93,680379,681885,677377,634377,677377,visual_patterns,0,0,0,yes,1366
undefined,undefined,undefined,undefined,white,no,Mozilla,Netscape,"5.0 (Windows NT 10.0; Win64; x64) AppleWebKit/537.36 (KHTML, like Gecko) Chrome/97.0.4692.71 Safari/537.36 Edg/97.0.1072.62",xpyriment,legacy,legacy,0,uniform,0,0,0,0,24,24,24,0,0,74,74,74,74,74,0,74,0,5,5,5,5,5,0,5,12-02-22,12-02-22,13:53:48,Sat Mar 12 2022 13:53:48 GMT+0100 (Central European Standard Time),The main experiment item,yes,0,0,C:/Users/rrics/Documents/!!ResearchBMECOGSCI/gnet,0,0,0,prototype5.png,no,mono,no,18,no,black,no,no,768,1197,3.5.6,legacy,xpyriment,osweb,1.3.13,0,down,space,enter,down,24896,11746,20108,24896,2,legacy,680,1280,24,720,24,0,0,1280,1647089685134,1024,2,48000,-16,experiment,p1sarrsha4.png,1,odd,Win32,93,123675,120661,93,93,632867,634375,627864,125195,627864,93,684895,686401,681896,634377,681896,visual_patterns,0,0,0,yes,1366
undefined,undefined,undefined,undefined,white,no,Mozilla,Netscape,"5.0 (Windows NT 10.0; Win64; x64) AppleWebKit/537.36 (KHTML, like Gecko) Chrome/97.0.4692.71 Safari/537.36 Edg/97.0.1072.62",xpyriment,legacy,legacy,0,uniform,0,0,0,0,24,24,24,0,0,74,74,74,74,74,0,74,0,6,6,6,6,6,0,6,12-02-22,12-02-22,13:53:48,Sat Mar 12 2022 13:53:48 GMT+0100 (Central European Standard Time),The main experiment item,yes,0,0,C:/Users/rrics/Documents/!!ResearchBMECOGSCI/gnet,0,0,0,prototype5.png,no,mono,no,18,no,black,no,no,768,1197,3.5.6,legacy,xpyriment,osweb,1.3.13,0,down,space,enter,down,24896,11746,20108,24896,2,legacy,680,1280,24,720,24,0,0,1280,1647089685134,1024,2,48000,-16,experiment,p3sarrcol2.png,1,odd,Win32,93,123675,120661,93,93,632867,634375,627864,125195,627864,93,689410,690918,686411,634377,686411,visual_patterns,0,0,0,yes,1366
undefined,undefined,undefined,undefined,white,no,Mozilla,Netscape,"5.0 (Windows NT 10.0; Win64; x64) AppleWebKit/537.36 (KHTML, like Gecko) Chrome/97.0.4692.71 Safari/537.36 Edg/97.0.1072.62",xpyriment,legacy,legacy,0,uniform,0,0,0,0,24,24,24,0,0,74,74,74,74,74,0,74,0,7,7,7,7,7,0,7,12-02-22,12-02-22,13:53:48,Sat Mar 12 2022 13:53:48 GMT+0100 (Central European Standard Time),The main experiment item,yes,0,0,C:/Users/rrics/Documents/!!ResearchBMECOGSCI/gnet,0,0,0,prototype5.png,no,mono,no,18,no,black,no,no,768,1197,3.5.6,legacy,xpyriment,osweb,1.3.13,0,down,space,enter,down,24896,11746,20108,24896,2,legacy,680,1280,24,720,24,0,0,1280,1647089685134,1024,2,48000,-16,experiment,p3sarrcol3.png,1,odd,Win32,93,123675,120661,93,93,632867,634375,627864,125195,627864,93,693948,695451,690946,634377,690946,visual_patterns,0,0,0,yes,1366
undefined,undefined,undefined,undefined,white,no,Mozilla,Netscape,"5.0 (Windows NT 10.0; Win64; x64) AppleWebKit/537.36 (KHTML, like Gecko) Chrome/97.0.4692.71 Safari/537.36 Edg/97.0.1072.62",xpyriment,legacy,legacy,0,uniform,0,0,0,0,24,24,24,0,0,74,74,74,74,74,0,74,0,8,8,8,8,8,0,8,12-02-22,12-02-22,13:53:48,Sat Mar 12 2022 13:53:48 GMT+0100 (Central European Standard Time),The main experiment item,yes,0,0,C:/Users/rrics/Documents/!!ResearchBMECOGSCI/gnet,0,0,0,prototype5.png,no,mono,no,18,no,black,no,no,768,1197,3.5.6,legacy,xpyriment,osweb,1.3.13,0,down,space,enter,down,24896,11746,20108,24896,2,legacy,680,1280,24,720,24,0,0,1280,1647089685134,1024,2,48000,-16,experiment,p1sarrsha1.png,1,odd,Win32,93,123675,120661,93,93,632867,634375,627864,125195,627864,93,698457,699967,695457,634377,695456,visual_patterns,0,0,0,yes,1366
undefined,undefined,undefined,undefined,white,no,Mozilla,Netscape,"5.0 (Windows NT 10.0; Win64; x64) AppleWebKit/537.36 (KHTML, like Gecko) Chrome/97.0.4692.71 Safari/537.36 Edg/97.0.1072.62",xpyriment,legacy,legacy,0,uniform,0,0,0,0,24,24,24,0,0,74,74,74,74,74,0,74,0,9,9,9,9,9,0,9,12-02-22,12-02-22,13:53:48,Sat Mar 12 2022 13:53:48 GMT+0100 (Central European Standard Time),The main experiment item,yes,0,0,C:/Users/rrics/Documents/!!ResearchBMECOGSCI/gnet,0,0,0,prototype5.png,no,mono,no,18,no,black,no,no,768,1197,3.5.6,legacy,xpyriment,osweb,1.3.13,0,down,space,enter,down,24896,11746,20108,24896,2,legacy,680,1280,24,720,24,0,0,1280,1647089685134,1024,2,48000,-16,experiment,p4sarr1.png,1,odd,Win32,93,123675,120661,93,93,632867,634375,627864,125195,627864,93,702987,704500,699985,634377,699985,visual_patterns,0,0,0,yes,1366
undefined,undefined,undefined,undefined,white,no,Mozilla,Netscape,"5.0 (Windows NT 10.0; Win64; x64) AppleWebKit/537.36 (KHTML, like Gecko) Chrome/97.0.4692.71 Safari/537.36 Edg/97.0.1072.62",xpyriment,legacy,legacy,0,uniform,0,0,0,0,24,24,24,0,0,74,74,74,74,74,0,74,0,10,10,10,10,10,0,10,12-02-22,12-02-22,13:53:48,Sat Mar 12 2022 13:53:48 GMT+0100 (Central European Standard Time),The main experiment item,yes,0,0,C:/Users/rrics/Documents/!!ResearchBMECOGSCI/gnet,0,0,0,prototype5.png,no,mono,no,18,no,black,no,no,768,1197,3.5.6,legacy,xpyriment,osweb,1.3.13,0,down,space,enter,down,24896,11746,20108,24896,2,legacy,680,1280,24,720,24,0,0,1280,1647089685134,1024,2,48000,-16,experiment,p9sarr2.png,1,odd,Win32,93,123675,120661,93,93,632867,634375,627864,125195,627864,93,707521,709033,704517,634377,704517,visual_patterns,0,0,0,yes,1366
undefined,undefined,undefined,undefined,white,no,Mozilla,Netscape,"5.0 (Windows NT 10.0; Win64; x64) AppleWebKit/537.36 (KHTML, like Gecko) Chrome/97.0.4692.71 Safari/537.36 Edg/97.0.1072.62",xpyriment,legacy,legacy,0,uniform,0,0,0,0,24,24,24,0,0,74,74,74,74,74,0,74,0,11,11,11,11,11,0,11,12-02-22,12-02-22,13:53:48,Sat Mar 12 2022 13:53:48 GMT+0100 (Central European Standard Time),The main experiment item,yes,0,0,C:/Users/rrics/Documents/!!ResearchBMECOGSCI/gnet,0,0,0,prototype5.png,no,mono,no,18,no,black,no,no,768,1197,3.5.6,legacy,xpyriment,osweb,1.3.13,0,down,space,enter,down,24896,11746,20108,24896,2,legacy,680,1280,24,720,24,0,0,1280,1647089685134,1024,2,48000,-16,experiment,p1sarr2.png,1,odd,Win32,93,123675,120661,93,93,632867,634375,627864,125195,627864,93,712052,713565,709048,634377,709048,visual_patterns,0,0,0,yes,1366
undefined,undefined,undefined,undefined,white,no,Mozilla,Netscape,"5.0 (Windows NT 10.0; Win64; x64) AppleWebKit/537.36 (KHTML, like Gecko) Chrome/97.0.4692.71 Safari/537.36 Edg/97.0.1072.62",xpyriment,legacy,legacy,0,uniform,0,0,0,0,24,24,24,0,0,74,74,74,74,74,0,74,0,12,12,12,12,12,0,12,12-02-22,12-02-22,13:53:48,Sat Mar 12 2022 13:53:48 GMT+0100 (Central European Standard Time),The main experiment item,yes,0,0,C:/Users/rrics/Documents/!!ResearchBMECOGSCI/gnet,0,0,0,prototype5.png,no,mono,no,18,no,black,no,no,768,1197,3.5.6,legacy,xpyriment,osweb,1.3.13,0,down,space,enter,down,24896,11746,20108,24896,2,legacy,680,1280,24,720,24,0,0,1280,1647089685134,1024,2,48000,-16,experiment,p3sarrcol4.png,1,odd,Win32,93,123675,120661,93,93,632867,634375,627864,125195,627864,93,716580,718081,713580,634377,713580,visual_patterns,0,0,0,yes,1366
undefined,undefined,undefined,undefined,white,no,Mozilla,Netscape,"5.0 (Windows NT 10.0; Win64; x64) AppleWebKit/537.36 (KHTML, like Gecko) Chrome/97.0.4692.71 Safari/537.36 Edg/97.0.1072.62",xpyriment,legacy,legacy,0,uniform,0,0,0,0,24,24,24,0,0,74,74,74,74,74,0,74,0,13,13,13,13,13,0,13,12-02-22,12-02-22,13:53:48,Sat Mar 12 2022 13:53:48 GMT+0100 (Central European Standard Time),The main experiment item,yes,0,0,C:/Users/rrics/Documents/!!ResearchBMECOGSCI/gnet,0,0,0,prototype5.png,no,mono,no,18,no,black,no,no,768,1197,3.5.6,legacy,xpyriment,osweb,1.3.13,0,down,space,enter,down,24896,11746,20108,24896,2,legacy,680,1280,24,720,24,0,0,1280,1647089685134,1024,2,48000,-16,experiment,p2sarrshacol2.png,1,odd,Win32,93,123675,120661,93,93,632867,634375,627864,125195,627864,93,721095,722598,718095,634377,718095,visual_patterns,0,0,0,yes,1366
undefined,undefined,undefined,undefined,white,no,Mozilla,Netscape,"5.0 (Windows NT 10.0; Win64; x64) AppleWebKit/537.36 (KHTML, like Gecko) Chrome/97.0.4692.71 Safari/537.36 Edg/97.0.1072.62",xpyriment,legacy,legacy,0,uniform,0,0,0,0,24,24,24,0,0,74,74,74,74,74,0,74,0,14,14,14,14,14,0,14,12-02-22,12-02-22,13:53:48,Sat Mar 12 2022 13:53:48 GMT+0100 (Central European Standard Time),The main experiment item,yes,0,0,C:/Users/rrics/Documents/!!ResearchBMECOGSCI/gnet,0,0,0,prototype5.png,no,mono,no,18,no,black,no,no,768,1197,3.5.6,legacy,xpyriment,osweb,1.3.13,0,down,space,enter,down,24896,11746,20108,24896,2,legacy,680,1280,24,720,24,0,0,1280,1647089685134,1024,2,48000,-16,experiment,p6sarr1.png,1,odd,Win32,93,123675,120661,93,93,632867,634375,627864,125195,627864,93,725617,727130,722615,634377,722615,visual_patterns,0,0,0,yes,1366
undefined,undefined,undefined,undefined,white,no,Mozilla,Netscape,"5.0 (Windows NT 10.0; Win64; x64) AppleWebKit/537.36 (KHTML, like Gecko) Chrome/97.0.4692.71 Safari/537.36 Edg/97.0.1072.62",xpyriment,legacy,legacy,0,uniform,0,0,0,0,24,24,24,0,0,74,74,74,74,74,0,74,0,15,15,15,15,15,0,15,12-02-22,12-02-22,13:53:48,Sat Mar 12 2022 13:53:48 GMT+0100 (Central European Standard Time),The main experiment item,yes,0,0,C:/Users/rrics/Documents/!!ResearchBMECOGSCI/gnet,0,0,0,prototype5.png,no,mono,no,18,no,black,no,no,768,1197,3.5.6,legacy,xpyriment,osweb,1.3.13,0,down,space,enter,down,24896,11746,20108,24896,2,legacy,680,1280,24,720,24,0,0,1280,1647089685134,1024,2,48000,-16,experiment,p4sarrshacol3.png,1,odd,Win32,93,123675,120661,93,93,632867,634375,627864,125195,627864,93,730152,731663,727152,634377,727152,visual_patterns,0,0,0,yes,1366
undefined,undefined,undefined,undefined,white,no,Mozilla,Netscape,"5.0 (Windows NT 10.0; Win64; x64) AppleWebKit/537.36 (KHTML, like Gecko) Chrome/97.0.4692.71 Safari/537.36 Edg/97.0.1072.62",xpyriment,legacy,legacy,0,uniform,0,0,0,0,24,24,24,0,0,74,74,74,74,74,0,74,0,16,16,16,16,16,0,16,12-02-22,12-02-22,13:53:48,Sat Mar 12 2022 13:53:48 GMT+0100 (Central European Standard Time),The main experiment item,yes,0,0,C:/Users/rrics/Documents/!!ResearchBMECOGSCI/gnet,0,0,0,prototype5.png,no,mono,no,18,no,black,no,no,768,1197,3.5.6,legacy,xpyriment,osweb,1.3.13,0,down,space,enter,down,24896,11746,20108,24896,2,legacy,680,1280,24,720,24,0,0,1280,1647089685134,1024,2,48000,-16,experiment,p4sarrshacol4.png,1,odd,Win32,93,123675,120661,93,93,632867,634375,627864,125195,627864,93,734680,736196,731681,634377,731681,visual_patterns,0,0,0,yes,1366
undefined,undefined,undefined,undefined,white,no,Mozilla,Netscape,"5.0 (Windows NT 10.0; Win64; x64) AppleWebKit/537.36 (KHTML, like Gecko) Chrome/97.0.4692.71 Safari/537.36 Edg/97.0.1072.62",xpyriment,legacy,legacy,0,uniform,0,0,0,0,24,24,24,0,0,74,74,74,74,74,0,74,0,17,17,17,17,17,0,17,12-02-22,12-02-22,13:53:48,Sat Mar 12 2022 13:53:48 GMT+0100 (Central European Standard Time),The main experiment item,yes,0,0,C:/Users/rrics/Documents/!!ResearchBMECOGSCI/gnet,0,0,0,prototype5.png,no,mono,no,18,no,black,no,no,768,1197,3.5.6,legacy,xpyriment,osweb,1.3.13,0,down,space,enter,down,24896,11746,20108,24896,2,legacy,680,1280,24,720,24,0,0,1280,1647089685134,1024,2,48000,-16,experiment,p2sarrcol1.png,1,odd,Win32,93,123675,120661,93,93,632867,634375,627864,125195,627864,93,739207,740711,736202,634377,736202,visual_patterns,0,0,0,yes,1366
undefined,undefined,undefined,undefined,white,no,Mozilla,Netscape,"5.0 (Windows NT 10.0; Win64; x64) AppleWebKit/537.36 (KHTML, like Gecko) Chrome/97.0.4692.71 Safari/537.36 Edg/97.0.1072.62",xpyriment,legacy,legacy,0,uniform,0,0,0,0,24,24,24,0,0,74,74,74,74,74,0,74,0,18,18,18,18,18,0,18,12-02-22,12-02-22,13:53:48,Sat Mar 12 2022 13:53:48 GMT+0100 (Central European Standard Time),The main experiment item,yes,0,0,C:/Users/rrics/Documents/!!ResearchBMECOGSCI/gnet,0,0,0,prototype5.png,no,mono,no,18,no,black,no,no,768,1197,3.5.6,legacy,xpyriment,osweb,1.3.13,0,down,space,enter,down,24896,11746,20108,24896,2,legacy,680,1280,24,720,24,0,0,1280,1647089685134,1024,2,48000,-16,experiment,p1sarr4.png,1,odd,Win32,93,123675,120661,93,93,632867,634375,627864,125195,627864,93,743723,745228,740720,634377,740720,visual_patterns,0,0,0,yes,1366
undefined,undefined,undefined,undefined,white,no,Mozilla,Netscape,"5.0 (Windows NT 10.0; Win64; x64) AppleWebKit/537.36 (KHTML, like Gecko) Chrome/97.0.4692.71 Safari/537.36 Edg/97.0.1072.62",xpyriment,legacy,legacy,0,uniform,0,0,0,0,24,24,24,0,0,74,74,74,74,74,0,74,0,19,19,19,19,19,0,19,12-02-22,12-02-22,13:53:48,Sat Mar 12 2022 13:53:48 GMT+0100 (Central European Standard Time),The main experiment item,yes,0,0,C:/Users/rrics/Documents/!!ResearchBMECOGSCI/gnet,0,0,0,prototype5.png,no,mono,no,18,no,black,no,no,768,1197,3.5.6,legacy,xpyriment,osweb,1.3.13,0,down,space,enter,down,24896,11746,20108,24896,2,legacy,680,1280,24,720,24,0,0,1280,1647089685134,1024,2,48000,-16,experiment,p10sarr1.png,1,odd,Win32,93,123675,120661,93,93,632867,634375,627864,125195,627864,93,748243,749745,745243,634377,745243,visual_patterns,0,0,0,yes,1366
undefined,undefined,undefined,undefined,white,no,Mozilla,Netscape,"5.0 (Windows NT 10.0; Win64; x64) AppleWebKit/537.36 (KHTML, like Gecko) Chrome/97.0.4692.71 Safari/537.36 Edg/97.0.1072.62",xpyriment,legacy,legacy,0,uniform,0,0,0,0,24,24,24,0,0,74,74,74,74,74,0,74,0,20,20,20,20,20,0,20,12-02-22,12-02-22,13:53:48,Sat Mar 12 2022 13:53:48 GMT+0100 (Central European Standard Time),The main experiment item,yes,0,0,C:/Users/rrics/Documents/!!ResearchBMECOGSCI/gnet,0,0,0,prototype5.png,no,mono,no,18,no,black,no,no,768,1197,3.5.6,legacy,xpyriment,osweb,1.3.13,0,down,space,enter,down,24896,11746,20108,24896,2,legacy,680,1280,24,720,24,0,0,1280,1647089685134,1024,2,48000,-16,experiment,p8sarr3.png,1,odd,Win32,93,123675,120661,93,93,632867,634375,627864,125195,627864,93,752763,754278,749766,634377,749766,visual_patterns,0,0,0,yes,1366
undefined,undefined,undefined,undefined,white,no,Mozilla,Netscape,"5.0 (Windows NT 10.0; Win64; x64) AppleWebKit/537.36 (KHTML, like Gecko) Chrome/97.0.4692.71 Safari/537.36 Edg/97.0.1072.62",xpyriment,legacy,legacy,0,uniform,0,0,0,0,24,24,24,0,0,74,74,74,74,74,0,74,0,21,21,21,21,21,0,21,12-02-22,12-02-22,13:53:48,Sat Mar 12 2022 13:53:48 GMT+0100 (Central European Standard Time),The main experiment item,yes,0,0,C:/Users/rrics/Documents/!!ResearchBMECOGSCI/gnet,0,0,0,prototype5.png,no,mono,no,18,no,black,no,no,768,1197,3.5.6,legacy,xpyriment,osweb,1.3.13,0,down,space,enter,down,24896,11746,20108,24896,2,legacy,680,1280,24,720,24,0,0,1280,1647089685134,1024,2,48000,-16,experiment,p9sarr4.png,1,odd,Win32,93,123675,120661,93,93,632867,634375,627864,125195,627864,93,757297,758810,754297,634377,754297,visual_patterns,0,0,0,yes,1366
undefined,undefined,undefined,undefined,white,no,Mozilla,Netscape,"5.0 (Windows NT 10.0; Win64; x64) AppleWebKit/537.36 (KHTML, like Gecko) Chrome/97.0.4692.71 Safari/537.36 Edg/97.0.1072.62",xpyriment,legacy,legacy,0,uniform,0,0,0,0,24,24,24,0,0,74,74,74,74,74,0,74,0,22,22,22,22,22,0,22,12-02-22,12-02-22,13:53:48,Sat Mar 12 2022 13:53:48 GMT+0100 (Central European Standard Time),The main experiment item,yes,0,0,C:/Users/rrics/Documents/!!ResearchBMECOGSCI/gnet,0,0,0,prototype5.png,no,mono,no,18,no,black,no,no,768,1197,3.5.6,legacy,xpyriment,osweb,1.3.13,0,down,space,enter,down,24896,11746,20108,24896,2,legacy,680,1280,24,720,24,0,0,1280,1647089685134,1024,2,48000,-16,experiment,p5sarrcol2.png,1,odd,Win32,93,123675,120661,93,93,632867,634375,627864,125195,627864,93,761834,763343,758834,634377,758834,visual_patterns,0,0,0,yes,1366
undefined,undefined,undefined,undefined,white,no,Mozilla,Netscape,"5.0 (Windows NT 10.0; Win64; x64) AppleWebKit/537.36 (KHTML, like Gecko) Chrome/97.0.4692.71 Safari/537.36 Edg/97.0.1072.62",xpyriment,legacy,legacy,0,uniform,0,0,0,0,24,24,24,0,0,74,74,74,74,74,0,74,0,23,23,23,23,23,0,23,12-02-22,12-02-22,13:53:48,Sat Mar 12 2022 13:53:48 GMT+0100 (Central European Standard Time),The main experiment item,yes,0,0,C:/Users/rrics/Documents/!!ResearchBMECOGSCI/gnet,0,0,0,prototype5.png,no,mono,no,18,no,black,no,no,768,1197,3.5.6,legacy,xpyriment,osweb,1.3.13,0,down,space,enter,down,24896,11746,20108,24896,2,legacy,680,1280,24,720,24,0,0,1280,1647089685134,1024,2,48000,-16,experiment,p7sarr4.png,1,odd,Win32,93,123675,120661,93,93,632867,634375,627864,125195,627864,93,766364,767875,763365,634377,763365,visual_patterns,0,0,0,yes,1366
undefined,undefined,undefined,undefined,white,no,Mozilla,Netscape,"5.0 (Windows NT 10.0; Win64; x64) AppleWebKit/537.36 (KHTML, like Gecko) Chrome/97.0.4692.71 Safari/537.36 Edg/97.0.1072.62",xpyriment,legacy,legacy,0,uniform,0,0,0,0,24,24,24,0,0,74,74,74,74,74,0,74,0,24,24,24,24,24,0,24,12-02-22,12-02-22,13:53:48,Sat Mar 12 2022 13:53:48 GMT+0100 (Central European Standard Time),The main experiment item,yes,0,0,C:/Users/rrics/Documents/!!ResearchBMECOGSCI/gnet,0,0,0,prototype5.png,no,mono,no,18,no,black,no,no,768,1197,3.5.6,legacy,xpyriment,osweb,1.3.13,0,down,space,enter,down,24896,11746,20108,24896,2,legacy,680,1280,24,720,24,0,0,1280,1647089685134,1024,2,48000,-16,experiment,p3sarrsha3.png,1,odd,Win32,93,123675,120661,93,93,632867,634375,627864,125195,627864,93,770896,772408,767898,634377,767898,visual_patterns,0,0,0,yes,1366
undefined,undefined,undefined,undefined,white,no,Mozilla,Netscape,"5.0 (Windows NT 10.0; Win64; x64) AppleWebKit/537.36 (KHTML, like Gecko) Chrome/97.0.4692.71 Safari/537.36 Edg/97.0.1072.62",xpyriment,legacy,legacy,0,uniform,0,0,0,0,24,24,24,0,0,74,74,74,74,74,0,74,0,25,25,25,25,25,0,25,12-02-22,12-02-22,13:53:48,Sat Mar 12 2022 13:53:48 GMT+0100 (Central European Standard Time),The main experiment item,yes,0,0,C:/Users/rrics/Documents/!!ResearchBMECOGSCI/gnet,0,0,0,prototype5.png,no,mono,no,18,no,black,no,no,768,1197,3.5.6,legacy,xpyriment,osweb,1.3.13,0,down,space,enter,down,24896,11746,20108,24896,2,legacy,680,1280,24,720,24,0,0,1280,1647089685134,1024,2,48000,-16,experiment,p8sarr4.png,1,odd,Win32,93,123675,120661,93,93,632867,634375,627864,125195,627864,93,775424,776940,772424,634377,772424,visual_patterns,0,0,0,yes,1366
undefined,undefined,undefined,undefined,white,no,Mozilla,Netscape,"5.0 (Windows NT 10.0; Win64; x64) AppleWebKit/537.36 (KHTML, like Gecko) Chrome/97.0.4692.71 Safari/537.36 Edg/97.0.1072.62",xpyriment,legacy,legacy,0,uniform,0,0,0,0,24,24,24,0,0,74,74,74,74,74,0,74,0,26,26,26,26,26,0,26,12-02-22,12-02-22,13:53:48,Sat Mar 12 2022 13:53:48 GMT+0100 (Central European Standard Time),The main experiment item,yes,0,0,C:/Users/rrics/Documents/!!ResearchBMECOGSCI/gnet,0,0,0,prototype5.png,no,mono,no,18,no,black,no,no,768,1197,3.5.6,legacy,xpyriment,osweb,1.3.13,0,down,space,enter,down,24896,11746,20108,24896,2,legacy,680,1280,24,720,24,0,0,1280,1647089685134,1024,2,48000,-16,experiment,p2sarrshacol4.png,1,odd,Win32,93,123675,120661,93,93,632867,634375,627864,125195,627864,93,779956,781473,776960,634377,776960,visual_patterns,0,0,0,yes,1366
undefined,undefined,undefined,undefined,white,no,Mozilla,Netscape,"5.0 (Windows NT 10.0; Win64; x64) AppleWebKit/537.36 (KHTML, like Gecko) Chrome/97.0.4692.71 Safari/537.36 Edg/97.0.1072.62",xpyriment,legacy,legacy,0,uniform,0,0,0,0,24,24,24,0,0,74,74,74,74,74,0,74,0,27,27,27,27,27,0,27,12-02-22,12-02-22,13:53:48,Sat Mar 12 2022 13:53:48 GMT+0100 (Central European Standard Time),The main experiment item,yes,0,0,C:/Users/rrics/Documents/!!ResearchBMECOGSCI/gnet,0,0,0,prototype5.png,no,mono,no,18,no,black,no,no,768,1197,3.5.6,legacy,xpyriment,osweb,1.3.13,0,down,space,enter,down,24896,11746,20108,24896,2,legacy,680,1280,24,720,24,0,0,1280,1647089685134,1024,2,48000,-16,experiment,p4sarrshacol1.png,1,odd,Win32,93,123675,120661,93,93,632867,634375,627864,125195,627864,93,784502,786005,781499,634377,781499,visual_patterns,0,0,0,yes,1366
undefined,undefined,undefined,undefined,white,no,Mozilla,Netscape,"5.0 (Windows NT 10.0; Win64; x64) AppleWebKit/537.36 (KHTML, like Gecko) Chrome/97.0.4692.71 Safari/537.36 Edg/97.0.1072.62",xpyriment,legacy,legacy,0,uniform,0,0,0,0,24,24,24,0,0,74,74,74,74,74,0,74,0,28,28,28,28,28,0,28,12-02-22,12-02-22,13:53:48,Sat Mar 12 2022 13:53:48 GMT+0100 (Central European Standard Time),The main experiment item,yes,0,0,C:/Users/rrics/Documents/!!ResearchBMECOGSCI/gnet,0,0,0,prototype5.png,no,mono,no,18,no,black,no,no,768,1197,3.5.6,legacy,xpyriment,osweb,1.3.13,0,down,space,enter,down,24896,11746,20108,24896,2,legacy,680,1280,24,720,24,0,0,1280,1647089685134,1024,2,48000,-16,experiment,p1sarrshacol3.png,1,odd,Win32,93,123675,120661,93,93,632867,634375,627864,125195,627864,93,789011,790522,786010,634377,786010,visual_patterns,0,0,0,yes,1366
undefined,undefined,undefined,undefined,white,no,Mozilla,Netscape,"5.0 (Windows NT 10.0; Win64; x64) AppleWebKit/537.36 (KHTML, like Gecko) Chrome/97.0.4692.71 Safari/537.36 Edg/97.0.1072.62",xpyriment,legacy,legacy,0,uniform,0,0,0,0,24,24,24,0,0,74,74,74,74,74,0,74,0,29,29,29,29,29,0,29,12-02-22,12-02-22,13:53:48,Sat Mar 12 2022 13:53:48 GMT+0100 (Central European Standard Time),The main experiment item,yes,0,0,C:/Users/rrics/Documents/!!ResearchBMECOGSCI/gnet,0,0,0,prototype5.png,no,mono,no,18,no,black,no,no,768,1197,3.5.6,legacy,xpyriment,osweb,1.3.13,0,down,space,enter,down,24896,11746,20108,24896,2,legacy,680,1280,24,720,24,0,0,1280,1647089685134,1024,2,48000,-16,experiment,p2sarrsha1.png,1,odd,Win32,93,123675,120661,93,93,632867,634375,627864,125195,627864,93,793538,795055,790539,634377,790539,visual_patterns,0,0,0,yes,1366
undefined,undefined,undefined,undefined,white,no,Mozilla,Netscape,"5.0 (Windows NT 10.0; Win64; x64) AppleWebKit/537.36 (KHTML, like Gecko) Chrome/97.0.4692.71 Safari/537.36 Edg/97.0.1072.62",xpyriment,legacy,legacy,0,uniform,0,0,0,0,24,24,24,0,0,74,74,74,74,74,0,74,0,30,30,30,30,30,0,30,12-02-22,12-02-22,13:53:48,Sat Mar 12 2022 13:53:48 GMT+0100 (Central European Standard Time),The main experiment item,yes,0,0,C:/Users/rrics/Documents/!!ResearchBMECOGSCI/gnet,0,0,0,prototype5.png,no,mono,no,18,no,black,no,no,768,1197,3.5.6,legacy,xpyriment,osweb,1.3.13,0,down,space,enter,down,24896,11746,20108,24896,2,legacy,680,1280,24,720,24,0,0,1280,1647089685134,1024,2,48000,-16,experiment,p3sarr2.png,1,odd,Win32,93,123675,120661,93,93,632867,634375,627864,125195,627864,93,798075,799588,795071,634377,795071,visual_patterns,0,0,0,yes,1366
undefined,undefined,undefined,undefined,white,no,Mozilla,Netscape,"5.0 (Windows NT 10.0; Win64; x64) AppleWebKit/537.36 (KHTML, like Gecko) Chrome/97.0.4692.71 Safari/537.36 Edg/97.0.1072.62",xpyriment,legacy,legacy,0,uniform,0,0,0,0,24,24,24,0,0,74,74,74,74,74,0,74,0,31,31,31,31,31,0,31,12-02-22,12-02-22,13:53:48,Sat Mar 12 2022 13:53:48 GMT+0100 (Central European Standard Time),The main experiment item,yes,0,0,C:/Users/rrics/Documents/!!ResearchBMECOGSCI/gnet,0,0,0,prototype5.png,no,mono,no,18,no,black,no,no,768,1197,3.5.6,legacy,xpyriment,osweb,1.3.13,0,down,space,enter,down,24896,11746,20108,24896,2,legacy,680,1280,24,720,24,0,0,1280,1647089685134,1024,2,48000,-16,experiment,p3sarrshacol3.png,1,odd,Win32,93,123675,120661,93,93,632867,634375,627864,125195,627864,93,802603,804104,799609,634377,799609,visual_patterns,0,0,0,yes,1366
undefined,undefined,undefined,undefined,white,no,Mozilla,Netscape,"5.0 (Windows NT 10.0; Win64; x64) AppleWebKit/537.36 (KHTML, like Gecko) Chrome/97.0.4692.71 Safari/537.36 Edg/97.0.1072.62",xpyriment,legacy,legacy,0,uniform,0,0,0,0,24,24,24,0,0,74,74,74,74,74,0,74,0,32,32,32,32,32,0,32,12-02-22,12-02-22,13:53:48,Sat Mar 12 2022 13:53:48 GMT+0100 (Central European Standard Time),The main experiment item,yes,0,0,C:/Users/rrics/Documents/!!ResearchBMECOGSCI/gnet,0,0,0,prototype5.png,no,mono,no,18,no,black,no,no,768,1197,3.5.6,legacy,xpyriment,osweb,1.3.13,0,down,space,enter,down,24896,11746,20108,24896,2,legacy,680,1280,24,720,24,0,0,1280,1647089685134,1024,2,48000,-16,experiment,p2sarrcol4.png,1,odd,Win32,93,123675,120661,93,93,632867,634375,627864,125195,627864,93,807124,808636,804124,634377,804124,visual_patterns,0,0,0,yes,1366
undefined,undefined,undefined,undefined,white,no,Mozilla,Netscape,"5.0 (Windows NT 10.0; Win64; x64) AppleWebKit/537.36 (KHTML, like Gecko) Chrome/97.0.4692.71 Safari/537.36 Edg/97.0.1072.62",xpyriment,legacy,legacy,0,uniform,0,0,0,0,24,24,24,0,0,74,74,74,74,74,0,74,0,33,33,33,33,33,0,33,12-02-22,12-02-22,13:53:48,Sat Mar 12 2022 13:53:48 GMT+0100 (Central European Standard Time),The main experiment item,yes,0,0,C:/Users/rrics/Documents/!!ResearchBMECOGSCI/gnet,0,0,0,prototype5.png,no,mono,no,18,no,black,no,no,768,1197,3.5.6,legacy,xpyriment,osweb,1.3.13,0,down,space,enter,down,24896,11746,20108,24896,2,legacy,680,1280,24,720,24,0,0,1280,1647089685134,1024,2,48000,-16,experiment,p5sarrcol1.png,1,odd,Win32,93,123675,120661,93,93,632867,634375,627864,125195,627864,93,811650,813153,808648,634377,808648,visual_patterns,0,0,0,yes,1366
undefined,undefined,undefined,undefined,white,no,Mozilla,Netscape,"5.0 (Windows NT 10.0; Win64; x64) AppleWebKit/537.36 (KHTML, like Gecko) Chrome/97.0.4692.71 Safari/537.36 Edg/97.0.1072.62",xpyriment,legacy,legacy,0,uniform,0,0,0,0,24,24,24,0,0,74,74,74,74,74,0,74,0,34,34,34,34,34,0,34,12-02-22,12-02-22,13:53:48,Sat Mar 12 2022 13:53:48 GMT+0100 (Central European Standard Time),The main experiment item,yes,0,0,C:/Users/rrics/Documents/!!ResearchBMECOGSCI/gnet,0,0,0,prototype5.png,no,mono,no,18,no,black,no,no,768,1197,3.5.6,legacy,xpyriment,osweb,1.3.13,0,down,space,enter,down,24896,11746,20108,24896,2,legacy,680,1280,24,720,24,0,0,1280,1647089685134,1024,2,48000,-16,experiment,p8sarr2.png,1,odd,Win32,93,123675,120661,93,93,632867,634375,627864,125195,627864,93,816170,817684,813167,634377,813167,visual_patterns,0,0,0,yes,1366
undefined,undefined,undefined,undefined,white,no,Mozilla,Netscape,"5.0 (Windows NT 10.0; Win64; x64) AppleWebKit/537.36 (KHTML, like Gecko) Chrome/97.0.4692.71 Safari/537.36 Edg/97.0.1072.62",xpyriment,legacy,legacy,0,uniform,0,0,0,0,24,24,24,0,0,74,74,74,74,74,0,74,0,35,35,35,35,35,0,35,12-02-22,12-02-22,13:53:48,Sat Mar 12 2022 13:53:48 GMT+0100 (Central European Standard Time),The main experiment item,yes,0,0,C:/Users/rrics/Documents/!!ResearchBMECOGSCI/gnet,0,0,0,prototype5.png,no,mono,no,18,no,black,no,no,768,1197,3.5.6,legacy,xpyriment,osweb,1.3.13,0,down,space,enter,down,24896,11746,20108,24896,2,legacy,680,1280,24,720,24,0,0,1280,1647089685134,1024,2,48000,-16,experiment,p5sarr3.png,1,odd,Win32,93,123675,120661,93,93,632867,634375,627864,125195,627864,93,820692,822201,817691,634377,817691,visual_patterns,0,0,0,yes,1366
undefined,undefined,undefined,undefined,white,no,Mozilla,Netscape,"5.0 (Windows NT 10.0; Win64; x64) AppleWebKit/537.36 (KHTML, like Gecko) Chrome/97.0.4692.71 Safari/537.36 Edg/97.0.1072.62",xpyriment,legacy,legacy,0,uniform,0,0,0,0,24,24,24,0,0,74,74,74,74,74,0,74,0,36,36,36,36,36,0,36,12-02-22,12-02-22,13:53:48,Sat Mar 12 2022 13:53:48 GMT+0100 (Central European Standard Time),The main experiment item,yes,0,0,C:/Users/rrics/Documents/!!ResearchBMECOGSCI/gnet,0,0,0,prototype5.png,no,mono,no,18,no,black,no,no,768,1197,3.5.6,legacy,xpyriment,osweb,1.3.13,0,down,space,enter,down,24896,11746,20108,24896,2,legacy,680,1280,24,720,24,0,0,1280,1647089685134,1024,2,48000,-16,experiment,p7sarr1.png,1,odd,Win32,93,123675,120661,93,93,632867,634375,627864,125195,627864,93,825219,826734,822219,634377,822219,visual_patterns,0,0,0,yes,1366
undefined,undefined,undefined,undefined,white,no,Mozilla,Netscape,"5.0 (Windows NT 10.0; Win64; x64) AppleWebKit/537.36 (KHTML, like Gecko) Chrome/97.0.4692.71 Safari/537.36 Edg/97.0.1072.62",xpyriment,legacy,legacy,0,uniform,0,0,0,0,24,24,24,0,0,74,74,74,74,74,0,74,0,37,37,37,37,37,0,37,12-02-22,12-02-22,13:53:48,Sat Mar 12 2022 13:53:48 GMT+0100 (Central European Standard Time),The main experiment item,yes,0,0,C:/Users/rrics/Documents/!!ResearchBMECOGSCI/gnet,0,0,0,prototype5.png,no,mono,no,18,no,black,no,no,768,1197,3.5.6,legacy,xpyriment,osweb,1.3.13,0,down,space,enter,down,24896,11746,20108,24896,2,legacy,680,1280,24,720,24,0,0,1280,1647089685134,1024,2,48000,-16,experiment,p1sarrcol4.png,1,odd,Win32,93,123675,120661,93,93,632867,634375,627864,125195,627864,93,829761,831267,826762,634377,826762,visual_patterns,0,0,0,yes,1366
undefined,undefined,undefined,undefined,white,no,Mozilla,Netscape,"5.0 (Windows NT 10.0; Win64; x64) AppleWebKit/537.36 (KHTML, like Gecko) Chrome/97.0.4692.71 Safari/537.36 Edg/97.0.1072.62",xpyriment,legacy,legacy,0,uniform,0,0,0,0,24,24,24,0,0,74,74,74,74,74,0,74,0,38,38,38,38,38,0,38,12-02-22,12-02-22,13:53:48,Sat Mar 12 2022 13:53:48 GMT+0100 (Central European Standard Time),The main experiment item,yes,0,0,C:/Users/rrics/Documents/!!ResearchBMECOGSCI/gnet,0,0,0,prototype5.png,no,mono,no,18,no,black,no,no,768,1197,3.5.6,legacy,xpyriment,osweb,1.3.13,0,down,space,enter,down,24896,11746,20108,24896,2,legacy,680,1280,24,720,24,0,0,1280,1647089685134,1024,2,48000,-16,experiment,p3sarrsha4.png,1,odd,Win32,93,123675,120661,93,93,632867,634375,627864,125195,627864,93,834288,835800,831287,634377,831287,visual_patterns,0,0,0,yes,1366
undefined,undefined,undefined,undefined,white,no,Mozilla,Netscape,"5.0 (Windows NT 10.0; Win64; x64) AppleWebKit/537.36 (KHTML, like Gecko) Chrome/97.0.4692.71 Safari/537.36 Edg/97.0.1072.62",xpyriment,legacy,legacy,0,uniform,0,0,0,0,24,24,24,0,0,74,74,74,74,74,0,74,0,39,39,39,39,39,0,39,12-02-22,12-02-22,13:53:48,Sat Mar 12 2022 13:53:48 GMT+0100 (Central European Standard Time),The main experiment item,yes,0,0,C:/Users/rrics/Documents/!!ResearchBMECOGSCI/gnet,0,0,0,prototype5.png,no,mono,no,18,no,black,no,no,768,1197,3.5.6,legacy,xpyriment,osweb,1.3.13,0,down,space,enter,down,24896,11746,20108,24896,2,legacy,680,1280,24,720,24,0,0,1280,1647089685134,1024,2,48000,-16,experiment,p3sarr1.png,1,odd,Win32,93,123675,120661,93,93,632867,634375,627864,125195,627864,93,838821,840332,835820,634377,835820,visual_patterns,0,0,0,yes,1366
undefined,undefined,undefined,undefined,white,no,Mozilla,Netscape,"5.0 (Windows NT 10.0; Win64; x64) AppleWebKit/537.36 (KHTML, like Gecko) Chrome/97.0.4692.71 Safari/537.36 Edg/97.0.1072.62",xpyriment,legacy,legacy,0,uniform,0,0,0,0,24,24,24,0,0,74,74,74,74,74,0,74,0,40,40,40,40,40,0,40,12-02-22,12-02-22,13:53:48,Sat Mar 12 2022 13:53:48 GMT+0100 (Central European Standard Time),The main experiment item,yes,0,0,C:/Users/rrics/Documents/!!ResearchBMECOGSCI/gnet,0,0,0,prototype5.png,no,mono,no,18,no,black,no,no,768,1197,3.5.6,legacy,xpyriment,osweb,1.3.13,0,down,space,enter,down,24896,11746,20108,24896,2,legacy,680,1280,24,720,24,0,0,1280,1647089685134,1024,2,48000,-16,experiment,p2sarrsha3.png,1,odd,Win32,93,123675,120661,93,93,632867,634375,627864,125195,627864,93,843349,844865,840350,634377,840350,visual_patterns,0,0,0,yes,1366
undefined,undefined,undefined,undefined,white,no,Mozilla,Netscape,"5.0 (Windows NT 10.0; Win64; x64) AppleWebKit/537.36 (KHTML, like Gecko) Chrome/97.0.4692.71 Safari/537.36 Edg/97.0.1072.62",xpyriment,legacy,legacy,0,uniform,0,0,0,0,24,24,24,0,0,74,74,74,74,74,0,74,0,41,41,41,41,41,0,41,12-02-22,12-02-22,13:53:48,Sat Mar 12 2022 13:53:48 GMT+0100 (Central European Standard Time),The main experiment item,yes,0,0,C:/Users/rrics/Documents/!!ResearchBMECOGSCI/gnet,0,0,0,prototype5.png,no,mono,no,18,no,black,no,no,768,1197,3.5.6,legacy,xpyriment,osweb,1.3.13,0,down,space,enter,down,24896,11746,20108,24896,2,legacy,680,1280,24,720,24,0,0,1280,1647089685134,1024,2,48000,-16,experiment,p9sarr3.png,1,odd,Win32,93,123675,120661,93,93,632867,634375,627864,125195,627864,93,847881,849382,844883,634377,844883,visual_patterns,0,0,0,yes,1366
undefined,undefined,undefined,undefined,white,no,Mozilla,Netscape,"5.0 (Windows NT 10.0; Win64; x64) AppleWebKit/537.36 (KHTML, like Gecko) Chrome/97.0.4692.71 Safari/537.36 Edg/97.0.1072.62",xpyriment,legacy,legacy,0,uniform,0,0,0,0,24,24,24,0,0,74,74,74,74,74,0,74,0,42,42,42,42,42,0,42,12-02-22,12-02-22,13:53:48,Sat Mar 12 2022 13:53:48 GMT+0100 (Central European Standard Time),The main experiment item,yes,0,0,C:/Users/rrics/Documents/!!ResearchBMECOGSCI/gnet,0,0,0,prototype5.png,no,mono,no,18,no,black,no,no,768,1197,3.5.6,legacy,xpyriment,osweb,1.3.13,0,down,space,enter,down,24896,11746,20108,24896,2,legacy,680,1280,24,720,24,0,0,1280,1647089685134,1024,2,48000,-16,experiment,p10sarr4.png,1,odd,Win32,93,123675,120661,93,93,632867,634375,627864,125195,627864,93,852415,853931,849413,634377,849413,visual_patterns,0,0,0,yes,1366
undefined,undefined,undefined,undefined,white,no,Mozilla,Netscape,"5.0 (Windows NT 10.0; Win64; x64) AppleWebKit/537.36 (KHTML, like Gecko) Chrome/97.0.4692.71 Safari/537.36 Edg/97.0.1072.62",xpyriment,legacy,legacy,0,uniform,0,0,0,0,24,24,24,0,0,74,74,74,74,74,0,74,0,43,43,43,43,43,0,43,12-02-22,12-02-22,13:53:48,Sat Mar 12 2022 13:53:48 GMT+0100 (Central European Standard Time),The main experiment item,yes,0,0,C:/Users/rrics/Documents/!!ResearchBMECOGSCI/gnet,0,0,0,prototype5.png,no,mono,no,18,no,black,no,no,768,1197,3.5.6,legacy,xpyriment,osweb,1.3.13,0,down,space,enter,down,24896,11746,20108,24896,2,legacy,680,1280,24,720,24,0,0,1280,1647089685134,1024,2,48000,-16,experiment,p4sarrcol1.png,1,odd,Win32,93,123675,120661,93,93,632867,634375,627864,125195,627864,93,856949,858464,853947,634377,853947,visual_patterns,0,0,0,yes,1366
undefined,undefined,undefined,undefined,white,no,Mozilla,Netscape,"5.0 (Windows NT 10.0; Win64; x64) AppleWebKit/537.36 (KHTML, like Gecko) Chrome/97.0.4692.71 Safari/537.36 Edg/97.0.1072.62",xpyriment,legacy,legacy,0,uniform,0,0,0,0,24,24,24,0,0,74,74,74,74,74,0,74,0,44,44,44,44,44,0,44,12-02-22,12-02-22,13:53:48,Sat Mar 12 2022 13:53:48 GMT+0100 (Central European Standard Time),The main experiment item,yes,0,0,C:/Users/rrics/Documents/!!ResearchBMECOGSCI/gnet,0,0,0,prototype5.png,no,mono,no,18,no,black,no,no,768,1197,3.5.6,legacy,xpyriment,osweb,1.3.13,0,down,space,enter,down,24896,11746,20108,24896,2,legacy,680,1280,24,720,24,0,0,1280,1647089685134,1024,2,48000,-16,experiment,p5sarrshacol4.png,1,odd,Win32,93,123675,120661,93,93,632867,634375,627864,125195,627864,93,861483,862996,858482,634377,858482,visual_patterns,0,0,0,yes,1366
undefined,undefined,undefined,undefined,white,no,Mozilla,Netscape,"5.0 (Windows NT 10.0; Win64; x64) AppleWebKit/537.36 (KHTML, like Gecko) Chrome/97.0.4692.71 Safari/537.36 Edg/97.0.1072.62",xpyriment,legacy,legacy,0,uniform,0,0,0,0,24,24,24,0,0,74,74,74,74,74,0,74,0,45,45,45,45,45,0,45,12-02-22,12-02-22,13:53:48,Sat Mar 12 2022 13:53:48 GMT+0100 (Central European Standard Time),The main experiment item,yes,0,0,C:/Users/rrics/Documents/!!ResearchBMECOGSCI/gnet,0,0,0,prototype5.png,no,mono,no,18,no,black,no,no,768,1197,3.5.6,legacy,xpyriment,osweb,1.3.13,0,down,space,enter,down,24896,11746,20108,24896,2,legacy,680,1280,24,720,24,0,0,1280,1647089685134,1024,2,48000,-16,experiment,p3sarr3.png,1,odd,Win32,93,123675,120661,93,93,632867,634375,627864,125195,627864,93,866012,867529,863016,634377,863016,visual_patterns,0,0,0,yes,1366
