acc,accuracy,average_response_time,avg_rt,background,bidi,browser_codename,browser_name,browser_version,canvas_backend,clock_backend,color_backend,compensation,coordinates,count_end,count_experiment,count_osweb,count_prestudy,count_prestudy_isi,count_prestudy_sequence,count_prestudy_stimpres,count_start,count_study,count_study_coroutines,count_study_isi,count_study_logger,count_study_response,count_study_sequence,count_study_start,count_study_stimpres,count_test,count_test_coroutines,count_test_isi,count_test_logger,count_test_response,count_test_sequence,count_test_start,count_test_stimpres,date_startdate,date_startdateUTC,date_starttime,datetime,description,disable_garbage_collection,experiment_debug,experiment_parameters,experiment_path,experiment_pilot,experiment_taskname,experiment_taskversion,fampict,font_bold,font_family,font_italic,font_size,font_underline,foreground,form_clicks,fullscreen,height,jatosStudyResultId,jatosVersion,keyboard_backend,mouse_backend,opensesame_codename,opensesame_version,repeat_cycle,response,response_start,response_study_start,response_test_start,response_time,response_time_start,response_time_study_start,response_time_test_start,round_decimals,sampler_backend,screen_availableHeight,screen_availableWidth,screen_colorDepth,screen_height,screen_pixelDepth,screen_screenX,screen_screenY,screen_width,sessionid,sound_buf_size,sound_channels,sound_freq,sound_sample_size,start,stim,subject_nr,subject_parity,system_os,time_prestudy,time_prestudy_isi,time_prestudy_stimpres,time_start,time_study,time_study_isi,time_study_logger,time_study_response,time_study_start,time_study_stimpres,time_test,time_test_isi,time_test_logger,time_test_response,time_test_start,time_test_stimpres,title,total_correct,total_response_time,total_responses,uniform_coordinates,width
undefined,undefined,undefined,undefined,white,no,Mozilla,Netscape,"5.0 (Macintosh; Intel Mac OS X 10_13_6) AppleWebKit/605.1.15 (KHTML, like Gecko) Version/13.1.2 Safari/605.1.15",xpyriment,legacy,legacy,0,uniform,0,0,0,0,24,24,24,0,0,0,0,0,0,0,0,0,0,,,,,,0,,14-02-22,14-02-22,17:02:52,Mon Mar 14 2022 17:02:53 GMT+0100 (CET),The main experiment item,yes,0,0,C:/Users/rrics/Documents/!!ResearchBMECOGSCI/gnet,0,0,0,prototype1.png,no,mono,no,18,no,black,no,no,768,1198,3.5.6,legacy,xpyriment,osweb,1.3.13,0,space,space,space,,22372,22707,22372,,2,legacy,800,1440,24,900,24,0,23,1440,1647273862808,1024,2,48000,-16,experiment,p6sarr1.png,0,even,MacIntel,200,134867,131850,199,200,163785,165297,158804,136384,158804,200,,,,,,visual_patterns,0,0,0,yes,1366
undefined,undefined,undefined,undefined,white,no,Mozilla,Netscape,"5.0 (Macintosh; Intel Mac OS X 10_13_6) AppleWebKit/605.1.15 (KHTML, like Gecko) Version/13.1.2 Safari/605.1.15",xpyriment,legacy,legacy,0,uniform,0,0,0,0,24,24,24,0,0,1,1,1,1,1,0,1,0,,,,,,0,,14-02-22,14-02-22,17:02:52,Mon Mar 14 2022 17:02:53 GMT+0100 (CET),The main experiment item,yes,0,0,C:/Users/rrics/Documents/!!ResearchBMECOGSCI/gnet,0,0,0,prototype1.png,no,mono,no,18,no,black,no,no,768,1198,3.5.6,legacy,xpyriment,osweb,1.3.13,0,space,space,space,,22372,22707,22372,,2,legacy,800,1440,24,900,24,0,23,1440,1647273862808,1024,2,48000,-16,experiment,prototype3.png,0,even,MacIntel,200,134867,131850,199,200,170311,171816,165335,136384,165335,200,,,,,,visual_patterns,0,0,0,yes,1366
undefined,undefined,undefined,undefined,white,no,Mozilla,Netscape,"5.0 (Macintosh; Intel Mac OS X 10_13_6) AppleWebKit/605.1.15 (KHTML, like Gecko) Version/13.1.2 Safari/605.1.15",xpyriment,legacy,legacy,0,uniform,0,0,0,0,24,24,24,0,0,2,2,2,2,2,0,2,0,,,,,,0,,14-02-22,14-02-22,17:02:52,Mon Mar 14 2022 17:02:53 GMT+0100 (CET),The main experiment item,yes,0,0,C:/Users/rrics/Documents/!!ResearchBMECOGSCI/gnet,0,0,0,prototype1.png,no,mono,no,18,no,black,no,no,768,1198,3.5.6,legacy,xpyriment,osweb,1.3.13,0,space,space,space,,22372,22707,22372,,2,legacy,800,1440,24,900,24,0,23,1440,1647273862808,1024,2,48000,-16,experiment,p3sarr1.png,0,even,MacIntel,200,134867,131850,199,200,176830,178332,171848,136384,171848,200,,,,,,visual_patterns,0,0,0,yes,1366
undefined,undefined,undefined,undefined,white,no,Mozilla,Netscape,"5.0 (Macintosh; Intel Mac OS X 10_13_6) AppleWebKit/605.1.15 (KHTML, like Gecko) Version/13.1.2 Safari/605.1.15",xpyriment,legacy,legacy,0,uniform,0,0,0,0,24,24,24,0,0,3,3,3,3,3,0,3,0,,,,,,0,,14-02-22,14-02-22,17:02:52,Mon Mar 14 2022 17:02:53 GMT+0100 (CET),The main experiment item,yes,0,0,C:/Users/rrics/Documents/!!ResearchBMECOGSCI/gnet,0,0,0,prototype1.png,no,mono,no,18,no,black,no,no,768,1198,3.5.6,legacy,xpyriment,osweb,1.3.13,0,space,space,space,,22372,22707,22372,,2,legacy,800,1440,24,900,24,0,23,1440,1647273862808,1024,2,48000,-16,experiment,p9sarr2.png,0,even,MacIntel,200,134867,131850,199,200,183371,184883,178396,136384,178396,200,,,,,,visual_patterns,0,0,0,yes,1366
undefined,undefined,undefined,undefined,white,no,Mozilla,Netscape,"5.0 (Macintosh; Intel Mac OS X 10_13_6) AppleWebKit/605.1.15 (KHTML, like Gecko) Version/13.1.2 Safari/605.1.15",xpyriment,legacy,legacy,0,uniform,0,0,0,0,24,24,24,0,0,4,4,4,4,4,0,4,0,,,,,,0,,14-02-22,14-02-22,17:02:52,Mon Mar 14 2022 17:02:53 GMT+0100 (CET),The main experiment item,yes,0,0,C:/Users/rrics/Documents/!!ResearchBMECOGSCI/gnet,0,0,0,prototype1.png,no,mono,no,18,no,black,no,no,768,1198,3.5.6,legacy,xpyriment,osweb,1.3.13,0,space,space,space,,22372,22707,22372,,2,legacy,800,1440,24,900,24,0,23,1440,1647273862808,1024,2,48000,-16,experiment,p4sarr2.png,0,even,MacIntel,200,134867,131850,199,200,189897,191401,184918,136384,184917,200,,,,,,visual_patterns,0,0,0,yes,1366
undefined,undefined,undefined,undefined,white,no,Mozilla,Netscape,"5.0 (Macintosh; Intel Mac OS X 10_13_6) AppleWebKit/605.1.15 (KHTML, like Gecko) Version/13.1.2 Safari/605.1.15",xpyriment,legacy,legacy,0,uniform,0,0,0,0,24,24,24,0,0,5,5,5,5,5,0,5,0,,,,,,0,,14-02-22,14-02-22,17:02:52,Mon Mar 14 2022 17:02:53 GMT+0100 (CET),The main experiment item,yes,0,0,C:/Users/rrics/Documents/!!ResearchBMECOGSCI/gnet,0,0,0,prototype1.png,no,mono,no,18,no,black,no,no,768,1198,3.5.6,legacy,xpyriment,osweb,1.3.13,0,space,space,space,,22372,22707,22372,,2,legacy,800,1440,24,900,24,0,23,1440,1647273862808,1024,2,48000,-16,experiment,p4sarrshacol2.png,0,even,MacIntel,200,134867,131850,199,200,196413,197919,191432,136384,191432,200,,,,,,visual_patterns,0,0,0,yes,1366
undefined,undefined,undefined,undefined,white,no,Mozilla,Netscape,"5.0 (Macintosh; Intel Mac OS X 10_13_6) AppleWebKit/605.1.15 (KHTML, like Gecko) Version/13.1.2 Safari/605.1.15",xpyriment,legacy,legacy,0,uniform,0,0,0,0,24,24,24,0,0,6,6,6,6,6,0,6,0,,,,,,0,,14-02-22,14-02-22,17:02:52,Mon Mar 14 2022 17:02:53 GMT+0100 (CET),The main experiment item,yes,0,0,C:/Users/rrics/Documents/!!ResearchBMECOGSCI/gnet,0,0,0,prototype1.png,no,mono,no,18,no,black,no,no,768,1198,3.5.6,legacy,xpyriment,osweb,1.3.13,0,space,space,space,,22372,22707,22372,,2,legacy,800,1440,24,900,24,0,23,1440,1647273862808,1024,2,48000,-16,experiment,p5sarrsha2.png,0,even,MacIntel,200,134867,131850,199,200,202928,204435,197946,136384,197946,200,,,,,,visual_patterns,0,0,0,yes,1366
undefined,undefined,undefined,undefined,white,no,Mozilla,Netscape,"5.0 (Macintosh; Intel Mac OS X 10_13_6) AppleWebKit/605.1.15 (KHTML, like Gecko) Version/13.1.2 Safari/605.1.15",xpyriment,legacy,legacy,0,uniform,0,0,0,0,24,24,24,0,0,7,7,7,7,7,0,7,0,,,,,,0,,14-02-22,14-02-22,17:02:52,Mon Mar 14 2022 17:02:53 GMT+0100 (CET),The main experiment item,yes,0,0,C:/Users/rrics/Documents/!!ResearchBMECOGSCI/gnet,0,0,0,prototype1.png,no,mono,no,18,no,black,no,no,768,1198,3.5.6,legacy,xpyriment,osweb,1.3.13,0,space,space,space,,22372,22707,22372,,2,legacy,800,1440,24,900,24,0,23,1440,1647273862808,1024,2,48000,-16,experiment,p2sarr1.png,0,even,MacIntel,200,134867,131850,199,200,209448,210953,204466,136384,204466,200,,,,,,visual_patterns,0,0,0,yes,1366
undefined,undefined,undefined,undefined,white,no,Mozilla,Netscape,"5.0 (Macintosh; Intel Mac OS X 10_13_6) AppleWebKit/605.1.15 (KHTML, like Gecko) Version/13.1.2 Safari/605.1.15",xpyriment,legacy,legacy,0,uniform,0,0,0,0,24,24,24,0,0,8,8,8,8,8,0,8,0,,,,,,0,,14-02-22,14-02-22,17:02:52,Mon Mar 14 2022 17:02:53 GMT+0100 (CET),The main experiment item,yes,0,0,C:/Users/rrics/Documents/!!ResearchBMECOGSCI/gnet,0,0,0,prototype1.png,no,mono,no,18,no,black,no,no,768,1198,3.5.6,legacy,xpyriment,osweb,1.3.13,0,space,space,space,,22372,22707,22372,,2,legacy,800,1440,24,900,24,0,23,1440,1647273862808,1024,2,48000,-16,experiment,prototype4.png,0,even,MacIntel,200,134867,131850,199,200,215970,217471,210987,136384,210987,200,,,,,,visual_patterns,0,0,0,yes,1366
undefined,undefined,undefined,undefined,white,no,Mozilla,Netscape,"5.0 (Macintosh; Intel Mac OS X 10_13_6) AppleWebKit/605.1.15 (KHTML, like Gecko) Version/13.1.2 Safari/605.1.15",xpyriment,legacy,legacy,0,uniform,0,0,0,0,24,24,24,0,0,9,9,9,9,9,0,9,0,,,,,,0,,14-02-22,14-02-22,17:02:52,Mon Mar 14 2022 17:02:53 GMT+0100 (CET),The main experiment item,yes,0,0,C:/Users/rrics/Documents/!!ResearchBMECOGSCI/gnet,0,0,0,prototype1.png,no,mono,no,18,no,black,no,no,768,1198,3.5.6,legacy,xpyriment,osweb,1.3.13,0,space,space,space,,22372,22707,22372,,2,legacy,800,1440,24,900,24,0,23,1440,1647273862808,1024,2,48000,-16,experiment,p5sarrsha1.png,0,even,MacIntel,200,134867,131850,199,200,222483,223988,217506,136384,217506,200,,,,,,visual_patterns,0,0,0,yes,1366
undefined,undefined,undefined,undefined,white,no,Mozilla,Netscape,"5.0 (Macintosh; Intel Mac OS X 10_13_6) AppleWebKit/605.1.15 (KHTML, like Gecko) Version/13.1.2 Safari/605.1.15",xpyriment,legacy,legacy,0,uniform,0,0,0,0,24,24,24,0,0,10,10,10,10,10,0,10,0,,,,,,0,,14-02-22,14-02-22,17:02:52,Mon Mar 14 2022 17:02:53 GMT+0100 (CET),The main experiment item,yes,0,0,C:/Users/rrics/Documents/!!ResearchBMECOGSCI/gnet,0,0,0,prototype1.png,no,mono,no,18,no,black,no,no,768,1198,3.5.6,legacy,xpyriment,osweb,1.3.13,0,space,space,space,,22372,22707,22372,,2,legacy,800,1440,24,900,24,0,23,1440,1647273862808,1024,2,48000,-16,experiment,p5sarrcol1.png,0,even,MacIntel,200,134867,131850,199,200,229007,230522,224026,136384,224026,200,,,,,,visual_patterns,0,0,0,yes,1366
undefined,undefined,undefined,undefined,white,no,Mozilla,Netscape,"5.0 (Macintosh; Intel Mac OS X 10_13_6) AppleWebKit/605.1.15 (KHTML, like Gecko) Version/13.1.2 Safari/605.1.15",xpyriment,legacy,legacy,0,uniform,0,0,0,0,24,24,24,0,0,11,11,11,11,11,0,11,0,,,,,,0,,14-02-22,14-02-22,17:02:52,Mon Mar 14 2022 17:02:53 GMT+0100 (CET),The main experiment item,yes,0,0,C:/Users/rrics/Documents/!!ResearchBMECOGSCI/gnet,0,0,0,prototype1.png,no,mono,no,18,no,black,no,no,768,1198,3.5.6,legacy,xpyriment,osweb,1.3.13,0,space,space,space,,22372,22707,22372,,2,legacy,800,1440,24,900,24,0,23,1440,1647273862808,1024,2,48000,-16,experiment,p8sarr2.png,0,even,MacIntel,200,134867,131850,199,200,235539,237056,230570,136384,230569,200,,,,,,visual_patterns,0,0,0,yes,1366
undefined,undefined,undefined,undefined,white,no,Mozilla,Netscape,"5.0 (Macintosh; Intel Mac OS X 10_13_6) AppleWebKit/605.1.15 (KHTML, like Gecko) Version/13.1.2 Safari/605.1.15",xpyriment,legacy,legacy,0,uniform,0,0,0,0,24,24,24,0,0,12,12,12,12,12,0,12,0,,,,,,0,,14-02-22,14-02-22,17:02:52,Mon Mar 14 2022 17:02:53 GMT+0100 (CET),The main experiment item,yes,0,0,C:/Users/rrics/Documents/!!ResearchBMECOGSCI/gnet,0,0,0,prototype1.png,no,mono,no,18,no,black,no,no,768,1198,3.5.6,legacy,xpyriment,osweb,1.3.13,0,space,space,space,,22372,22707,22372,,2,legacy,800,1440,24,900,24,0,23,1440,1647273862808,1024,2,48000,-16,experiment,p5sarrshacol2.png,0,even,MacIntel,200,134867,131850,199,200,242107,243623,237126,136384,237126,200,,,,,,visual_patterns,0,0,0,yes,1366
undefined,undefined,undefined,undefined,white,no,Mozilla,Netscape,"5.0 (Macintosh; Intel Mac OS X 10_13_6) AppleWebKit/605.1.15 (KHTML, like Gecko) Version/13.1.2 Safari/605.1.15",xpyriment,legacy,legacy,0,uniform,0,0,0,0,24,24,24,0,0,13,13,13,13,13,0,13,0,,,,,,0,,14-02-22,14-02-22,17:02:52,Mon Mar 14 2022 17:02:53 GMT+0100 (CET),The main experiment item,yes,0,0,C:/Users/rrics/Documents/!!ResearchBMECOGSCI/gnet,0,0,0,prototype1.png,no,mono,no,18,no,black,no,no,768,1198,3.5.6,legacy,xpyriment,osweb,1.3.13,0,space,space,space,,22372,22707,22372,,2,legacy,800,1440,24,900,24,0,23,1440,1647273862808,1024,2,48000,-16,experiment,p8sarr1.png,0,even,MacIntel,200,134867,131850,199,200,248635,250141,243676,136384,243676,200,,,,,,visual_patterns,0,0,0,yes,1366
undefined,undefined,undefined,undefined,white,no,Mozilla,Netscape,"5.0 (Macintosh; Intel Mac OS X 10_13_6) AppleWebKit/605.1.15 (KHTML, like Gecko) Version/13.1.2 Safari/605.1.15",xpyriment,legacy,legacy,0,uniform,0,0,0,0,24,24,24,0,0,14,14,14,14,14,0,14,0,,,,,,0,,14-02-22,14-02-22,17:02:52,Mon Mar 14 2022 17:02:53 GMT+0100 (CET),The main experiment item,yes,0,0,C:/Users/rrics/Documents/!!ResearchBMECOGSCI/gnet,0,0,0,prototype1.png,no,mono,no,18,no,black,no,no,768,1198,3.5.6,legacy,xpyriment,osweb,1.3.13,0,space,space,space,,22372,22707,22372,,2,legacy,800,1440,24,900,24,0,23,1440,1647273862808,1024,2,48000,-16,experiment,p3sarrcol1.png,0,even,MacIntel,200,134867,131850,199,200,255150,256658,250170,136384,250170,200,,,,,,visual_patterns,0,0,0,yes,1366
undefined,undefined,undefined,undefined,white,no,Mozilla,Netscape,"5.0 (Macintosh; Intel Mac OS X 10_13_6) AppleWebKit/605.1.15 (KHTML, like Gecko) Version/13.1.2 Safari/605.1.15",xpyriment,legacy,legacy,0,uniform,0,0,0,0,24,24,24,0,0,15,15,15,15,15,0,15,0,,,,,,0,,14-02-22,14-02-22,17:02:52,Mon Mar 14 2022 17:02:53 GMT+0100 (CET),The main experiment item,yes,0,0,C:/Users/rrics/Documents/!!ResearchBMECOGSCI/gnet,0,0,0,prototype1.png,no,mono,no,18,no,black,no,no,768,1198,3.5.6,legacy,xpyriment,osweb,1.3.13,0,space,space,space,,22372,22707,22372,,2,legacy,800,1440,24,900,24,0,23,1440,1647273862808,1024,2,48000,-16,experiment,prototype1.png,0,even,MacIntel,200,134867,131850,199,200,261669,263176,256696,136384,256696,200,,,,,,visual_patterns,0,0,0,yes,1366
undefined,undefined,undefined,undefined,white,no,Mozilla,Netscape,"5.0 (Macintosh; Intel Mac OS X 10_13_6) AppleWebKit/605.1.15 (KHTML, like Gecko) Version/13.1.2 Safari/605.1.15",xpyriment,legacy,legacy,0,uniform,0,0,0,0,24,24,24,0,0,16,16,16,16,16,0,16,0,,,,,,0,,14-02-22,14-02-22,17:02:52,Mon Mar 14 2022 17:02:53 GMT+0100 (CET),The main experiment item,yes,0,0,C:/Users/rrics/Documents/!!ResearchBMECOGSCI/gnet,0,0,0,prototype1.png,no,mono,no,18,no,black,no,no,768,1198,3.5.6,legacy,xpyriment,osweb,1.3.13,0,space,space,space,,22372,22707,22372,,2,legacy,800,1440,24,900,24,0,23,1440,1647273862808,1024,2,48000,-16,experiment,p2sarr2.png,0,even,MacIntel,200,134867,131850,199,200,268187,269694,263203,136384,263203,200,,,,,,visual_patterns,0,0,0,yes,1366
undefined,undefined,undefined,undefined,white,no,Mozilla,Netscape,"5.0 (Macintosh; Intel Mac OS X 10_13_6) AppleWebKit/605.1.15 (KHTML, like Gecko) Version/13.1.2 Safari/605.1.15",xpyriment,legacy,legacy,0,uniform,0,0,0,0,24,24,24,0,0,17,17,17,17,17,0,17,0,,,,,,0,,14-02-22,14-02-22,17:02:52,Mon Mar 14 2022 17:02:53 GMT+0100 (CET),The main experiment item,yes,0,0,C:/Users/rrics/Documents/!!ResearchBMECOGSCI/gnet,0,0,0,prototype1.png,no,mono,no,18,no,black,no,no,768,1198,3.5.6,legacy,xpyriment,osweb,1.3.13,0,space,space,space,,22372,22707,22372,,2,legacy,800,1440,24,900,24,0,23,1440,1647273862808,1024,2,48000,-16,experiment,p3sarrsha2.png,0,even,MacIntel,200,134867,131850,199,200,274707,276211,269724,136384,269723,200,,,,,,visual_patterns,0,0,0,yes,1366
undefined,undefined,undefined,undefined,white,no,Mozilla,Netscape,"5.0 (Macintosh; Intel Mac OS X 10_13_6) AppleWebKit/605.1.15 (KHTML, like Gecko) Version/13.1.2 Safari/605.1.15",xpyriment,legacy,legacy,0,uniform,0,0,0,0,24,24,24,0,0,18,18,18,18,18,0,18,0,,,,,,0,,14-02-22,14-02-22,17:02:52,Mon Mar 14 2022 17:02:53 GMT+0100 (CET),The main experiment item,yes,0,0,C:/Users/rrics/Documents/!!ResearchBMECOGSCI/gnet,0,0,0,prototype1.png,no,mono,no,18,no,black,no,no,768,1198,3.5.6,legacy,xpyriment,osweb,1.3.13,0,space,space,space,,22372,22707,22372,,2,legacy,800,1440,24,900,24,0,23,1440,1647273862808,1024,2,48000,-16,experiment,prototype4.png,0,even,MacIntel,200,134867,131850,199,200,281222,282728,276248,136384,276248,200,,,,,,visual_patterns,0,0,0,yes,1366
undefined,undefined,undefined,undefined,white,no,Mozilla,Netscape,"5.0 (Macintosh; Intel Mac OS X 10_13_6) AppleWebKit/605.1.15 (KHTML, like Gecko) Version/13.1.2 Safari/605.1.15",xpyriment,legacy,legacy,0,uniform,0,0,0,0,24,24,24,0,0,19,19,19,19,19,0,19,0,,,,,,0,,14-02-22,14-02-22,17:02:52,Mon Mar 14 2022 17:02:53 GMT+0100 (CET),The main experiment item,yes,0,0,C:/Users/rrics/Documents/!!ResearchBMECOGSCI/gnet,0,0,0,prototype1.png,no,mono,no,18,no,black,no,no,768,1198,3.5.6,legacy,xpyriment,osweb,1.3.13,0,space,space,space,,22372,22707,22372,,2,legacy,800,1440,24,900,24,0,23,1440,1647273862808,1024,2,48000,-16,experiment,p3sarrsha1.png,0,even,MacIntel,200,134867,131850,199,200,287741,289246,282765,136384,282765,200,,,,,,visual_patterns,0,0,0,yes,1366
undefined,undefined,undefined,undefined,white,no,Mozilla,Netscape,"5.0 (Macintosh; Intel Mac OS X 10_13_6) AppleWebKit/605.1.15 (KHTML, like Gecko) Version/13.1.2 Safari/605.1.15",xpyriment,legacy,legacy,0,uniform,0,0,0,0,24,24,24,0,0,20,20,20,20,20,0,20,0,,,,,,0,,14-02-22,14-02-22,17:02:52,Mon Mar 14 2022 17:02:53 GMT+0100 (CET),The main experiment item,yes,0,0,C:/Users/rrics/Documents/!!ResearchBMECOGSCI/gnet,0,0,0,prototype1.png,no,mono,no,18,no,black,no,no,768,1198,3.5.6,legacy,xpyriment,osweb,1.3.13,0,space,space,space,,22372,22707,22372,,2,legacy,800,1440,24,900,24,0,23,1440,1647273862808,1024,2,48000,-16,experiment,prototype2.png,0,even,MacIntel,200,134867,131850,199,200,294256,295763,289275,136384,289275,200,,,,,,visual_patterns,0,0,0,yes,1366
undefined,undefined,undefined,undefined,white,no,Mozilla,Netscape,"5.0 (Macintosh; Intel Mac OS X 10_13_6) AppleWebKit/605.1.15 (KHTML, like Gecko) Version/13.1.2 Safari/605.1.15",xpyriment,legacy,legacy,0,uniform,0,0,0,0,24,24,24,0,0,21,21,21,21,21,0,21,0,,,,,,0,,14-02-22,14-02-22,17:02:52,Mon Mar 14 2022 17:02:53 GMT+0100 (CET),The main experiment item,yes,0,0,C:/Users/rrics/Documents/!!ResearchBMECOGSCI/gnet,0,0,0,prototype1.png,no,mono,no,18,no,black,no,no,768,1198,3.5.6,legacy,xpyriment,osweb,1.3.13,0,space,space,space,,22372,22707,22372,,2,legacy,800,1440,24,900,24,0,23,1440,1647273862808,1024,2,48000,-16,experiment,p4sarrcol2.png,0,even,MacIntel,200,134867,131850,199,200,300775,302281,295796,136384,295795,200,,,,,,visual_patterns,0,0,0,yes,1366
undefined,undefined,undefined,undefined,white,no,Mozilla,Netscape,"5.0 (Macintosh; Intel Mac OS X 10_13_6) AppleWebKit/605.1.15 (KHTML, like Gecko) Version/13.1.2 Safari/605.1.15",xpyriment,legacy,legacy,0,uniform,0,0,0,0,24,24,24,0,0,22,22,22,22,22,0,22,0,,,,,,0,,14-02-22,14-02-22,17:02:52,Mon Mar 14 2022 17:02:53 GMT+0100 (CET),The main experiment item,yes,0,0,C:/Users/rrics/Documents/!!ResearchBMECOGSCI/gnet,0,0,0,prototype1.png,no,mono,no,18,no,black,no,no,768,1198,3.5.6,legacy,xpyriment,osweb,1.3.13,0,space,space,space,,22372,22707,22372,,2,legacy,800,1440,24,900,24,0,23,1440,1647273862808,1024,2,48000,-16,experiment,p5sarrshacol1.png,0,even,MacIntel,200,134867,131850,199,200,307294,308798,302311,136384,302311,200,,,,,,visual_patterns,0,0,0,yes,1366
undefined,undefined,undefined,undefined,white,no,Mozilla,Netscape,"5.0 (Macintosh; Intel Mac OS X 10_13_6) AppleWebKit/605.1.15 (KHTML, like Gecko) Version/13.1.2 Safari/605.1.15",xpyriment,legacy,legacy,0,uniform,0,0,0,0,24,24,24,0,0,23,23,23,23,23,0,23,0,,,,,,0,,14-02-22,14-02-22,17:02:52,Mon Mar 14 2022 17:02:53 GMT+0100 (CET),The main experiment item,yes,0,0,C:/Users/rrics/Documents/!!ResearchBMECOGSCI/gnet,0,0,0,prototype1.png,no,mono,no,18,no,black,no,no,768,1198,3.5.6,legacy,xpyriment,osweb,1.3.13,0,space,space,space,,22372,22707,22372,,2,legacy,800,1440,24,900,24,0,23,1440,1647273862808,1024,2,48000,-16,experiment,prototype2.png,0,even,MacIntel,200,134867,131850,199,200,313817,315332,308832,136384,308832,200,,,,,,visual_patterns,0,0,0,yes,1366
undefined,undefined,undefined,undefined,white,no,Mozilla,Netscape,"5.0 (Macintosh; Intel Mac OS X 10_13_6) AppleWebKit/605.1.15 (KHTML, like Gecko) Version/13.1.2 Safari/605.1.15",xpyriment,legacy,legacy,0,uniform,0,0,0,0,24,24,24,0,0,24,24,24,24,24,0,24,0,,,,,,0,,14-02-22,14-02-22,17:02:52,Mon Mar 14 2022 17:02:53 GMT+0100 (CET),The main experiment item,yes,0,0,C:/Users/rrics/Documents/!!ResearchBMECOGSCI/gnet,0,0,0,prototype1.png,no,mono,no,18,no,black,no,no,768,1198,3.5.6,legacy,xpyriment,osweb,1.3.13,0,space,space,space,,22372,22707,22372,,2,legacy,800,1440,24,900,24,0,23,1440,1647273862808,1024,2,48000,-16,experiment,p4sarrsha2.png,0,even,MacIntel,200,134867,131850,199,200,320340,321850,315356,136384,315356,200,,,,,,visual_patterns,0,0,0,yes,1366
undefined,undefined,undefined,undefined,white,no,Mozilla,Netscape,"5.0 (Macintosh; Intel Mac OS X 10_13_6) AppleWebKit/605.1.15 (KHTML, like Gecko) Version/13.1.2 Safari/605.1.15",xpyriment,legacy,legacy,0,uniform,0,0,0,0,24,24,24,0,0,25,25,25,25,25,0,25,0,,,,,,0,,14-02-22,14-02-22,17:02:52,Mon Mar 14 2022 17:02:53 GMT+0100 (CET),The main experiment item,yes,0,0,C:/Users/rrics/Documents/!!ResearchBMECOGSCI/gnet,0,0,0,prototype1.png,no,mono,no,18,no,black,no,no,768,1198,3.5.6,legacy,xpyriment,osweb,1.3.13,0,space,space,space,,22372,22707,22372,,2,legacy,800,1440,24,900,24,0,23,1440,1647273862808,1024,2,48000,-16,experiment,p9sarr1.png,0,even,MacIntel,200,134867,131850,199,200,326856,328367,321873,136384,321873,200,,,,,,visual_patterns,0,0,0,yes,1366
undefined,undefined,undefined,undefined,white,no,Mozilla,Netscape,"5.0 (Macintosh; Intel Mac OS X 10_13_6) AppleWebKit/605.1.15 (KHTML, like Gecko) Version/13.1.2 Safari/605.1.15",xpyriment,legacy,legacy,0,uniform,0,0,0,0,24,24,24,0,0,26,26,26,26,26,0,26,0,,,,,,0,,14-02-22,14-02-22,17:02:52,Mon Mar 14 2022 17:02:53 GMT+0100 (CET),The main experiment item,yes,0,0,C:/Users/rrics/Documents/!!ResearchBMECOGSCI/gnet,0,0,0,prototype1.png,no,mono,no,18,no,black,no,no,768,1198,3.5.6,legacy,xpyriment,osweb,1.3.13,0,space,space,space,,22372,22707,22372,,2,legacy,800,1440,24,900,24,0,23,1440,1647273862808,1024,2,48000,-16,experiment,prototype1.png,0,even,MacIntel,200,134867,131850,199,200,333381,334885,328399,136384,328399,200,,,,,,visual_patterns,0,0,0,yes,1366
undefined,undefined,undefined,undefined,white,no,Mozilla,Netscape,"5.0 (Macintosh; Intel Mac OS X 10_13_6) AppleWebKit/605.1.15 (KHTML, like Gecko) Version/13.1.2 Safari/605.1.15",xpyriment,legacy,legacy,0,uniform,0,0,0,0,24,24,24,0,0,27,27,27,27,27,0,27,0,,,,,,0,,14-02-22,14-02-22,17:02:52,Mon Mar 14 2022 17:02:53 GMT+0100 (CET),The main experiment item,yes,0,0,C:/Users/rrics/Documents/!!ResearchBMECOGSCI/gnet,0,0,0,prototype1.png,no,mono,no,18,no,black,no,no,768,1198,3.5.6,legacy,xpyriment,osweb,1.3.13,0,space,space,space,,22372,22707,22372,,2,legacy,800,1440,24,900,24,0,23,1440,1647273862808,1024,2,48000,-16,experiment,p4sarrcol1.png,0,even,MacIntel,200,134867,131850,199,200,339895,341401,334915,136384,334915,200,,,,,,visual_patterns,0,0,0,yes,1366
undefined,undefined,undefined,undefined,white,no,Mozilla,Netscape,"5.0 (Macintosh; Intel Mac OS X 10_13_6) AppleWebKit/605.1.15 (KHTML, like Gecko) Version/13.1.2 Safari/605.1.15",xpyriment,legacy,legacy,0,uniform,0,0,0,0,24,24,24,0,0,28,28,28,28,28,0,28,0,,,,,,0,,14-02-22,14-02-22,17:02:52,Mon Mar 14 2022 17:02:53 GMT+0100 (CET),The main experiment item,yes,0,0,C:/Users/rrics/Documents/!!ResearchBMECOGSCI/gnet,0,0,0,prototype1.png,no,mono,no,18,no,black,no,no,768,1198,3.5.6,legacy,xpyriment,osweb,1.3.13,0,space,space,space,,22372,22707,22372,,2,legacy,800,1440,24,900,24,0,23,1440,1647273862808,1024,2,48000,-16,experiment,prototype4.png,0,even,MacIntel,200,134867,131850,199,200,346412,347919,341435,136384,341434,200,,,,,,visual_patterns,0,0,0,yes,1366
undefined,undefined,undefined,undefined,white,no,Mozilla,Netscape,"5.0 (Macintosh; Intel Mac OS X 10_13_6) AppleWebKit/605.1.15 (KHTML, like Gecko) Version/13.1.2 Safari/605.1.15",xpyriment,legacy,legacy,0,uniform,0,0,0,0,24,24,24,0,0,29,29,29,29,29,0,29,0,,,,,,0,,14-02-22,14-02-22,17:02:52,Mon Mar 14 2022 17:02:53 GMT+0100 (CET),The main experiment item,yes,0,0,C:/Users/rrics/Documents/!!ResearchBMECOGSCI/gnet,0,0,0,prototype1.png,no,mono,no,18,no,black,no,no,768,1198,3.5.6,legacy,xpyriment,osweb,1.3.13,0,space,space,space,,22372,22707,22372,,2,legacy,800,1440,24,900,24,0,23,1440,1647273862808,1024,2,48000,-16,experiment,prototype5.png,0,even,MacIntel,200,134867,131850,199,200,352932,354437,347954,136384,347954,200,,,,,,visual_patterns,0,0,0,yes,1366
undefined,undefined,undefined,undefined,white,no,Mozilla,Netscape,"5.0 (Macintosh; Intel Mac OS X 10_13_6) AppleWebKit/605.1.15 (KHTML, like Gecko) Version/13.1.2 Safari/605.1.15",xpyriment,legacy,legacy,0,uniform,0,0,0,0,24,24,24,0,0,30,30,30,30,30,0,30,0,,,,,,0,,14-02-22,14-02-22,17:02:52,Mon Mar 14 2022 17:02:53 GMT+0100 (CET),The main experiment item,yes,0,0,C:/Users/rrics/Documents/!!ResearchBMECOGSCI/gnet,0,0,0,prototype1.png,no,mono,no,18,no,black,no,no,768,1198,3.5.6,legacy,xpyriment,osweb,1.3.13,0,space,space,space,,22372,22707,22372,,2,legacy,800,1440,24,900,24,0,23,1440,1647273862808,1024,2,48000,-16,experiment,p5sarrcol2.png,0,even,MacIntel,200,134867,131850,199,200,359448,360953,354467,136384,354466,200,,,,,,visual_patterns,0,0,0,yes,1366
undefined,undefined,undefined,undefined,white,no,Mozilla,Netscape,"5.0 (Macintosh; Intel Mac OS X 10_13_6) AppleWebKit/605.1.15 (KHTML, like Gecko) Version/13.1.2 Safari/605.1.15",xpyriment,legacy,legacy,0,uniform,0,0,0,0,24,24,24,0,0,31,31,31,31,31,0,31,0,,,,,,0,,14-02-22,14-02-22,17:02:52,Mon Mar 14 2022 17:02:53 GMT+0100 (CET),The main experiment item,yes,0,0,C:/Users/rrics/Documents/!!ResearchBMECOGSCI/gnet,0,0,0,prototype1.png,no,mono,no,18,no,black,no,no,768,1198,3.5.6,legacy,xpyriment,osweb,1.3.13,0,space,space,space,,22372,22707,22372,,2,legacy,800,1440,24,900,24,0,23,1440,1647273862808,1024,2,48000,-16,experiment,p2sarrsha2.png,0,even,MacIntel,200,134867,131850,199,200,365964,367471,360988,136384,360988,200,,,,,,visual_patterns,0,0,0,yes,1366
undefined,undefined,undefined,undefined,white,no,Mozilla,Netscape,"5.0 (Macintosh; Intel Mac OS X 10_13_6) AppleWebKit/605.1.15 (KHTML, like Gecko) Version/13.1.2 Safari/605.1.15",xpyriment,legacy,legacy,0,uniform,0,0,0,0,24,24,24,0,0,32,32,32,32,32,0,32,0,,,,,,0,,14-02-22,14-02-22,17:02:52,Mon Mar 14 2022 17:02:53 GMT+0100 (CET),The main experiment item,yes,0,0,C:/Users/rrics/Documents/!!ResearchBMECOGSCI/gnet,0,0,0,prototype1.png,no,mono,no,18,no,black,no,no,768,1198,3.5.6,legacy,xpyriment,osweb,1.3.13,0,space,space,space,,22372,22707,22372,,2,legacy,800,1440,24,900,24,0,23,1440,1647273862808,1024,2,48000,-16,experiment,p5sarr1.png,0,even,MacIntel,200,134867,131850,199,200,372485,373988,367501,136384,367501,200,,,,,,visual_patterns,0,0,0,yes,1366
undefined,undefined,undefined,undefined,white,no,Mozilla,Netscape,"5.0 (Macintosh; Intel Mac OS X 10_13_6) AppleWebKit/605.1.15 (KHTML, like Gecko) Version/13.1.2 Safari/605.1.15",xpyriment,legacy,legacy,0,uniform,0,0,0,0,24,24,24,0,0,33,33,33,33,33,0,33,0,,,,,,0,,14-02-22,14-02-22,17:02:52,Mon Mar 14 2022 17:02:53 GMT+0100 (CET),The main experiment item,yes,0,0,C:/Users/rrics/Documents/!!ResearchBMECOGSCI/gnet,0,0,0,prototype1.png,no,mono,no,18,no,black,no,no,768,1198,3.5.6,legacy,xpyriment,osweb,1.3.13,0,space,space,space,,22372,22707,22372,,2,legacy,800,1440,24,900,24,0,23,1440,1647273862808,1024,2,48000,-16,experiment,p3sarrshacol1.png,0,even,MacIntel,200,134867,131850,199,200,379000,380507,374019,136384,374019,200,,,,,,visual_patterns,0,0,0,yes,1366
undefined,undefined,undefined,undefined,white,no,Mozilla,Netscape,"5.0 (Macintosh; Intel Mac OS X 10_13_6) AppleWebKit/605.1.15 (KHTML, like Gecko) Version/13.1.2 Safari/605.1.15",xpyriment,legacy,legacy,0,uniform,0,0,0,0,24,24,24,0,0,34,34,34,34,34,0,34,0,,,,,,0,,14-02-22,14-02-22,17:02:52,Mon Mar 14 2022 17:02:53 GMT+0100 (CET),The main experiment item,yes,0,0,C:/Users/rrics/Documents/!!ResearchBMECOGSCI/gnet,0,0,0,prototype1.png,no,mono,no,18,no,black,no,no,768,1198,3.5.6,legacy,xpyriment,osweb,1.3.13,0,space,space,space,,22372,22707,22372,,2,legacy,800,1440,24,900,24,0,23,1440,1647273862808,1024,2,48000,-16,experiment,prototype1.png,0,even,MacIntel,200,134867,131850,199,200,385518,387023,380537,136384,380537,200,,,,,,visual_patterns,0,0,0,yes,1366
undefined,undefined,undefined,undefined,white,no,Mozilla,Netscape,"5.0 (Macintosh; Intel Mac OS X 10_13_6) AppleWebKit/605.1.15 (KHTML, like Gecko) Version/13.1.2 Safari/605.1.15",xpyriment,legacy,legacy,0,uniform,0,0,0,0,24,24,24,0,0,35,35,35,35,35,0,35,0,,,,,,0,,14-02-22,14-02-22,17:02:52,Mon Mar 14 2022 17:02:53 GMT+0100 (CET),The main experiment item,yes,0,0,C:/Users/rrics/Documents/!!ResearchBMECOGSCI/gnet,0,0,0,prototype1.png,no,mono,no,18,no,black,no,no,768,1198,3.5.6,legacy,xpyriment,osweb,1.3.13,0,space,space,space,,22372,22707,22372,,2,legacy,800,1440,24,900,24,0,23,1440,1647273862808,1024,2,48000,-16,experiment,p4sarrshacol1.png,0,even,MacIntel,200,134867,131850,199,200,392038,393541,387055,136384,387055,200,,,,,,visual_patterns,0,0,0,yes,1366
undefined,undefined,undefined,undefined,white,no,Mozilla,Netscape,"5.0 (Macintosh; Intel Mac OS X 10_13_6) AppleWebKit/605.1.15 (KHTML, like Gecko) Version/13.1.2 Safari/605.1.15",xpyriment,legacy,legacy,0,uniform,0,0,0,0,24,24,24,0,0,36,36,36,36,36,0,36,0,,,,,,0,,14-02-22,14-02-22,17:02:52,Mon Mar 14 2022 17:02:53 GMT+0100 (CET),The main experiment item,yes,0,0,C:/Users/rrics/Documents/!!ResearchBMECOGSCI/gnet,0,0,0,prototype1.png,no,mono,no,18,no,black,no,no,768,1198,3.5.6,legacy,xpyriment,osweb,1.3.13,0,space,space,space,,22372,22707,22372,,2,legacy,800,1440,24,900,24,0,23,1440,1647273862808,1024,2,48000,-16,experiment,prototype3.png,0,even,MacIntel,200,134867,131850,199,200,398552,400059,393572,136384,393572,200,,,,,,visual_patterns,0,0,0,yes,1366
undefined,undefined,undefined,undefined,white,no,Mozilla,Netscape,"5.0 (Macintosh; Intel Mac OS X 10_13_6) AppleWebKit/605.1.15 (KHTML, like Gecko) Version/13.1.2 Safari/605.1.15",xpyriment,legacy,legacy,0,uniform,0,0,0,0,24,24,24,0,0,37,37,37,37,37,0,37,0,,,,,,0,,14-02-22,14-02-22,17:02:52,Mon Mar 14 2022 17:02:53 GMT+0100 (CET),The main experiment item,yes,0,0,C:/Users/rrics/Documents/!!ResearchBMECOGSCI/gnet,0,0,0,prototype1.png,no,mono,no,18,no,black,no,no,768,1198,3.5.6,legacy,xpyriment,osweb,1.3.13,0,space,space,space,,22372,22707,22372,,2,legacy,800,1440,24,900,24,0,23,1440,1647273862808,1024,2,48000,-16,experiment,prototype3.png,0,even,MacIntel,200,134867,131850,199,200,405071,406575,400090,136384,400090,200,,,,,,visual_patterns,0,0,0,yes,1366
undefined,undefined,undefined,undefined,white,no,Mozilla,Netscape,"5.0 (Macintosh; Intel Mac OS X 10_13_6) AppleWebKit/605.1.15 (KHTML, like Gecko) Version/13.1.2 Safari/605.1.15",xpyriment,legacy,legacy,0,uniform,0,0,0,0,24,24,24,0,0,38,38,38,38,38,0,38,0,,,,,,0,,14-02-22,14-02-22,17:02:52,Mon Mar 14 2022 17:02:53 GMT+0100 (CET),The main experiment item,yes,0,0,C:/Users/rrics/Documents/!!ResearchBMECOGSCI/gnet,0,0,0,prototype1.png,no,mono,no,18,no,black,no,no,768,1198,3.5.6,legacy,xpyriment,osweb,1.3.13,0,space,space,space,,22372,22707,22372,,2,legacy,800,1440,24,900,24,0,23,1440,1647273862808,1024,2,48000,-16,experiment,p7sarr1.png,0,even,MacIntel,200,134867,131850,199,200,411586,413093,406606,136384,406606,200,,,,,,visual_patterns,0,0,0,yes,1366
undefined,undefined,undefined,undefined,white,no,Mozilla,Netscape,"5.0 (Macintosh; Intel Mac OS X 10_13_6) AppleWebKit/605.1.15 (KHTML, like Gecko) Version/13.1.2 Safari/605.1.15",xpyriment,legacy,legacy,0,uniform,0,0,0,0,24,24,24,0,0,39,39,39,39,39,0,39,0,,,,,,0,,14-02-22,14-02-22,17:02:52,Mon Mar 14 2022 17:02:53 GMT+0100 (CET),The main experiment item,yes,0,0,C:/Users/rrics/Documents/!!ResearchBMECOGSCI/gnet,0,0,0,prototype1.png,no,mono,no,18,no,black,no,no,768,1198,3.5.6,legacy,xpyriment,osweb,1.3.13,0,space,space,space,,22372,22707,22372,,2,legacy,800,1440,24,900,24,0,23,1440,1647273862808,1024,2,48000,-16,experiment,p1sarrsha1.png,0,even,MacIntel,200,134867,131850,199,200,418104,419611,413122,136384,413122,200,,,,,,visual_patterns,0,0,0,yes,1366
undefined,undefined,undefined,undefined,white,no,Mozilla,Netscape,"5.0 (Macintosh; Intel Mac OS X 10_13_6) AppleWebKit/605.1.15 (KHTML, like Gecko) Version/13.1.2 Safari/605.1.15",xpyriment,legacy,legacy,0,uniform,0,0,0,0,24,24,24,0,0,40,40,40,40,40,0,40,0,,,,,,0,,14-02-22,14-02-22,17:02:52,Mon Mar 14 2022 17:02:53 GMT+0100 (CET),The main experiment item,yes,0,0,C:/Users/rrics/Documents/!!ResearchBMECOGSCI/gnet,0,0,0,prototype1.png,no,mono,no,18,no,black,no,no,768,1198,3.5.6,legacy,xpyriment,osweb,1.3.13,0,space,space,space,,22372,22707,22372,,2,legacy,800,1440,24,900,24,0,23,1440,1647273862808,1024,2,48000,-16,experiment,prototype5.png,0,even,MacIntel,200,134867,131850,199,200,424621,426128,419641,136384,419641,200,,,,,,visual_patterns,0,0,0,yes,1366
undefined,undefined,undefined,undefined,white,no,Mozilla,Netscape,"5.0 (Macintosh; Intel Mac OS X 10_13_6) AppleWebKit/605.1.15 (KHTML, like Gecko) Version/13.1.2 Safari/605.1.15",xpyriment,legacy,legacy,0,uniform,0,0,0,0,24,24,24,0,0,41,41,41,41,41,0,41,0,,,,,,0,,14-02-22,14-02-22,17:02:52,Mon Mar 14 2022 17:02:53 GMT+0100 (CET),The main experiment item,yes,0,0,C:/Users/rrics/Documents/!!ResearchBMECOGSCI/gnet,0,0,0,prototype1.png,no,mono,no,18,no,black,no,no,768,1198,3.5.6,legacy,xpyriment,osweb,1.3.13,0,space,space,space,,22372,22707,22372,,2,legacy,800,1440,24,900,24,0,23,1440,1647273862808,1024,2,48000,-16,experiment,p3sarrshacol2.png,0,even,MacIntel,200,134867,131850,199,200,431138,432645,426160,136384,426160,200,,,,,,visual_patterns,0,0,0,yes,1366
undefined,undefined,undefined,undefined,white,no,Mozilla,Netscape,"5.0 (Macintosh; Intel Mac OS X 10_13_6) AppleWebKit/605.1.15 (KHTML, like Gecko) Version/13.1.2 Safari/605.1.15",xpyriment,legacy,legacy,0,uniform,0,0,0,0,24,24,24,0,0,42,42,42,42,42,0,42,0,,,,,,0,,14-02-22,14-02-22,17:02:52,Mon Mar 14 2022 17:02:53 GMT+0100 (CET),The main experiment item,yes,0,0,C:/Users/rrics/Documents/!!ResearchBMECOGSCI/gnet,0,0,0,prototype1.png,no,mono,no,18,no,black,no,no,768,1198,3.5.6,legacy,xpyriment,osweb,1.3.13,0,space,space,space,,22372,22707,22372,,2,legacy,800,1440,24,900,24,0,23,1440,1647273862808,1024,2,48000,-16,experiment,p3sarrcol2.png,0,even,MacIntel,200,134867,131850,199,200,437655,439163,432672,136384,432672,200,,,,,,visual_patterns,0,0,0,yes,1366
undefined,undefined,undefined,undefined,white,no,Mozilla,Netscape,"5.0 (Macintosh; Intel Mac OS X 10_13_6) AppleWebKit/605.1.15 (KHTML, like Gecko) Version/13.1.2 Safari/605.1.15",xpyriment,legacy,legacy,0,uniform,0,0,0,0,24,24,24,0,0,43,43,43,43,43,0,43,0,,,,,,0,,14-02-22,14-02-22,17:02:52,Mon Mar 14 2022 17:02:53 GMT+0100 (CET),The main experiment item,yes,0,0,C:/Users/rrics/Documents/!!ResearchBMECOGSCI/gnet,0,0,0,prototype1.png,no,mono,no,18,no,black,no,no,768,1198,3.5.6,legacy,xpyriment,osweb,1.3.13,0,space,space,space,,22372,22707,22372,,2,legacy,800,1440,24,900,24,0,23,1440,1647273862808,1024,2,48000,-16,experiment,p3sarr2.png,0,even,MacIntel,200,134867,131850,199,200,444173,445680,439193,136384,439193,200,,,,,,visual_patterns,0,0,0,yes,1366
undefined,undefined,undefined,undefined,white,no,Mozilla,Netscape,"5.0 (Macintosh; Intel Mac OS X 10_13_6) AppleWebKit/605.1.15 (KHTML, like Gecko) Version/13.1.2 Safari/605.1.15",xpyriment,legacy,legacy,0,uniform,0,0,0,0,24,24,24,0,0,44,44,44,44,44,0,44,0,,,,,,0,,14-02-22,14-02-22,17:02:52,Mon Mar 14 2022 17:02:53 GMT+0100 (CET),The main experiment item,yes,0,0,C:/Users/rrics/Documents/!!ResearchBMECOGSCI/gnet,0,0,0,prototype1.png,no,mono,no,18,no,black,no,no,768,1198,3.5.6,legacy,xpyriment,osweb,1.3.13,0,space,space,space,,22372,22707,22372,,2,legacy,800,1440,24,900,24,0,23,1440,1647273862808,1024,2,48000,-16,experiment,p2sarrsha1.png,0,even,MacIntel,200,134867,131850,199,200,450693,452197,445709,136384,445709,200,,,,,,visual_patterns,0,0,0,yes,1366
undefined,undefined,undefined,undefined,white,no,Mozilla,Netscape,"5.0 (Macintosh; Intel Mac OS X 10_13_6) AppleWebKit/605.1.15 (KHTML, like Gecko) Version/13.1.2 Safari/605.1.15",xpyriment,legacy,legacy,0,uniform,0,0,0,0,24,24,24,0,0,45,45,45,45,45,0,45,0,,,,,,0,,14-02-22,14-02-22,17:02:52,Mon Mar 14 2022 17:02:53 GMT+0100 (CET),The main experiment item,yes,0,0,C:/Users/rrics/Documents/!!ResearchBMECOGSCI/gnet,0,0,0,prototype1.png,no,mono,no,18,no,black,no,no,768,1198,3.5.6,legacy,xpyriment,osweb,1.3.13,0,space,space,space,,22372,22707,22372,,2,legacy,800,1440,24,900,24,0,23,1440,1647273862808,1024,2,48000,-16,experiment,p4sarrsha1.png,0,even,MacIntel,200,134867,131850,199,200,457209,458715,452226,136384,452226,200,,,,,,visual_patterns,0,0,0,yes,1366
undefined,undefined,undefined,undefined,white,no,Mozilla,Netscape,"5.0 (Macintosh; Intel Mac OS X 10_13_6) AppleWebKit/605.1.15 (KHTML, like Gecko) Version/13.1.2 Safari/605.1.15",xpyriment,legacy,legacy,0,uniform,0,0,0,0,24,24,24,0,0,46,46,46,46,46,0,46,0,,,,,,0,,14-02-22,14-02-22,17:02:52,Mon Mar 14 2022 17:02:53 GMT+0100 (CET),The main experiment item,yes,0,0,C:/Users/rrics/Documents/!!ResearchBMECOGSCI/gnet,0,0,0,prototype1.png,no,mono,no,18,no,black,no,no,768,1198,3.5.6,legacy,xpyriment,osweb,1.3.13,0,space,space,space,,22372,22707,22372,,2,legacy,800,1440,24,900,24,0,23,1440,1647273862808,1024,2,48000,-16,experiment,p1sarrcol1.png,0,even,MacIntel,200,134867,131850,199,200,463727,465233,458744,136384,458744,200,,,,,,visual_patterns,0,0,0,yes,1366
undefined,undefined,undefined,undefined,white,no,Mozilla,Netscape,"5.0 (Macintosh; Intel Mac OS X 10_13_6) AppleWebKit/605.1.15 (KHTML, like Gecko) Version/13.1.2 Safari/605.1.15",xpyriment,legacy,legacy,0,uniform,0,0,0,0,24,24,24,0,0,47,47,47,47,47,0,47,0,,,,,,0,,14-02-22,14-02-22,17:02:52,Mon Mar 14 2022 17:02:53 GMT+0100 (CET),The main experiment item,yes,0,0,C:/Users/rrics/Documents/!!ResearchBMECOGSCI/gnet,0,0,0,prototype1.png,no,mono,no,18,no,black,no,no,768,1198,3.5.6,legacy,xpyriment,osweb,1.3.13,0,space,space,space,,22372,22707,22372,,2,legacy,800,1440,24,900,24,0,23,1440,1647273862808,1024,2,48000,-16,experiment,p1sarrsha2.png,0,even,MacIntel,200,134867,131850,199,200,470246,471749,465265,136384,465265,200,,,,,,visual_patterns,0,0,0,yes,1366
undefined,undefined,undefined,undefined,white,no,Mozilla,Netscape,"5.0 (Macintosh; Intel Mac OS X 10_13_6) AppleWebKit/605.1.15 (KHTML, like Gecko) Version/13.1.2 Safari/605.1.15",xpyriment,legacy,legacy,0,uniform,0,0,0,0,24,24,24,0,0,48,48,48,48,48,0,48,0,,,,,,0,,14-02-22,14-02-22,17:02:52,Mon Mar 14 2022 17:02:53 GMT+0100 (CET),The main experiment item,yes,0,0,C:/Users/rrics/Documents/!!ResearchBMECOGSCI/gnet,0,0,0,prototype1.png,no,mono,no,18,no,black,no,no,768,1198,3.5.6,legacy,xpyriment,osweb,1.3.13,0,space,space,space,,22372,22707,22372,,2,legacy,800,1440,24,900,24,0,23,1440,1647273862808,1024,2,48000,-16,experiment,p7sarr2.png,0,even,MacIntel,200,134867,131850,199,200,476757,478267,471775,136384,471775,200,,,,,,visual_patterns,0,0,0,yes,1366
undefined,undefined,undefined,undefined,white,no,Mozilla,Netscape,"5.0 (Macintosh; Intel Mac OS X 10_13_6) AppleWebKit/605.1.15 (KHTML, like Gecko) Version/13.1.2 Safari/605.1.15",xpyriment,legacy,legacy,0,uniform,0,0,0,0,24,24,24,0,0,49,49,49,49,49,0,49,0,,,,,,0,,14-02-22,14-02-22,17:02:52,Mon Mar 14 2022 17:02:53 GMT+0100 (CET),The main experiment item,yes,0,0,C:/Users/rrics/Documents/!!ResearchBMECOGSCI/gnet,0,0,0,prototype1.png,no,mono,no,18,no,black,no,no,768,1198,3.5.6,legacy,xpyriment,osweb,1.3.13,0,space,space,space,,22372,22707,22372,,2,legacy,800,1440,24,900,24,0,23,1440,1647273862808,1024,2,48000,-16,experiment,p4sarr1.png,0,even,MacIntel,200,134867,131850,199,200,483279,484785,478296,136384,478295,200,,,,,,visual_patterns,0,0,0,yes,1366
undefined,undefined,undefined,undefined,white,no,Mozilla,Netscape,"5.0 (Macintosh; Intel Mac OS X 10_13_6) AppleWebKit/605.1.15 (KHTML, like Gecko) Version/13.1.2 Safari/605.1.15",xpyriment,legacy,legacy,0,uniform,0,0,0,0,24,24,24,0,0,50,50,50,50,50,0,50,0,,,,,,0,,14-02-22,14-02-22,17:02:52,Mon Mar 14 2022 17:02:53 GMT+0100 (CET),The main experiment item,yes,0,0,C:/Users/rrics/Documents/!!ResearchBMECOGSCI/gnet,0,0,0,prototype1.png,no,mono,no,18,no,black,no,no,768,1198,3.5.6,legacy,xpyriment,osweb,1.3.13,0,space,space,space,,22372,22707,22372,,2,legacy,800,1440,24,900,24,0,23,1440,1647273862808,1024,2,48000,-16,experiment,p10sarr1.png,0,even,MacIntel,200,134867,131850,199,200,489795,491302,484817,136384,484817,200,,,,,,visual_patterns,0,0,0,yes,1366
undefined,undefined,undefined,undefined,white,no,Mozilla,Netscape,"5.0 (Macintosh; Intel Mac OS X 10_13_6) AppleWebKit/605.1.15 (KHTML, like Gecko) Version/13.1.2 Safari/605.1.15",xpyriment,legacy,legacy,0,uniform,0,0,0,0,24,24,24,0,0,51,51,51,51,51,0,51,0,,,,,,0,,14-02-22,14-02-22,17:02:52,Mon Mar 14 2022 17:02:53 GMT+0100 (CET),The main experiment item,yes,0,0,C:/Users/rrics/Documents/!!ResearchBMECOGSCI/gnet,0,0,0,prototype1.png,no,mono,no,18,no,black,no,no,768,1198,3.5.6,legacy,xpyriment,osweb,1.3.13,0,space,space,space,,22372,22707,22372,,2,legacy,800,1440,24,900,24,0,23,1440,1647273862808,1024,2,48000,-16,experiment,prototype3.png,0,even,MacIntel,200,134867,131850,199,200,496314,497820,491331,136384,491331,200,,,,,,visual_patterns,0,0,0,yes,1366
undefined,undefined,undefined,undefined,white,no,Mozilla,Netscape,"5.0 (Macintosh; Intel Mac OS X 10_13_6) AppleWebKit/605.1.15 (KHTML, like Gecko) Version/13.1.2 Safari/605.1.15",xpyriment,legacy,legacy,0,uniform,0,0,0,0,24,24,24,0,0,52,52,52,52,52,0,52,0,,,,,,0,,14-02-22,14-02-22,17:02:52,Mon Mar 14 2022 17:02:53 GMT+0100 (CET),The main experiment item,yes,0,0,C:/Users/rrics/Documents/!!ResearchBMECOGSCI/gnet,0,0,0,prototype1.png,no,mono,no,18,no,black,no,no,768,1198,3.5.6,legacy,xpyriment,osweb,1.3.13,0,space,space,space,,22372,22707,22372,,2,legacy,800,1440,24,900,24,0,23,1440,1647273862808,1024,2,48000,-16,experiment,p1sarr1.png,0,even,MacIntel,200,134867,131850,199,200,502828,504337,497861,136384,497861,200,,,,,,visual_patterns,0,0,0,yes,1366
undefined,undefined,undefined,undefined,white,no,Mozilla,Netscape,"5.0 (Macintosh; Intel Mac OS X 10_13_6) AppleWebKit/605.1.15 (KHTML, like Gecko) Version/13.1.2 Safari/605.1.15",xpyriment,legacy,legacy,0,uniform,0,0,0,0,24,24,24,0,0,53,53,53,53,53,0,53,0,,,,,,0,,14-02-22,14-02-22,17:02:52,Mon Mar 14 2022 17:02:53 GMT+0100 (CET),The main experiment item,yes,0,0,C:/Users/rrics/Documents/!!ResearchBMECOGSCI/gnet,0,0,0,prototype1.png,no,mono,no,18,no,black,no,no,768,1198,3.5.6,legacy,xpyriment,osweb,1.3.13,0,space,space,space,,22372,22707,22372,,2,legacy,800,1440,24,900,24,0,23,1440,1647273862808,1024,2,48000,-16,experiment,p1sarrcol2.png,0,even,MacIntel,200,134867,131850,199,200,509351,510855,504368,136384,504368,200,,,,,,visual_patterns,0,0,0,yes,1366
undefined,undefined,undefined,undefined,white,no,Mozilla,Netscape,"5.0 (Macintosh; Intel Mac OS X 10_13_6) AppleWebKit/605.1.15 (KHTML, like Gecko) Version/13.1.2 Safari/605.1.15",xpyriment,legacy,legacy,0,uniform,0,0,0,0,24,24,24,0,0,54,54,54,54,54,0,54,0,,,,,,0,,14-02-22,14-02-22,17:02:52,Mon Mar 14 2022 17:02:53 GMT+0100 (CET),The main experiment item,yes,0,0,C:/Users/rrics/Documents/!!ResearchBMECOGSCI/gnet,0,0,0,prototype1.png,no,mono,no,18,no,black,no,no,768,1198,3.5.6,legacy,xpyriment,osweb,1.3.13,0,space,space,space,,22372,22707,22372,,2,legacy,800,1440,24,900,24,0,23,1440,1647273862808,1024,2,48000,-16,experiment,p2sarrcol2.png,0,even,MacIntel,200,134867,131850,199,200,515865,517372,510885,136384,510885,200,,,,,,visual_patterns,0,0,0,yes,1366
undefined,undefined,undefined,undefined,white,no,Mozilla,Netscape,"5.0 (Macintosh; Intel Mac OS X 10_13_6) AppleWebKit/605.1.15 (KHTML, like Gecko) Version/13.1.2 Safari/605.1.15",xpyriment,legacy,legacy,0,uniform,0,0,0,0,24,24,24,0,0,55,55,55,55,55,0,55,0,,,,,,0,,14-02-22,14-02-22,17:02:52,Mon Mar 14 2022 17:02:53 GMT+0100 (CET),The main experiment item,yes,0,0,C:/Users/rrics/Documents/!!ResearchBMECOGSCI/gnet,0,0,0,prototype1.png,no,mono,no,18,no,black,no,no,768,1198,3.5.6,legacy,xpyriment,osweb,1.3.13,0,space,space,space,,22372,22707,22372,,2,legacy,800,1440,24,900,24,0,23,1440,1647273862808,1024,2,48000,-16,experiment,prototype4.png,0,even,MacIntel,200,134867,131850,199,200,522383,523889,517402,136384,517402,200,,,,,,visual_patterns,0,0,0,yes,1366
undefined,undefined,undefined,undefined,white,no,Mozilla,Netscape,"5.0 (Macintosh; Intel Mac OS X 10_13_6) AppleWebKit/605.1.15 (KHTML, like Gecko) Version/13.1.2 Safari/605.1.15",xpyriment,legacy,legacy,0,uniform,0,0,0,0,24,24,24,0,0,56,56,56,56,56,0,56,0,,,,,,0,,14-02-22,14-02-22,17:02:52,Mon Mar 14 2022 17:02:53 GMT+0100 (CET),The main experiment item,yes,0,0,C:/Users/rrics/Documents/!!ResearchBMECOGSCI/gnet,0,0,0,prototype1.png,no,mono,no,18,no,black,no,no,768,1198,3.5.6,legacy,xpyriment,osweb,1.3.13,0,space,space,space,,22372,22707,22372,,2,legacy,800,1440,24,900,24,0,23,1440,1647273862808,1024,2,48000,-16,experiment,p2sarrshacol1.png,0,even,MacIntel,200,134867,131850,199,200,528898,530407,523918,136384,523918,200,,,,,,visual_patterns,0,0,0,yes,1366
undefined,undefined,undefined,undefined,white,no,Mozilla,Netscape,"5.0 (Macintosh; Intel Mac OS X 10_13_6) AppleWebKit/605.1.15 (KHTML, like Gecko) Version/13.1.2 Safari/605.1.15",xpyriment,legacy,legacy,0,uniform,0,0,0,0,24,24,24,0,0,57,57,57,57,57,0,57,0,,,,,,0,,14-02-22,14-02-22,17:02:52,Mon Mar 14 2022 17:02:53 GMT+0100 (CET),The main experiment item,yes,0,0,C:/Users/rrics/Documents/!!ResearchBMECOGSCI/gnet,0,0,0,prototype1.png,no,mono,no,18,no,black,no,no,768,1198,3.5.6,legacy,xpyriment,osweb,1.3.13,0,space,space,space,,22372,22707,22372,,2,legacy,800,1440,24,900,24,0,23,1440,1647273862808,1024,2,48000,-16,experiment,prototype5.png,0,even,MacIntel,200,134867,131850,199,200,535422,536924,530444,136384,530444,200,,,,,,visual_patterns,0,0,0,yes,1366
undefined,undefined,undefined,undefined,white,no,Mozilla,Netscape,"5.0 (Macintosh; Intel Mac OS X 10_13_6) AppleWebKit/605.1.15 (KHTML, like Gecko) Version/13.1.2 Safari/605.1.15",xpyriment,legacy,legacy,0,uniform,0,0,0,0,24,24,24,0,0,58,58,58,58,58,0,58,0,,,,,,0,,14-02-22,14-02-22,17:02:52,Mon Mar 14 2022 17:02:53 GMT+0100 (CET),The main experiment item,yes,0,0,C:/Users/rrics/Documents/!!ResearchBMECOGSCI/gnet,0,0,0,prototype1.png,no,mono,no,18,no,black,no,no,768,1198,3.5.6,legacy,xpyriment,osweb,1.3.13,0,space,space,space,,22372,22707,22372,,2,legacy,800,1440,24,900,24,0,23,1440,1647273862808,1024,2,48000,-16,experiment,prototype2.png,0,even,MacIntel,200,134867,131850,199,200,541934,543442,536955,136384,536955,200,,,,,,visual_patterns,0,0,0,yes,1366
undefined,undefined,undefined,undefined,white,no,Mozilla,Netscape,"5.0 (Macintosh; Intel Mac OS X 10_13_6) AppleWebKit/605.1.15 (KHTML, like Gecko) Version/13.1.2 Safari/605.1.15",xpyriment,legacy,legacy,0,uniform,0,0,0,0,24,24,24,0,0,59,59,59,59,59,0,59,0,,,,,,0,,14-02-22,14-02-22,17:02:52,Mon Mar 14 2022 17:02:53 GMT+0100 (CET),The main experiment item,yes,0,0,C:/Users/rrics/Documents/!!ResearchBMECOGSCI/gnet,0,0,0,prototype1.png,no,mono,no,18,no,black,no,no,768,1198,3.5.6,legacy,xpyriment,osweb,1.3.13,0,space,space,space,,22372,22707,22372,,2,legacy,800,1440,24,900,24,0,23,1440,1647273862808,1024,2,48000,-16,experiment,prototype5.png,0,even,MacIntel,200,134867,131850,199,200,548451,549959,543470,136384,543470,200,,,,,,visual_patterns,0,0,0,yes,1366
undefined,undefined,undefined,undefined,white,no,Mozilla,Netscape,"5.0 (Macintosh; Intel Mac OS X 10_13_6) AppleWebKit/605.1.15 (KHTML, like Gecko) Version/13.1.2 Safari/605.1.15",xpyriment,legacy,legacy,0,uniform,0,0,0,0,24,24,24,0,0,60,60,60,60,60,0,60,0,,,,,,0,,14-02-22,14-02-22,17:02:52,Mon Mar 14 2022 17:02:53 GMT+0100 (CET),The main experiment item,yes,0,0,C:/Users/rrics/Documents/!!ResearchBMECOGSCI/gnet,0,0,0,prototype1.png,no,mono,no,18,no,black,no,no,768,1198,3.5.6,legacy,xpyriment,osweb,1.3.13,0,space,space,space,,22372,22707,22372,,2,legacy,800,1440,24,900,24,0,23,1440,1647273862808,1024,2,48000,-16,experiment,p1sarrshacol2.png,0,even,MacIntel,200,134867,131850,199,200,554972,556477,549989,136384,549989,200,,,,,,visual_patterns,0,0,0,yes,1366
undefined,undefined,undefined,undefined,white,no,Mozilla,Netscape,"5.0 (Macintosh; Intel Mac OS X 10_13_6) AppleWebKit/605.1.15 (KHTML, like Gecko) Version/13.1.2 Safari/605.1.15",xpyriment,legacy,legacy,0,uniform,0,0,0,0,24,24,24,0,0,61,61,61,61,61,0,61,0,,,,,,0,,14-02-22,14-02-22,17:02:52,Mon Mar 14 2022 17:02:53 GMT+0100 (CET),The main experiment item,yes,0,0,C:/Users/rrics/Documents/!!ResearchBMECOGSCI/gnet,0,0,0,prototype1.png,no,mono,no,18,no,black,no,no,768,1198,3.5.6,legacy,xpyriment,osweb,1.3.13,0,space,space,space,,22372,22707,22372,,2,legacy,800,1440,24,900,24,0,23,1440,1647273862808,1024,2,48000,-16,experiment,p2sarrcol1.png,0,even,MacIntel,200,134867,131850,199,200,561489,562994,556511,136384,556511,200,,,,,,visual_patterns,0,0,0,yes,1366
undefined,undefined,undefined,undefined,white,no,Mozilla,Netscape,"5.0 (Macintosh; Intel Mac OS X 10_13_6) AppleWebKit/605.1.15 (KHTML, like Gecko) Version/13.1.2 Safari/605.1.15",xpyriment,legacy,legacy,0,uniform,0,0,0,0,24,24,24,0,0,62,62,62,62,62,0,62,0,,,,,,0,,14-02-22,14-02-22,17:02:52,Mon Mar 14 2022 17:02:53 GMT+0100 (CET),The main experiment item,yes,0,0,C:/Users/rrics/Documents/!!ResearchBMECOGSCI/gnet,0,0,0,prototype1.png,no,mono,no,18,no,black,no,no,768,1198,3.5.6,legacy,xpyriment,osweb,1.3.13,0,space,space,space,,22372,22707,22372,,2,legacy,800,1440,24,900,24,0,23,1440,1647273862808,1024,2,48000,-16,experiment,p5sarr2.png,0,even,MacIntel,200,134867,131850,199,200,568003,569511,563024,136384,563023,200,,,,,,visual_patterns,0,0,0,yes,1366
undefined,undefined,undefined,undefined,white,no,Mozilla,Netscape,"5.0 (Macintosh; Intel Mac OS X 10_13_6) AppleWebKit/605.1.15 (KHTML, like Gecko) Version/13.1.2 Safari/605.1.15",xpyriment,legacy,legacy,0,uniform,0,0,0,0,24,24,24,0,0,63,63,63,63,63,0,63,0,,,,,,0,,14-02-22,14-02-22,17:02:52,Mon Mar 14 2022 17:02:53 GMT+0100 (CET),The main experiment item,yes,0,0,C:/Users/rrics/Documents/!!ResearchBMECOGSCI/gnet,0,0,0,prototype1.png,no,mono,no,18,no,black,no,no,768,1198,3.5.6,legacy,xpyriment,osweb,1.3.13,0,space,space,space,,22372,22707,22372,,2,legacy,800,1440,24,900,24,0,23,1440,1647273862808,1024,2,48000,-16,experiment,p10sarr2.png,0,even,MacIntel,200,134867,131850,199,200,574524,576029,569541,136384,569541,200,,,,,,visual_patterns,0,0,0,yes,1366
undefined,undefined,undefined,undefined,white,no,Mozilla,Netscape,"5.0 (Macintosh; Intel Mac OS X 10_13_6) AppleWebKit/605.1.15 (KHTML, like Gecko) Version/13.1.2 Safari/605.1.15",xpyriment,legacy,legacy,0,uniform,0,0,0,0,24,24,24,0,0,64,64,64,64,64,0,64,0,,,,,,0,,14-02-22,14-02-22,17:02:52,Mon Mar 14 2022 17:02:53 GMT+0100 (CET),The main experiment item,yes,0,0,C:/Users/rrics/Documents/!!ResearchBMECOGSCI/gnet,0,0,0,prototype1.png,no,mono,no,18,no,black,no,no,768,1198,3.5.6,legacy,xpyriment,osweb,1.3.13,0,space,space,space,,22372,22707,22372,,2,legacy,800,1440,24,900,24,0,23,1440,1647273862808,1024,2,48000,-16,experiment,prototype1.png,0,even,MacIntel,200,134867,131850,199,200,581040,582545,576061,136384,576061,200,,,,,,visual_patterns,0,0,0,yes,1366
undefined,undefined,undefined,undefined,white,no,Mozilla,Netscape,"5.0 (Macintosh; Intel Mac OS X 10_13_6) AppleWebKit/605.1.15 (KHTML, like Gecko) Version/13.1.2 Safari/605.1.15",xpyriment,legacy,legacy,0,uniform,0,0,0,0,24,24,24,0,0,65,65,65,65,65,0,65,0,,,,,,0,,14-02-22,14-02-22,17:02:52,Mon Mar 14 2022 17:02:53 GMT+0100 (CET),The main experiment item,yes,0,0,C:/Users/rrics/Documents/!!ResearchBMECOGSCI/gnet,0,0,0,prototype1.png,no,mono,no,18,no,black,no,no,768,1198,3.5.6,legacy,xpyriment,osweb,1.3.13,0,space,space,space,,22372,22707,22372,,2,legacy,800,1440,24,900,24,0,23,1440,1647273862808,1024,2,48000,-16,experiment,prototype4.png,0,even,MacIntel,200,134867,131850,199,200,587553,589063,582576,136384,582575,200,,,,,,visual_patterns,0,0,0,yes,1366
undefined,undefined,undefined,undefined,white,no,Mozilla,Netscape,"5.0 (Macintosh; Intel Mac OS X 10_13_6) AppleWebKit/605.1.15 (KHTML, like Gecko) Version/13.1.2 Safari/605.1.15",xpyriment,legacy,legacy,0,uniform,0,0,0,0,24,24,24,0,0,66,66,66,66,66,0,66,0,,,,,,0,,14-02-22,14-02-22,17:02:52,Mon Mar 14 2022 17:02:53 GMT+0100 (CET),The main experiment item,yes,0,0,C:/Users/rrics/Documents/!!ResearchBMECOGSCI/gnet,0,0,0,prototype1.png,no,mono,no,18,no,black,no,no,768,1198,3.5.6,legacy,xpyriment,osweb,1.3.13,0,space,space,space,,22372,22707,22372,,2,legacy,800,1440,24,900,24,0,23,1440,1647273862808,1024,2,48000,-16,experiment,p2sarrshacol2.png,0,even,MacIntel,200,134867,131850,199,200,594078,595580,589098,136384,589098,200,,,,,,visual_patterns,0,0,0,yes,1366
undefined,undefined,undefined,undefined,white,no,Mozilla,Netscape,"5.0 (Macintosh; Intel Mac OS X 10_13_6) AppleWebKit/605.1.15 (KHTML, like Gecko) Version/13.1.2 Safari/605.1.15",xpyriment,legacy,legacy,0,uniform,0,0,0,0,24,24,24,0,0,67,67,67,67,67,0,67,0,,,,,,0,,14-02-22,14-02-22,17:02:52,Mon Mar 14 2022 17:02:53 GMT+0100 (CET),The main experiment item,yes,0,0,C:/Users/rrics/Documents/!!ResearchBMECOGSCI/gnet,0,0,0,prototype1.png,no,mono,no,18,no,black,no,no,768,1198,3.5.6,legacy,xpyriment,osweb,1.3.13,0,space,space,space,,22372,22707,22372,,2,legacy,800,1440,24,900,24,0,23,1440,1647273862808,1024,2,48000,-16,experiment,p1sarr2.png,0,even,MacIntel,200,134867,131850,199,200,600590,602098,595612,136384,595612,200,,,,,,visual_patterns,0,0,0,yes,1366
undefined,undefined,undefined,undefined,white,no,Mozilla,Netscape,"5.0 (Macintosh; Intel Mac OS X 10_13_6) AppleWebKit/605.1.15 (KHTML, like Gecko) Version/13.1.2 Safari/605.1.15",xpyriment,legacy,legacy,0,uniform,0,0,0,0,24,24,24,0,0,68,68,68,68,68,0,68,0,,,,,,0,,14-02-22,14-02-22,17:02:52,Mon Mar 14 2022 17:02:53 GMT+0100 (CET),The main experiment item,yes,0,0,C:/Users/rrics/Documents/!!ResearchBMECOGSCI/gnet,0,0,0,prototype1.png,no,mono,no,18,no,black,no,no,768,1198,3.5.6,legacy,xpyriment,osweb,1.3.13,0,space,space,space,,22372,22707,22372,,2,legacy,800,1440,24,900,24,0,23,1440,1647273862808,1024,2,48000,-16,experiment,p6sarr2.png,0,even,MacIntel,200,134867,131850,199,200,607111,608615,602128,136384,602128,200,,,,,,visual_patterns,0,0,0,yes,1366
undefined,undefined,undefined,undefined,white,no,Mozilla,Netscape,"5.0 (Macintosh; Intel Mac OS X 10_13_6) AppleWebKit/605.1.15 (KHTML, like Gecko) Version/13.1.2 Safari/605.1.15",xpyriment,legacy,legacy,0,uniform,0,0,0,0,24,24,24,0,0,69,69,69,69,69,0,69,0,,,,,,0,,14-02-22,14-02-22,17:02:52,Mon Mar 14 2022 17:02:53 GMT+0100 (CET),The main experiment item,yes,0,0,C:/Users/rrics/Documents/!!ResearchBMECOGSCI/gnet,0,0,0,prototype1.png,no,mono,no,18,no,black,no,no,768,1198,3.5.6,legacy,xpyriment,osweb,1.3.13,0,space,space,space,,22372,22707,22372,,2,legacy,800,1440,24,900,24,0,23,1440,1647273862808,1024,2,48000,-16,experiment,prototype2.png,0,even,MacIntel,200,134867,131850,199,200,613630,615133,608648,136384,608648,200,,,,,,visual_patterns,0,0,0,yes,1366
undefined,undefined,undefined,undefined,white,no,Mozilla,Netscape,"5.0 (Macintosh; Intel Mac OS X 10_13_6) AppleWebKit/605.1.15 (KHTML, like Gecko) Version/13.1.2 Safari/605.1.15",xpyriment,legacy,legacy,0,uniform,0,0,0,0,24,24,24,0,0,70,70,70,70,70,0,70,0,,,,,,0,,14-02-22,14-02-22,17:02:52,Mon Mar 14 2022 17:02:53 GMT+0100 (CET),The main experiment item,yes,0,0,C:/Users/rrics/Documents/!!ResearchBMECOGSCI/gnet,0,0,0,prototype1.png,no,mono,no,18,no,black,no,no,768,1198,3.5.6,legacy,xpyriment,osweb,1.3.13,0,space,space,space,,22372,22707,22372,,2,legacy,800,1440,24,900,24,0,23,1440,1647273862808,1024,2,48000,-16,experiment,p1sarrshacol1.png,0,even,MacIntel,200,134867,131850,199,200,620145,621650,615164,136384,615164,200,,,,,,visual_patterns,0,0,0,yes,1366
undefined,undefined,undefined,undefined,white,no,Mozilla,Netscape,"5.0 (Macintosh; Intel Mac OS X 10_13_6) AppleWebKit/605.1.15 (KHTML, like Gecko) Version/13.1.2 Safari/605.1.15",xpyriment,legacy,legacy,0,uniform,0,0,0,0,24,24,24,0,0,71,71,71,71,71,0,71,0,,,,,,0,,14-02-22,14-02-22,17:02:52,Mon Mar 14 2022 17:02:53 GMT+0100 (CET),The main experiment item,yes,0,0,C:/Users/rrics/Documents/!!ResearchBMECOGSCI/gnet,0,0,0,prototype1.png,no,mono,no,18,no,black,no,no,768,1198,3.5.6,legacy,xpyriment,osweb,1.3.13,0,space,space,space,,22372,22707,22372,,2,legacy,800,1440,24,900,24,0,23,1440,1647273862808,1024,2,48000,-16,experiment,prototype1.png,0,even,MacIntel,200,134867,131850,199,200,626662,628168,621683,136384,621682,200,,,,,,visual_patterns,0,0,0,yes,1366
undefined,undefined,undefined,undefined,white,no,Mozilla,Netscape,"5.0 (Macintosh; Intel Mac OS X 10_13_6) AppleWebKit/605.1.15 (KHTML, like Gecko) Version/13.1.2 Safari/605.1.15",xpyriment,legacy,legacy,0,uniform,0,0,0,0,24,24,24,0,0,72,72,72,72,72,0,72,0,,,,,,0,,14-02-22,14-02-22,17:02:52,Mon Mar 14 2022 17:02:53 GMT+0100 (CET),The main experiment item,yes,0,0,C:/Users/rrics/Documents/!!ResearchBMECOGSCI/gnet,0,0,0,prototype1.png,no,mono,no,18,no,black,no,no,768,1198,3.5.6,legacy,xpyriment,osweb,1.3.13,0,space,space,space,,22372,22707,22372,,2,legacy,800,1440,24,900,24,0,23,1440,1647273862808,1024,2,48000,-16,experiment,prototype5.png,0,even,MacIntel,200,134867,131850,199,200,633179,634685,628197,136384,628197,200,,,,,,visual_patterns,0,0,0,yes,1366
undefined,undefined,undefined,undefined,white,no,Mozilla,Netscape,"5.0 (Macintosh; Intel Mac OS X 10_13_6) AppleWebKit/605.1.15 (KHTML, like Gecko) Version/13.1.2 Safari/605.1.15",xpyriment,legacy,legacy,0,uniform,0,0,0,0,24,24,24,0,0,73,73,73,73,73,0,73,0,,,,,,0,,14-02-22,14-02-22,17:02:52,Mon Mar 14 2022 17:02:53 GMT+0100 (CET),The main experiment item,yes,0,0,C:/Users/rrics/Documents/!!ResearchBMECOGSCI/gnet,0,0,0,prototype1.png,no,mono,no,18,no,black,no,no,768,1198,3.5.6,legacy,xpyriment,osweb,1.3.13,0,space,space,space,,22372,22707,22372,,2,legacy,800,1440,24,900,24,0,23,1440,1647273862808,1024,2,48000,-16,experiment,prototype3.png,0,even,MacIntel,200,134867,131850,199,200,639695,641203,634716,136384,634716,200,,,,,,visual_patterns,0,0,0,yes,1366
undefined,undefined,undefined,undefined,white,no,Mozilla,Netscape,"5.0 (Macintosh; Intel Mac OS X 10_13_6) AppleWebKit/605.1.15 (KHTML, like Gecko) Version/13.1.2 Safari/605.1.15",xpyriment,legacy,legacy,0,uniform,0,0,0,0,24,24,24,0,0,74,74,74,74,74,0,74,0,,,,,,0,,14-02-22,14-02-22,17:02:52,Mon Mar 14 2022 17:02:53 GMT+0100 (CET),The main experiment item,yes,0,0,C:/Users/rrics/Documents/!!ResearchBMECOGSCI/gnet,0,0,0,prototype1.png,no,mono,no,18,no,black,no,no,768,1198,3.5.6,legacy,xpyriment,osweb,1.3.13,0,space,space,space,,22372,22707,22372,,2,legacy,800,1440,24,900,24,0,23,1440,1647273862808,1024,2,48000,-16,experiment,prototype2.png,0,even,MacIntel,200,134867,131850,199,200,646214,647720,641240,136384,641239,200,,,,,,visual_patterns,0,0,0,yes,1366
undefined,undefined,undefined,undefined,white,no,Mozilla,Netscape,"5.0 (Macintosh; Intel Mac OS X 10_13_6) AppleWebKit/605.1.15 (KHTML, like Gecko) Version/13.1.2 Safari/605.1.15",xpyriment,legacy,legacy,0,uniform,0,0,0,0,24,24,24,0,0,74,74,74,74,74,0,74,0,0,0,0,0,0,0,0,14-02-22,14-02-22,17:02:52,Mon Mar 14 2022 17:02:53 GMT+0100 (CET),The main experiment item,yes,0,0,C:/Users/rrics/Documents/!!ResearchBMECOGSCI/gnet,0,0,0,prototype1.png,no,mono,no,18,no,black,no,no,768,1198,3.5.6,legacy,xpyriment,osweb,1.3.13,0,space,space,space,space,21274,22707,22372,21274,2,legacy,800,1440,24,900,24,0,23,1440,1647273862808,1024,2,48000,-16,experiment,p5sarrsha3.png,0,even,MacIntel,200,134867,131850,199,200,646214,647720,641240,136384,641239,200,672121,673623,669150,647756,669150,visual_patterns,0,0,0,yes,1366
undefined,undefined,undefined,undefined,white,no,Mozilla,Netscape,"5.0 (Macintosh; Intel Mac OS X 10_13_6) AppleWebKit/605.1.15 (KHTML, like Gecko) Version/13.1.2 Safari/605.1.15",xpyriment,legacy,legacy,0,uniform,0,0,0,0,24,24,24,0,0,74,74,74,74,74,0,74,0,1,1,1,1,1,0,1,14-02-22,14-02-22,17:02:52,Mon Mar 14 2022 17:02:53 GMT+0100 (CET),The main experiment item,yes,0,0,C:/Users/rrics/Documents/!!ResearchBMECOGSCI/gnet,0,0,0,prototype1.png,no,mono,no,18,no,black,no,no,768,1198,3.5.6,legacy,xpyriment,osweb,1.3.13,0,space,space,space,space,21274,22707,22372,21274,2,legacy,800,1440,24,900,24,0,23,1440,1647273862808,1024,2,48000,-16,experiment,p2sarrshacol1.png,0,even,MacIntel,200,134867,131850,199,200,646214,647720,641240,136384,641239,200,676633,678135,673651,647756,673651,visual_patterns,0,0,0,yes,1366
undefined,undefined,undefined,undefined,white,no,Mozilla,Netscape,"5.0 (Macintosh; Intel Mac OS X 10_13_6) AppleWebKit/605.1.15 (KHTML, like Gecko) Version/13.1.2 Safari/605.1.15",xpyriment,legacy,legacy,0,uniform,0,0,0,0,24,24,24,0,0,74,74,74,74,74,0,74,0,2,2,2,2,2,0,2,14-02-22,14-02-22,17:02:52,Mon Mar 14 2022 17:02:53 GMT+0100 (CET),The main experiment item,yes,0,0,C:/Users/rrics/Documents/!!ResearchBMECOGSCI/gnet,0,0,0,prototype1.png,no,mono,no,18,no,black,no,no,768,1198,3.5.6,legacy,xpyriment,osweb,1.3.13,0,space,space,space,space,21274,22707,22372,21274,2,legacy,800,1440,24,900,24,0,23,1440,1647273862808,1024,2,48000,-16,experiment,p4sarr4.png,0,even,MacIntel,200,134867,131850,199,200,646214,647720,641240,136384,641239,200,681151,682663,678183,647756,678183,visual_patterns,0,0,0,yes,1366
undefined,undefined,undefined,undefined,white,no,Mozilla,Netscape,"5.0 (Macintosh; Intel Mac OS X 10_13_6) AppleWebKit/605.1.15 (KHTML, like Gecko) Version/13.1.2 Safari/605.1.15",xpyriment,legacy,legacy,0,uniform,0,0,0,0,24,24,24,0,0,74,74,74,74,74,0,74,0,3,3,3,3,3,0,3,14-02-22,14-02-22,17:02:52,Mon Mar 14 2022 17:02:53 GMT+0100 (CET),The main experiment item,yes,0,0,C:/Users/rrics/Documents/!!ResearchBMECOGSCI/gnet,0,0,0,prototype1.png,no,mono,no,18,no,black,no,no,768,1198,3.5.6,legacy,xpyriment,osweb,1.3.13,0,space,space,space,space,21274,22707,22372,21274,2,legacy,800,1440,24,900,24,0,23,1440,1647273862808,1024,2,48000,-16,experiment,p5sarrsha2.png,0,even,MacIntel,200,134867,131850,199,200,646214,647720,641240,136384,641239,200,685674,687176,682693,647756,682693,visual_patterns,0,0,0,yes,1366
undefined,undefined,undefined,undefined,white,no,Mozilla,Netscape,"5.0 (Macintosh; Intel Mac OS X 10_13_6) AppleWebKit/605.1.15 (KHTML, like Gecko) Version/13.1.2 Safari/605.1.15",xpyriment,legacy,legacy,0,uniform,0,0,0,0,24,24,24,0,0,74,74,74,74,74,0,74,0,4,4,4,4,4,0,4,14-02-22,14-02-22,17:02:52,Mon Mar 14 2022 17:02:53 GMT+0100 (CET),The main experiment item,yes,0,0,C:/Users/rrics/Documents/!!ResearchBMECOGSCI/gnet,0,0,0,prototype1.png,no,mono,no,18,no,black,no,no,768,1198,3.5.6,legacy,xpyriment,osweb,1.3.13,0,space,space,space,space,21274,22707,22372,21274,2,legacy,800,1440,24,900,24,0,23,1440,1647273862808,1024,2,48000,-16,experiment,p7sarr2.png,0,even,MacIntel,200,134867,131850,199,200,646214,647720,641240,136384,641239,200,690189,691703,687208,647756,687208,visual_patterns,0,0,0,yes,1366
undefined,undefined,undefined,undefined,white,no,Mozilla,Netscape,"5.0 (Macintosh; Intel Mac OS X 10_13_6) AppleWebKit/605.1.15 (KHTML, like Gecko) Version/13.1.2 Safari/605.1.15",xpyriment,legacy,legacy,0,uniform,0,0,0,0,24,24,24,0,0,74,74,74,74,74,0,74,0,5,5,5,5,5,0,5,14-02-22,14-02-22,17:02:52,Mon Mar 14 2022 17:02:53 GMT+0100 (CET),The main experiment item,yes,0,0,C:/Users/rrics/Documents/!!ResearchBMECOGSCI/gnet,0,0,0,prototype1.png,no,mono,no,18,no,black,no,no,768,1198,3.5.6,legacy,xpyriment,osweb,1.3.13,0,space,space,space,space,21274,22707,22372,21274,2,legacy,800,1440,24,900,24,0,23,1440,1647273862808,1024,2,48000,-16,experiment,p1sarrsha4.png,0,even,MacIntel,200,134867,131850,199,200,646214,647720,641240,136384,641239,200,694713,696219,691733,647756,691733,visual_patterns,0,0,0,yes,1366
undefined,undefined,undefined,undefined,white,no,Mozilla,Netscape,"5.0 (Macintosh; Intel Mac OS X 10_13_6) AppleWebKit/605.1.15 (KHTML, like Gecko) Version/13.1.2 Safari/605.1.15",xpyriment,legacy,legacy,0,uniform,0,0,0,0,24,24,24,0,0,74,74,74,74,74,0,74,0,6,6,6,6,6,0,6,14-02-22,14-02-22,17:02:52,Mon Mar 14 2022 17:02:53 GMT+0100 (CET),The main experiment item,yes,0,0,C:/Users/rrics/Documents/!!ResearchBMECOGSCI/gnet,0,0,0,prototype1.png,no,mono,no,18,no,black,no,no,768,1198,3.5.6,legacy,xpyriment,osweb,1.3.13,0,space,space,space,space,21274,22707,22372,21274,2,legacy,800,1440,24,900,24,0,23,1440,1647273862808,1024,2,48000,-16,experiment,p3sarrcol2.png,0,even,MacIntel,200,134867,131850,199,200,646214,647720,641240,136384,641239,200,699234,700744,696251,647756,696251,visual_patterns,0,0,0,yes,1366
undefined,undefined,undefined,undefined,white,no,Mozilla,Netscape,"5.0 (Macintosh; Intel Mac OS X 10_13_6) AppleWebKit/605.1.15 (KHTML, like Gecko) Version/13.1.2 Safari/605.1.15",xpyriment,legacy,legacy,0,uniform,0,0,0,0,24,24,24,0,0,74,74,74,74,74,0,74,0,7,7,7,7,7,0,7,14-02-22,14-02-22,17:02:52,Mon Mar 14 2022 17:02:53 GMT+0100 (CET),The main experiment item,yes,0,0,C:/Users/rrics/Documents/!!ResearchBMECOGSCI/gnet,0,0,0,prototype1.png,no,mono,no,18,no,black,no,no,768,1198,3.5.6,legacy,xpyriment,osweb,1.3.13,0,space,space,space,space,21274,22707,22372,21274,2,legacy,800,1440,24,900,24,0,23,1440,1647273862808,1024,2,48000,-16,experiment,p3sarrcol3.png,0,even,MacIntel,200,134867,131850,199,200,646214,647720,641240,136384,641239,200,703755,705257,700779,647756,700779,visual_patterns,0,0,0,yes,1366
undefined,undefined,undefined,undefined,white,no,Mozilla,Netscape,"5.0 (Macintosh; Intel Mac OS X 10_13_6) AppleWebKit/605.1.15 (KHTML, like Gecko) Version/13.1.2 Safari/605.1.15",xpyriment,legacy,legacy,0,uniform,0,0,0,0,24,24,24,0,0,74,74,74,74,74,0,74,0,8,8,8,8,8,0,8,14-02-22,14-02-22,17:02:52,Mon Mar 14 2022 17:02:53 GMT+0100 (CET),The main experiment item,yes,0,0,C:/Users/rrics/Documents/!!ResearchBMECOGSCI/gnet,0,0,0,prototype1.png,no,mono,no,18,no,black,no,no,768,1198,3.5.6,legacy,xpyriment,osweb,1.3.13,0,space,space,space,space,21274,22707,22372,21274,2,legacy,800,1440,24,900,24,0,23,1440,1647273862808,1024,2,48000,-16,experiment,p1sarrsha1.png,0,even,MacIntel,200,134867,131850,199,200,646214,647720,641240,136384,641239,200,708269,709785,705288,647756,705288,visual_patterns,0,0,0,yes,1366
undefined,undefined,undefined,undefined,white,no,Mozilla,Netscape,"5.0 (Macintosh; Intel Mac OS X 10_13_6) AppleWebKit/605.1.15 (KHTML, like Gecko) Version/13.1.2 Safari/605.1.15",xpyriment,legacy,legacy,0,uniform,0,0,0,0,24,24,24,0,0,74,74,74,74,74,0,74,0,9,9,9,9,9,0,9,14-02-22,14-02-22,17:02:52,Mon Mar 14 2022 17:02:53 GMT+0100 (CET),The main experiment item,yes,0,0,C:/Users/rrics/Documents/!!ResearchBMECOGSCI/gnet,0,0,0,prototype1.png,no,mono,no,18,no,black,no,no,768,1198,3.5.6,legacy,xpyriment,osweb,1.3.13,0,space,space,space,space,21274,22707,22372,21274,2,legacy,800,1440,24,900,24,0,23,1440,1647273862808,1024,2,48000,-16,experiment,p4sarr1.png,0,even,MacIntel,200,134867,131850,199,200,646214,647720,641240,136384,641239,200,712801,714314,709820,647756,709820,visual_patterns,0,0,0,yes,1366
undefined,undefined,undefined,undefined,white,no,Mozilla,Netscape,"5.0 (Macintosh; Intel Mac OS X 10_13_6) AppleWebKit/605.1.15 (KHTML, like Gecko) Version/13.1.2 Safari/605.1.15",xpyriment,legacy,legacy,0,uniform,0,0,0,0,24,24,24,0,0,74,74,74,74,74,0,74,0,10,10,10,10,10,0,10,14-02-22,14-02-22,17:02:52,Mon Mar 14 2022 17:02:53 GMT+0100 (CET),The main experiment item,yes,0,0,C:/Users/rrics/Documents/!!ResearchBMECOGSCI/gnet,0,0,0,prototype1.png,no,mono,no,18,no,black,no,no,768,1198,3.5.6,legacy,xpyriment,osweb,1.3.13,0,space,space,space,space,21274,22707,22372,21274,2,legacy,800,1440,24,900,24,0,23,1440,1647273862808,1024,2,48000,-16,experiment,p9sarr2.png,0,even,MacIntel,200,134867,131850,199,200,646214,647720,641240,136384,641239,200,717329,718843,714351,647756,714351,visual_patterns,0,0,0,yes,1366
undefined,undefined,undefined,undefined,white,no,Mozilla,Netscape,"5.0 (Macintosh; Intel Mac OS X 10_13_6) AppleWebKit/605.1.15 (KHTML, like Gecko) Version/13.1.2 Safari/605.1.15",xpyriment,legacy,legacy,0,uniform,0,0,0,0,24,24,24,0,0,74,74,74,74,74,0,74,0,11,11,11,11,11,0,11,14-02-22,14-02-22,17:02:52,Mon Mar 14 2022 17:02:53 GMT+0100 (CET),The main experiment item,yes,0,0,C:/Users/rrics/Documents/!!ResearchBMECOGSCI/gnet,0,0,0,prototype1.png,no,mono,no,18,no,black,no,no,768,1198,3.5.6,legacy,xpyriment,osweb,1.3.13,0,space,space,space,space,21274,22707,22372,21274,2,legacy,800,1440,24,900,24,0,23,1440,1647273862808,1024,2,48000,-16,experiment,p1sarr2.png,0,even,MacIntel,200,134867,131850,199,200,646214,647720,641240,136384,641239,200,721855,723372,718876,647756,718876,visual_patterns,0,0,0,yes,1366
undefined,undefined,undefined,undefined,white,no,Mozilla,Netscape,"5.0 (Macintosh; Intel Mac OS X 10_13_6) AppleWebKit/605.1.15 (KHTML, like Gecko) Version/13.1.2 Safari/605.1.15",xpyriment,legacy,legacy,0,uniform,0,0,0,0,24,24,24,0,0,74,74,74,74,74,0,74,0,12,12,12,12,12,0,12,14-02-22,14-02-22,17:02:52,Mon Mar 14 2022 17:02:53 GMT+0100 (CET),The main experiment item,yes,0,0,C:/Users/rrics/Documents/!!ResearchBMECOGSCI/gnet,0,0,0,prototype1.png,no,mono,no,18,no,black,no,no,768,1198,3.5.6,legacy,xpyriment,osweb,1.3.13,0,space,space,space,space,21274,22707,22372,21274,2,legacy,800,1440,24,900,24,0,23,1440,1647273862808,1024,2,48000,-16,experiment,p3sarrcol4.png,0,even,MacIntel,200,134867,131850,199,200,646214,647720,641240,136384,641239,200,726388,727901,723411,647756,723411,visual_patterns,0,0,0,yes,1366
undefined,undefined,undefined,undefined,white,no,Mozilla,Netscape,"5.0 (Macintosh; Intel Mac OS X 10_13_6) AppleWebKit/605.1.15 (KHTML, like Gecko) Version/13.1.2 Safari/605.1.15",xpyriment,legacy,legacy,0,uniform,0,0,0,0,24,24,24,0,0,74,74,74,74,74,0,74,0,13,13,13,13,13,0,13,14-02-22,14-02-22,17:02:52,Mon Mar 14 2022 17:02:53 GMT+0100 (CET),The main experiment item,yes,0,0,C:/Users/rrics/Documents/!!ResearchBMECOGSCI/gnet,0,0,0,prototype1.png,no,mono,no,18,no,black,no,no,768,1198,3.5.6,legacy,xpyriment,osweb,1.3.13,0,space,space,space,space,21274,22707,22372,21274,2,legacy,800,1440,24,900,24,0,23,1440,1647273862808,1024,2,48000,-16,experiment,p2sarrshacol2.png,0,even,MacIntel,200,134867,131850,199,200,646214,647720,641240,136384,641239,200,730917,732430,727937,647756,727937,visual_patterns,0,0,0,yes,1366
undefined,undefined,undefined,undefined,white,no,Mozilla,Netscape,"5.0 (Macintosh; Intel Mac OS X 10_13_6) AppleWebKit/605.1.15 (KHTML, like Gecko) Version/13.1.2 Safari/605.1.15",xpyriment,legacy,legacy,0,uniform,0,0,0,0,24,24,24,0,0,74,74,74,74,74,0,74,0,14,14,14,14,14,0,14,14-02-22,14-02-22,17:02:52,Mon Mar 14 2022 17:02:53 GMT+0100 (CET),The main experiment item,yes,0,0,C:/Users/rrics/Documents/!!ResearchBMECOGSCI/gnet,0,0,0,prototype1.png,no,mono,no,18,no,black,no,no,768,1198,3.5.6,legacy,xpyriment,osweb,1.3.13,0,space,space,space,space,21274,22707,22372,21274,2,legacy,800,1440,24,900,24,0,23,1440,1647273862808,1024,2,48000,-16,experiment,p6sarr1.png,0,even,MacIntel,200,134867,131850,199,200,646214,647720,641240,136384,641239,200,735443,736958,732461,647756,732461,visual_patterns,0,0,0,yes,1366
undefined,undefined,undefined,undefined,white,no,Mozilla,Netscape,"5.0 (Macintosh; Intel Mac OS X 10_13_6) AppleWebKit/605.1.15 (KHTML, like Gecko) Version/13.1.2 Safari/605.1.15",xpyriment,legacy,legacy,0,uniform,0,0,0,0,24,24,24,0,0,74,74,74,74,74,0,74,0,15,15,15,15,15,0,15,14-02-22,14-02-22,17:02:52,Mon Mar 14 2022 17:02:53 GMT+0100 (CET),The main experiment item,yes,0,0,C:/Users/rrics/Documents/!!ResearchBMECOGSCI/gnet,0,0,0,prototype1.png,no,mono,no,18,no,black,no,no,768,1198,3.5.6,legacy,xpyriment,osweb,1.3.13,0,space,space,space,space,21274,22707,22372,21274,2,legacy,800,1440,24,900,24,0,23,1440,1647273862808,1024,2,48000,-16,experiment,p4sarrshacol3.png,0,even,MacIntel,200,134867,131850,199,200,646214,647720,641240,136384,641239,200,739974,741487,736993,647756,736993,visual_patterns,0,0,0,yes,1366
undefined,undefined,undefined,undefined,white,no,Mozilla,Netscape,"5.0 (Macintosh; Intel Mac OS X 10_13_6) AppleWebKit/605.1.15 (KHTML, like Gecko) Version/13.1.2 Safari/605.1.15",xpyriment,legacy,legacy,0,uniform,0,0,0,0,24,24,24,0,0,74,74,74,74,74,0,74,0,16,16,16,16,16,0,16,14-02-22,14-02-22,17:02:52,Mon Mar 14 2022 17:02:53 GMT+0100 (CET),The main experiment item,yes,0,0,C:/Users/rrics/Documents/!!ResearchBMECOGSCI/gnet,0,0,0,prototype1.png,no,mono,no,18,no,black,no,no,768,1198,3.5.6,legacy,xpyriment,osweb,1.3.13,0,space,space,space,space,21274,22707,22372,21274,2,legacy,800,1440,24,900,24,0,23,1440,1647273862808,1024,2,48000,-16,experiment,p4sarrshacol4.png,0,even,MacIntel,200,134867,131850,199,200,646214,647720,641240,136384,641239,200,744498,745999,741519,647756,741519,visual_patterns,0,0,0,yes,1366
undefined,undefined,undefined,undefined,white,no,Mozilla,Netscape,"5.0 (Macintosh; Intel Mac OS X 10_13_6) AppleWebKit/605.1.15 (KHTML, like Gecko) Version/13.1.2 Safari/605.1.15",xpyriment,legacy,legacy,0,uniform,0,0,0,0,24,24,24,0,0,74,74,74,74,74,0,74,0,17,17,17,17,17,0,17,14-02-22,14-02-22,17:02:52,Mon Mar 14 2022 17:02:53 GMT+0100 (CET),The main experiment item,yes,0,0,C:/Users/rrics/Documents/!!ResearchBMECOGSCI/gnet,0,0,0,prototype1.png,no,mono,no,18,no,black,no,no,768,1198,3.5.6,legacy,xpyriment,osweb,1.3.13,0,space,space,space,space,21274,22707,22372,21274,2,legacy,800,1440,24,900,24,0,23,1440,1647273862808,1024,2,48000,-16,experiment,p2sarrcol1.png,0,even,MacIntel,200,134867,131850,199,200,646214,647720,641240,136384,641239,200,749012,750528,746036,647756,746036,visual_patterns,0,0,0,yes,1366
undefined,undefined,undefined,undefined,white,no,Mozilla,Netscape,"5.0 (Macintosh; Intel Mac OS X 10_13_6) AppleWebKit/605.1.15 (KHTML, like Gecko) Version/13.1.2 Safari/605.1.15",xpyriment,legacy,legacy,0,uniform,0,0,0,0,24,24,24,0,0,74,74,74,74,74,0,74,0,18,18,18,18,18,0,18,14-02-22,14-02-22,17:02:52,Mon Mar 14 2022 17:02:53 GMT+0100 (CET),The main experiment item,yes,0,0,C:/Users/rrics/Documents/!!ResearchBMECOGSCI/gnet,0,0,0,prototype1.png,no,mono,no,18,no,black,no,no,768,1198,3.5.6,legacy,xpyriment,osweb,1.3.13,0,space,space,space,space,21274,22707,22372,21274,2,legacy,800,1440,24,900,24,0,23,1440,1647273862808,1024,2,48000,-16,experiment,p1sarr4.png,0,even,MacIntel,200,134867,131850,199,200,646214,647720,641240,136384,641239,200,753549,755057,750564,647756,750564,visual_patterns,0,0,0,yes,1366
undefined,undefined,undefined,undefined,white,no,Mozilla,Netscape,"5.0 (Macintosh; Intel Mac OS X 10_13_6) AppleWebKit/605.1.15 (KHTML, like Gecko) Version/13.1.2 Safari/605.1.15",xpyriment,legacy,legacy,0,uniform,0,0,0,0,24,24,24,0,0,74,74,74,74,74,0,74,0,19,19,19,19,19,0,19,14-02-22,14-02-22,17:02:52,Mon Mar 14 2022 17:02:53 GMT+0100 (CET),The main experiment item,yes,0,0,C:/Users/rrics/Documents/!!ResearchBMECOGSCI/gnet,0,0,0,prototype1.png,no,mono,no,18,no,black,no,no,768,1198,3.5.6,legacy,xpyriment,osweb,1.3.13,0,space,space,space,space,21274,22707,22372,21274,2,legacy,800,1440,24,900,24,0,23,1440,1647273862808,1024,2,48000,-16,experiment,p10sarr1.png,0,even,MacIntel,200,134867,131850,199,200,646214,647720,641240,136384,641239,200,758071,759585,755095,647756,755095,visual_patterns,0,0,0,yes,1366
undefined,undefined,undefined,undefined,white,no,Mozilla,Netscape,"5.0 (Macintosh; Intel Mac OS X 10_13_6) AppleWebKit/605.1.15 (KHTML, like Gecko) Version/13.1.2 Safari/605.1.15",xpyriment,legacy,legacy,0,uniform,0,0,0,0,24,24,24,0,0,74,74,74,74,74,0,74,0,20,20,20,20,20,0,20,14-02-22,14-02-22,17:02:52,Mon Mar 14 2022 17:02:53 GMT+0100 (CET),The main experiment item,yes,0,0,C:/Users/rrics/Documents/!!ResearchBMECOGSCI/gnet,0,0,0,prototype1.png,no,mono,no,18,no,black,no,no,768,1198,3.5.6,legacy,xpyriment,osweb,1.3.13,0,space,space,space,space,21274,22707,22372,21274,2,legacy,800,1440,24,900,24,0,23,1440,1647273862808,1024,2,48000,-16,experiment,p8sarr3.png,0,even,MacIntel,200,134867,131850,199,200,646214,647720,641240,136384,641239,200,762597,764114,759620,647756,759620,visual_patterns,0,0,0,yes,1366
undefined,undefined,undefined,undefined,white,no,Mozilla,Netscape,"5.0 (Macintosh; Intel Mac OS X 10_13_6) AppleWebKit/605.1.15 (KHTML, like Gecko) Version/13.1.2 Safari/605.1.15",xpyriment,legacy,legacy,0,uniform,0,0,0,0,24,24,24,0,0,74,74,74,74,74,0,74,0,21,21,21,21,21,0,21,14-02-22,14-02-22,17:02:52,Mon Mar 14 2022 17:02:53 GMT+0100 (CET),The main experiment item,yes,0,0,C:/Users/rrics/Documents/!!ResearchBMECOGSCI/gnet,0,0,0,prototype1.png,no,mono,no,18,no,black,no,no,768,1198,3.5.6,legacy,xpyriment,osweb,1.3.13,0,space,space,space,space,21274,22707,22372,21274,2,legacy,800,1440,24,900,24,0,23,1440,1647273862808,1024,2,48000,-16,experiment,p9sarr4.png,0,even,MacIntel,200,134867,131850,199,200,646214,647720,641240,136384,641239,200,767131,768643,764162,647756,764162,visual_patterns,0,0,0,yes,1366
undefined,undefined,undefined,undefined,white,no,Mozilla,Netscape,"5.0 (Macintosh; Intel Mac OS X 10_13_6) AppleWebKit/605.1.15 (KHTML, like Gecko) Version/13.1.2 Safari/605.1.15",xpyriment,legacy,legacy,0,uniform,0,0,0,0,24,24,24,0,0,74,74,74,74,74,0,74,0,22,22,22,22,22,0,22,14-02-22,14-02-22,17:02:52,Mon Mar 14 2022 17:02:53 GMT+0100 (CET),The main experiment item,yes,0,0,C:/Users/rrics/Documents/!!ResearchBMECOGSCI/gnet,0,0,0,prototype1.png,no,mono,no,18,no,black,no,no,768,1198,3.5.6,legacy,xpyriment,osweb,1.3.13,0,space,space,space,space,21274,22707,22372,21274,2,legacy,800,1440,24,900,24,0,23,1440,1647273862808,1024,2,48000,-16,experiment,p5sarrcol2.png,0,even,MacIntel,200,134867,131850,199,200,646214,647720,641240,136384,641239,200,771652,773155,768673,647756,768673,visual_patterns,0,0,0,yes,1366
undefined,undefined,undefined,undefined,white,no,Mozilla,Netscape,"5.0 (Macintosh; Intel Mac OS X 10_13_6) AppleWebKit/605.1.15 (KHTML, like Gecko) Version/13.1.2 Safari/605.1.15",xpyriment,legacy,legacy,0,uniform,0,0,0,0,24,24,24,0,0,74,74,74,74,74,0,74,0,23,23,23,23,23,0,23,14-02-22,14-02-22,17:02:52,Mon Mar 14 2022 17:02:53 GMT+0100 (CET),The main experiment item,yes,0,0,C:/Users/rrics/Documents/!!ResearchBMECOGSCI/gnet,0,0,0,prototype1.png,no,mono,no,18,no,black,no,no,768,1198,3.5.6,legacy,xpyriment,osweb,1.3.13,0,space,space,space,space,21274,22707,22372,21274,2,legacy,800,1440,24,900,24,0,23,1440,1647273862808,1024,2,48000,-16,experiment,p7sarr4.png,0,even,MacIntel,200,134867,131850,199,200,646214,647720,641240,136384,641239,200,776167,777683,773186,647756,773186,visual_patterns,0,0,0,yes,1366
undefined,undefined,undefined,undefined,white,no,Mozilla,Netscape,"5.0 (Macintosh; Intel Mac OS X 10_13_6) AppleWebKit/605.1.15 (KHTML, like Gecko) Version/13.1.2 Safari/605.1.15",xpyriment,legacy,legacy,0,uniform,0,0,0,0,24,24,24,0,0,74,74,74,74,74,0,74,0,24,24,24,24,24,0,24,14-02-22,14-02-22,17:02:52,Mon Mar 14 2022 17:02:53 GMT+0100 (CET),The main experiment item,yes,0,0,C:/Users/rrics/Documents/!!ResearchBMECOGSCI/gnet,0,0,0,prototype1.png,no,mono,no,18,no,black,no,no,768,1198,3.5.6,legacy,xpyriment,osweb,1.3.13,0,space,space,space,space,21274,22707,22372,21274,2,legacy,800,1440,24,900,24,0,23,1440,1647273862808,1024,2,48000,-16,experiment,p3sarrsha3.png,0,even,MacIntel,200,134867,131850,199,200,646214,647720,641240,136384,641239,200,780694,782196,777714,647756,777714,visual_patterns,0,0,0,yes,1366
undefined,undefined,undefined,undefined,white,no,Mozilla,Netscape,"5.0 (Macintosh; Intel Mac OS X 10_13_6) AppleWebKit/605.1.15 (KHTML, like Gecko) Version/13.1.2 Safari/605.1.15",xpyriment,legacy,legacy,0,uniform,0,0,0,0,24,24,24,0,0,74,74,74,74,74,0,74,0,25,25,25,25,25,0,25,14-02-22,14-02-22,17:02:52,Mon Mar 14 2022 17:02:53 GMT+0100 (CET),The main experiment item,yes,0,0,C:/Users/rrics/Documents/!!ResearchBMECOGSCI/gnet,0,0,0,prototype1.png,no,mono,no,18,no,black,no,no,768,1198,3.5.6,legacy,xpyriment,osweb,1.3.13,0,space,space,space,space,21274,22707,22372,21274,2,legacy,800,1440,24,900,24,0,23,1440,1647273862808,1024,2,48000,-16,experiment,p8sarr4.png,0,even,MacIntel,200,134867,131850,199,200,646214,647720,641240,136384,641239,200,785210,786725,782227,647756,782227,visual_patterns,0,0,0,yes,1366
undefined,undefined,undefined,undefined,white,no,Mozilla,Netscape,"5.0 (Macintosh; Intel Mac OS X 10_13_6) AppleWebKit/605.1.15 (KHTML, like Gecko) Version/13.1.2 Safari/605.1.15",xpyriment,legacy,legacy,0,uniform,0,0,0,0,24,24,24,0,0,74,74,74,74,74,0,74,0,26,26,26,26,26,0,26,14-02-22,14-02-22,17:02:52,Mon Mar 14 2022 17:02:53 GMT+0100 (CET),The main experiment item,yes,0,0,C:/Users/rrics/Documents/!!ResearchBMECOGSCI/gnet,0,0,0,prototype1.png,no,mono,no,18,no,black,no,no,768,1198,3.5.6,legacy,xpyriment,osweb,1.3.13,0,space,space,space,space,21274,22707,22372,21274,2,legacy,800,1440,24,900,24,0,23,1440,1647273862808,1024,2,48000,-16,experiment,p2sarrshacol4.png,0,even,MacIntel,200,134867,131850,199,200,646214,647720,641240,136384,641239,200,789739,791254,786756,647756,786756,visual_patterns,0,0,0,yes,1366
undefined,undefined,undefined,undefined,white,no,Mozilla,Netscape,"5.0 (Macintosh; Intel Mac OS X 10_13_6) AppleWebKit/605.1.15 (KHTML, like Gecko) Version/13.1.2 Safari/605.1.15",xpyriment,legacy,legacy,0,uniform,0,0,0,0,24,24,24,0,0,74,74,74,74,74,0,74,0,27,27,27,27,27,0,27,14-02-22,14-02-22,17:02:52,Mon Mar 14 2022 17:02:53 GMT+0100 (CET),The main experiment item,yes,0,0,C:/Users/rrics/Documents/!!ResearchBMECOGSCI/gnet,0,0,0,prototype1.png,no,mono,no,18,no,black,no,no,768,1198,3.5.6,legacy,xpyriment,osweb,1.3.13,0,space,space,space,space,21274,22707,22372,21274,2,legacy,800,1440,24,900,24,0,23,1440,1647273862808,1024,2,48000,-16,experiment,p4sarrshacol1.png,0,even,MacIntel,200,134867,131850,199,200,646214,647720,641240,136384,641239,200,794268,795782,791287,647756,791287,visual_patterns,0,0,0,yes,1366
undefined,undefined,undefined,undefined,white,no,Mozilla,Netscape,"5.0 (Macintosh; Intel Mac OS X 10_13_6) AppleWebKit/605.1.15 (KHTML, like Gecko) Version/13.1.2 Safari/605.1.15",xpyriment,legacy,legacy,0,uniform,0,0,0,0,24,24,24,0,0,74,74,74,74,74,0,74,0,28,28,28,28,28,0,28,14-02-22,14-02-22,17:02:52,Mon Mar 14 2022 17:02:53 GMT+0100 (CET),The main experiment item,yes,0,0,C:/Users/rrics/Documents/!!ResearchBMECOGSCI/gnet,0,0,0,prototype1.png,no,mono,no,18,no,black,no,no,768,1198,3.5.6,legacy,xpyriment,osweb,1.3.13,0,space,space,space,space,21274,22707,22372,21274,2,legacy,800,1440,24,900,24,0,23,1440,1647273862808,1024,2,48000,-16,experiment,p1sarrshacol3.png,0,even,MacIntel,200,134867,131850,199,200,646214,647720,641240,136384,641239,200,798794,800311,795814,647756,795814,visual_patterns,0,0,0,yes,1366
undefined,undefined,undefined,undefined,white,no,Mozilla,Netscape,"5.0 (Macintosh; Intel Mac OS X 10_13_6) AppleWebKit/605.1.15 (KHTML, like Gecko) Version/13.1.2 Safari/605.1.15",xpyriment,legacy,legacy,0,uniform,0,0,0,0,24,24,24,0,0,74,74,74,74,74,0,74,0,29,29,29,29,29,0,29,14-02-22,14-02-22,17:02:52,Mon Mar 14 2022 17:02:53 GMT+0100 (CET),The main experiment item,yes,0,0,C:/Users/rrics/Documents/!!ResearchBMECOGSCI/gnet,0,0,0,prototype1.png,no,mono,no,18,no,black,no,no,768,1198,3.5.6,legacy,xpyriment,osweb,1.3.13,0,space,space,space,space,21274,22707,22372,21274,2,legacy,800,1440,24,900,24,0,23,1440,1647273862808,1024,2,48000,-16,experiment,p2sarrsha1.png,0,even,MacIntel,200,134867,131850,199,200,646214,647720,641240,136384,641239,200,803326,804839,800342,647756,800342,visual_patterns,0,0,0,yes,1366
undefined,undefined,undefined,undefined,white,no,Mozilla,Netscape,"5.0 (Macintosh; Intel Mac OS X 10_13_6) AppleWebKit/605.1.15 (KHTML, like Gecko) Version/13.1.2 Safari/605.1.15",xpyriment,legacy,legacy,0,uniform,0,0,0,0,24,24,24,0,0,74,74,74,74,74,0,74,0,30,30,30,30,30,0,30,14-02-22,14-02-22,17:02:52,Mon Mar 14 2022 17:02:53 GMT+0100 (CET),The main experiment item,yes,0,0,C:/Users/rrics/Documents/!!ResearchBMECOGSCI/gnet,0,0,0,prototype1.png,no,mono,no,18,no,black,no,no,768,1198,3.5.6,legacy,xpyriment,osweb,1.3.13,0,space,space,space,space,21274,22707,22372,21274,2,legacy,800,1440,24,900,24,0,23,1440,1647273862808,1024,2,48000,-16,experiment,p3sarr2.png,0,even,MacIntel,200,134867,131850,199,200,646214,647720,641240,136384,641239,200,807854,809368,804879,647756,804879,visual_patterns,0,0,0,yes,1366
undefined,undefined,undefined,undefined,white,no,Mozilla,Netscape,"5.0 (Macintosh; Intel Mac OS X 10_13_6) AppleWebKit/605.1.15 (KHTML, like Gecko) Version/13.1.2 Safari/605.1.15",xpyriment,legacy,legacy,0,uniform,0,0,0,0,24,24,24,0,0,74,74,74,74,74,0,74,0,31,31,31,31,31,0,31,14-02-22,14-02-22,17:02:52,Mon Mar 14 2022 17:02:53 GMT+0100 (CET),The main experiment item,yes,0,0,C:/Users/rrics/Documents/!!ResearchBMECOGSCI/gnet,0,0,0,prototype1.png,no,mono,no,18,no,black,no,no,768,1198,3.5.6,legacy,xpyriment,osweb,1.3.13,0,space,space,space,space,21274,22707,22372,21274,2,legacy,800,1440,24,900,24,0,23,1440,1647273862808,1024,2,48000,-16,experiment,p3sarrshacol3.png,0,even,MacIntel,200,134867,131850,199,200,646214,647720,641240,136384,641239,200,812380,813881,809409,647756,809409,visual_patterns,0,0,0,yes,1366
undefined,undefined,undefined,undefined,white,no,Mozilla,Netscape,"5.0 (Macintosh; Intel Mac OS X 10_13_6) AppleWebKit/605.1.15 (KHTML, like Gecko) Version/13.1.2 Safari/605.1.15",xpyriment,legacy,legacy,0,uniform,0,0,0,0,24,24,24,0,0,74,74,74,74,74,0,74,0,32,32,32,32,32,0,32,14-02-22,14-02-22,17:02:52,Mon Mar 14 2022 17:02:53 GMT+0100 (CET),The main experiment item,yes,0,0,C:/Users/rrics/Documents/!!ResearchBMECOGSCI/gnet,0,0,0,prototype1.png,no,mono,no,18,no,black,no,no,768,1198,3.5.6,legacy,xpyriment,osweb,1.3.13,0,space,space,space,space,21274,22707,22372,21274,2,legacy,800,1440,24,900,24,0,23,1440,1647273862808,1024,2,48000,-16,experiment,p2sarrcol4.png,0,even,MacIntel,200,134867,131850,199,200,646214,647720,641240,136384,641239,200,816895,818409,813919,647756,813919,visual_patterns,0,0,0,yes,1366
undefined,undefined,undefined,undefined,white,no,Mozilla,Netscape,"5.0 (Macintosh; Intel Mac OS X 10_13_6) AppleWebKit/605.1.15 (KHTML, like Gecko) Version/13.1.2 Safari/605.1.15",xpyriment,legacy,legacy,0,uniform,0,0,0,0,24,24,24,0,0,74,74,74,74,74,0,74,0,33,33,33,33,33,0,33,14-02-22,14-02-22,17:02:52,Mon Mar 14 2022 17:02:53 GMT+0100 (CET),The main experiment item,yes,0,0,C:/Users/rrics/Documents/!!ResearchBMECOGSCI/gnet,0,0,0,prototype1.png,no,mono,no,18,no,black,no,no,768,1198,3.5.6,legacy,xpyriment,osweb,1.3.13,0,space,space,space,space,21274,22707,22372,21274,2,legacy,800,1440,24,900,24,0,23,1440,1647273862808,1024,2,48000,-16,experiment,p5sarrcol1.png,0,even,MacIntel,200,134867,131850,199,200,646214,647720,641240,136384,641239,200,821418,822921,818441,647756,818441,visual_patterns,0,0,0,yes,1366
undefined,undefined,undefined,undefined,white,no,Mozilla,Netscape,"5.0 (Macintosh; Intel Mac OS X 10_13_6) AppleWebKit/605.1.15 (KHTML, like Gecko) Version/13.1.2 Safari/605.1.15",xpyriment,legacy,legacy,0,uniform,0,0,0,0,24,24,24,0,0,74,74,74,74,74,0,74,0,34,34,34,34,34,0,34,14-02-22,14-02-22,17:02:52,Mon Mar 14 2022 17:02:53 GMT+0100 (CET),The main experiment item,yes,0,0,C:/Users/rrics/Documents/!!ResearchBMECOGSCI/gnet,0,0,0,prototype1.png,no,mono,no,18,no,black,no,no,768,1198,3.5.6,legacy,xpyriment,osweb,1.3.13,0,space,space,space,space,21274,22707,22372,21274,2,legacy,800,1440,24,900,24,0,23,1440,1647273862808,1024,2,48000,-16,experiment,p8sarr2.png,0,even,MacIntel,200,134867,131850,199,200,646214,647720,641240,136384,641239,200,825934,827449,822956,647756,822956,visual_patterns,0,0,0,yes,1366
undefined,undefined,undefined,undefined,white,no,Mozilla,Netscape,"5.0 (Macintosh; Intel Mac OS X 10_13_6) AppleWebKit/605.1.15 (KHTML, like Gecko) Version/13.1.2 Safari/605.1.15",xpyriment,legacy,legacy,0,uniform,0,0,0,0,24,24,24,0,0,74,74,74,74,74,0,74,0,35,35,35,35,35,0,35,14-02-22,14-02-22,17:02:52,Mon Mar 14 2022 17:02:53 GMT+0100 (CET),The main experiment item,yes,0,0,C:/Users/rrics/Documents/!!ResearchBMECOGSCI/gnet,0,0,0,prototype1.png,no,mono,no,18,no,black,no,no,768,1198,3.5.6,legacy,xpyriment,osweb,1.3.13,0,space,space,space,space,21274,22707,22372,21274,2,legacy,800,1440,24,900,24,0,23,1440,1647273862808,1024,2,48000,-16,experiment,p5sarr3.png,0,even,MacIntel,200,134867,131850,199,200,646214,647720,641240,136384,641239,200,830463,831979,827489,647756,827489,visual_patterns,0,0,0,yes,1366
undefined,undefined,undefined,undefined,white,no,Mozilla,Netscape,"5.0 (Macintosh; Intel Mac OS X 10_13_6) AppleWebKit/605.1.15 (KHTML, like Gecko) Version/13.1.2 Safari/605.1.15",xpyriment,legacy,legacy,0,uniform,0,0,0,0,24,24,24,0,0,74,74,74,74,74,0,74,0,36,36,36,36,36,0,36,14-02-22,14-02-22,17:02:52,Mon Mar 14 2022 17:02:53 GMT+0100 (CET),The main experiment item,yes,0,0,C:/Users/rrics/Documents/!!ResearchBMECOGSCI/gnet,0,0,0,prototype1.png,no,mono,no,18,no,black,no,no,768,1198,3.5.6,legacy,xpyriment,osweb,1.3.13,0,space,space,space,space,21274,22707,22372,21274,2,legacy,800,1440,24,900,24,0,23,1440,1647273862808,1024,2,48000,-16,experiment,p7sarr1.png,0,even,MacIntel,200,134867,131850,199,200,646214,647720,641240,136384,641239,200,834991,836508,832014,647756,832014,visual_patterns,0,0,0,yes,1366
undefined,undefined,undefined,undefined,white,no,Mozilla,Netscape,"5.0 (Macintosh; Intel Mac OS X 10_13_6) AppleWebKit/605.1.15 (KHTML, like Gecko) Version/13.1.2 Safari/605.1.15",xpyriment,legacy,legacy,0,uniform,0,0,0,0,24,24,24,0,0,74,74,74,74,74,0,74,0,37,37,37,37,37,0,37,14-02-22,14-02-22,17:02:52,Mon Mar 14 2022 17:02:53 GMT+0100 (CET),The main experiment item,yes,0,0,C:/Users/rrics/Documents/!!ResearchBMECOGSCI/gnet,0,0,0,prototype1.png,no,mono,no,18,no,black,no,no,768,1198,3.5.6,legacy,xpyriment,osweb,1.3.13,0,space,space,space,space,21274,22707,22372,21274,2,legacy,800,1440,24,900,24,0,23,1440,1647273862808,1024,2,48000,-16,experiment,p1sarrcol4.png,0,even,MacIntel,200,134867,131850,199,200,646214,647720,641240,136384,641239,200,839520,841037,836538,647756,836538,visual_patterns,0,0,0,yes,1366
undefined,undefined,undefined,undefined,white,no,Mozilla,Netscape,"5.0 (Macintosh; Intel Mac OS X 10_13_6) AppleWebKit/605.1.15 (KHTML, like Gecko) Version/13.1.2 Safari/605.1.15",xpyriment,legacy,legacy,0,uniform,0,0,0,0,24,24,24,0,0,74,74,74,74,74,0,74,0,38,38,38,38,38,0,38,14-02-22,14-02-22,17:02:52,Mon Mar 14 2022 17:02:53 GMT+0100 (CET),The main experiment item,yes,0,0,C:/Users/rrics/Documents/!!ResearchBMECOGSCI/gnet,0,0,0,prototype1.png,no,mono,no,18,no,black,no,no,768,1198,3.5.6,legacy,xpyriment,osweb,1.3.13,0,space,space,space,space,21274,22707,22372,21274,2,legacy,800,1440,24,900,24,0,23,1440,1647273862808,1024,2,48000,-16,experiment,p3sarrsha4.png,0,even,MacIntel,200,134867,131850,199,200,646214,647720,641240,136384,641239,200,844049,845564,841073,647756,841073,visual_patterns,0,0,0,yes,1366
undefined,undefined,undefined,undefined,white,no,Mozilla,Netscape,"5.0 (Macintosh; Intel Mac OS X 10_13_6) AppleWebKit/605.1.15 (KHTML, like Gecko) Version/13.1.2 Safari/605.1.15",xpyriment,legacy,legacy,0,uniform,0,0,0,0,24,24,24,0,0,74,74,74,74,74,0,74,0,39,39,39,39,39,0,39,14-02-22,14-02-22,17:02:52,Mon Mar 14 2022 17:02:53 GMT+0100 (CET),The main experiment item,yes,0,0,C:/Users/rrics/Documents/!!ResearchBMECOGSCI/gnet,0,0,0,prototype1.png,no,mono,no,18,no,black,no,no,768,1198,3.5.6,legacy,xpyriment,osweb,1.3.13,0,space,space,space,space,21274,22707,22372,21274,2,legacy,800,1440,24,900,24,0,23,1440,1647273862808,1024,2,48000,-16,experiment,p3sarr1.png,0,even,MacIntel,200,134867,131850,199,200,646214,647720,641240,136384,641239,200,848574,850077,845593,647756,845593,visual_patterns,0,0,0,yes,1366
undefined,undefined,undefined,undefined,white,no,Mozilla,Netscape,"5.0 (Macintosh; Intel Mac OS X 10_13_6) AppleWebKit/605.1.15 (KHTML, like Gecko) Version/13.1.2 Safari/605.1.15",xpyriment,legacy,legacy,0,uniform,0,0,0,0,24,24,24,0,0,74,74,74,74,74,0,74,0,40,40,40,40,40,0,40,14-02-22,14-02-22,17:02:52,Mon Mar 14 2022 17:02:53 GMT+0100 (CET),The main experiment item,yes,0,0,C:/Users/rrics/Documents/!!ResearchBMECOGSCI/gnet,0,0,0,prototype1.png,no,mono,no,18,no,black,no,no,768,1198,3.5.6,legacy,xpyriment,osweb,1.3.13,0,space,space,space,space,21274,22707,22372,21274,2,legacy,800,1440,24,900,24,0,23,1440,1647273862808,1024,2,48000,-16,experiment,p2sarrsha3.png,0,even,MacIntel,200,134867,131850,199,200,646214,647720,641240,136384,641239,200,853092,854606,850114,647756,850114,visual_patterns,0,0,0,yes,1366
undefined,undefined,undefined,undefined,white,no,Mozilla,Netscape,"5.0 (Macintosh; Intel Mac OS X 10_13_6) AppleWebKit/605.1.15 (KHTML, like Gecko) Version/13.1.2 Safari/605.1.15",xpyriment,legacy,legacy,0,uniform,0,0,0,0,24,24,24,0,0,74,74,74,74,74,0,74,0,41,41,41,41,41,0,41,14-02-22,14-02-22,17:02:52,Mon Mar 14 2022 17:02:53 GMT+0100 (CET),The main experiment item,yes,0,0,C:/Users/rrics/Documents/!!ResearchBMECOGSCI/gnet,0,0,0,prototype1.png,no,mono,no,18,no,black,no,no,768,1198,3.5.6,legacy,xpyriment,osweb,1.3.13,0,space,space,space,space,21274,22707,22372,21274,2,legacy,800,1440,24,900,24,0,23,1440,1647273862808,1024,2,48000,-16,experiment,p9sarr3.png,0,even,MacIntel,200,134867,131850,199,200,646214,647720,641240,136384,641239,200,857620,859135,854637,647756,854637,visual_patterns,0,0,0,yes,1366
undefined,undefined,undefined,undefined,white,no,Mozilla,Netscape,"5.0 (Macintosh; Intel Mac OS X 10_13_6) AppleWebKit/605.1.15 (KHTML, like Gecko) Version/13.1.2 Safari/605.1.15",xpyriment,legacy,legacy,0,uniform,0,0,0,0,24,24,24,0,0,74,74,74,74,74,0,74,0,42,42,42,42,42,0,42,14-02-22,14-02-22,17:02:52,Mon Mar 14 2022 17:02:53 GMT+0100 (CET),The main experiment item,yes,0,0,C:/Users/rrics/Documents/!!ResearchBMECOGSCI/gnet,0,0,0,prototype1.png,no,mono,no,18,no,black,no,no,768,1198,3.5.6,legacy,xpyriment,osweb,1.3.13,0,space,space,space,space,21274,22707,22372,21274,2,legacy,800,1440,24,900,24,0,23,1440,1647273862808,1024,2,48000,-16,experiment,p10sarr4.png,0,even,MacIntel,200,134867,131850,199,200,646214,647720,641240,136384,641239,200,862145,863647,859165,647756,859164,visual_patterns,0,0,0,yes,1366
undefined,undefined,undefined,undefined,white,no,Mozilla,Netscape,"5.0 (Macintosh; Intel Mac OS X 10_13_6) AppleWebKit/605.1.15 (KHTML, like Gecko) Version/13.1.2 Safari/605.1.15",xpyriment,legacy,legacy,0,uniform,0,0,0,0,24,24,24,0,0,74,74,74,74,74,0,74,0,43,43,43,43,43,0,43,14-02-22,14-02-22,17:02:52,Mon Mar 14 2022 17:02:53 GMT+0100 (CET),The main experiment item,yes,0,0,C:/Users/rrics/Documents/!!ResearchBMECOGSCI/gnet,0,0,0,prototype1.png,no,mono,no,18,no,black,no,no,768,1198,3.5.6,legacy,xpyriment,osweb,1.3.13,0,space,space,space,space,21274,22707,22372,21274,2,legacy,800,1440,24,900,24,0,23,1440,1647273862808,1024,2,48000,-16,experiment,p4sarrcol1.png,0,even,MacIntel,200,134867,131850,199,200,646214,647720,641240,136384,641239,200,866659,868176,863680,647756,863680,visual_patterns,0,0,0,yes,1366
undefined,undefined,undefined,undefined,white,no,Mozilla,Netscape,"5.0 (Macintosh; Intel Mac OS X 10_13_6) AppleWebKit/605.1.15 (KHTML, like Gecko) Version/13.1.2 Safari/605.1.15",xpyriment,legacy,legacy,0,uniform,0,0,0,0,24,24,24,0,0,74,74,74,74,74,0,74,0,44,44,44,44,44,0,44,14-02-22,14-02-22,17:02:52,Mon Mar 14 2022 17:02:53 GMT+0100 (CET),The main experiment item,yes,0,0,C:/Users/rrics/Documents/!!ResearchBMECOGSCI/gnet,0,0,0,prototype1.png,no,mono,no,18,no,black,no,no,768,1198,3.5.6,legacy,xpyriment,osweb,1.3.13,0,space,space,space,space,21274,22707,22372,21274,2,legacy,800,1440,24,900,24,0,23,1440,1647273862808,1024,2,48000,-16,experiment,p5sarrshacol4.png,0,even,MacIntel,200,134867,131850,199,200,646214,647720,641240,136384,641239,200,871188,872704,868210,647756,868210,visual_patterns,0,0,0,yes,1366
undefined,undefined,undefined,undefined,white,no,Mozilla,Netscape,"5.0 (Macintosh; Intel Mac OS X 10_13_6) AppleWebKit/605.1.15 (KHTML, like Gecko) Version/13.1.2 Safari/605.1.15",xpyriment,legacy,legacy,0,uniform,0,0,0,0,24,24,24,0,0,74,74,74,74,74,0,74,0,45,45,45,45,45,0,45,14-02-22,14-02-22,17:02:52,Mon Mar 14 2022 17:02:53 GMT+0100 (CET),The main experiment item,yes,0,0,C:/Users/rrics/Documents/!!ResearchBMECOGSCI/gnet,0,0,0,prototype1.png,no,mono,no,18,no,black,no,no,768,1198,3.5.6,legacy,xpyriment,osweb,1.3.13,0,space,space,space,space,21274,22707,22372,21274,2,legacy,800,1440,24,900,24,0,23,1440,1647273862808,1024,2,48000,-16,experiment,p3sarr3.png,0,even,MacIntel,200,134867,131850,199,200,646214,647720,641240,136384,641239,200,875716,877233,872739,647756,872739,visual_patterns,0,0,0,yes,1366
undefined,undefined,undefined,undefined,white,no,Mozilla,Netscape,"5.0 (Macintosh; Intel Mac OS X 10_13_6) AppleWebKit/605.1.15 (KHTML, like Gecko) Version/13.1.2 Safari/605.1.15",xpyriment,legacy,legacy,0,uniform,0,0,0,0,24,24,24,0,0,74,74,74,74,74,0,74,0,46,46,46,46,46,0,46,14-02-22,14-02-22,17:02:52,Mon Mar 14 2022 17:02:53 GMT+0100 (CET),The main experiment item,yes,0,0,C:/Users/rrics/Documents/!!ResearchBMECOGSCI/gnet,0,0,0,prototype1.png,no,mono,no,18,no,black,no,no,768,1198,3.5.6,legacy,xpyriment,osweb,1.3.13,0,space,space,space,space,21274,22707,22372,21274,2,legacy,800,1440,24,900,24,0,23,1440,1647273862808,1024,2,48000,-16,experiment,p2sarr3.png,0,even,MacIntel,200,134867,131850,199,200,646214,647720,641240,136384,641239,200,880248,881762,877268,647756,877268,visual_patterns,0,0,0,yes,1366
undefined,undefined,undefined,undefined,white,no,Mozilla,Netscape,"5.0 (Macintosh; Intel Mac OS X 10_13_6) AppleWebKit/605.1.15 (KHTML, like Gecko) Version/13.1.2 Safari/605.1.15",xpyriment,legacy,legacy,0,uniform,0,0,0,0,24,24,24,0,0,74,74,74,74,74,0,74,0,47,47,47,47,47,0,47,14-02-22,14-02-22,17:02:52,Mon Mar 14 2022 17:02:53 GMT+0100 (CET),The main experiment item,yes,0,0,C:/Users/rrics/Documents/!!ResearchBMECOGSCI/gnet,0,0,0,prototype1.png,no,mono,no,18,no,black,no,no,768,1198,3.5.6,legacy,xpyriment,osweb,1.3.13,0,space,space,space,space,21274,22707,22372,21274,2,legacy,800,1440,24,900,24,0,23,1440,1647273862808,1024,2,48000,-16,experiment,p4sarr2.png,0,even,MacIntel,200,134867,131850,199,200,646214,647720,641240,136384,641239,200,884774,886291,881798,647756,881798,visual_patterns,0,0,0,yes,1366
undefined,undefined,undefined,undefined,white,no,Mozilla,Netscape,"5.0 (Macintosh; Intel Mac OS X 10_13_6) AppleWebKit/605.1.15 (KHTML, like Gecko) Version/13.1.2 Safari/605.1.15",xpyriment,legacy,legacy,0,uniform,0,0,0,0,24,24,24,0,0,74,74,74,74,74,0,74,0,48,48,48,48,48,0,48,14-02-22,14-02-22,17:02:52,Mon Mar 14 2022 17:02:53 GMT+0100 (CET),The main experiment item,yes,0,0,C:/Users/rrics/Documents/!!ResearchBMECOGSCI/gnet,0,0,0,prototype1.png,no,mono,no,18,no,black,no,no,768,1198,3.5.6,legacy,xpyriment,osweb,1.3.13,0,space,space,space,space,21274,22707,22372,21274,2,legacy,800,1440,24,900,24,0,23,1440,1647273862808,1024,2,48000,-16,experiment,p2sarrshacol3.png,0,even,MacIntel,200,134867,131850,199,200,646214,647720,641240,136384,641239,200,889301,890802,886322,647756,886322,visual_patterns,0,0,0,yes,1366
undefined,undefined,undefined,undefined,white,no,Mozilla,Netscape,"5.0 (Macintosh; Intel Mac OS X 10_13_6) AppleWebKit/605.1.15 (KHTML, like Gecko) Version/13.1.2 Safari/605.1.15",xpyriment,legacy,legacy,0,uniform,0,0,0,0,24,24,24,0,0,74,74,74,74,74,0,74,0,49,49,49,49,49,0,49,14-02-22,14-02-22,17:02:52,Mon Mar 14 2022 17:02:53 GMT+0100 (CET),The main experiment item,yes,0,0,C:/Users/rrics/Documents/!!ResearchBMECOGSCI/gnet,0,0,0,prototype1.png,no,mono,no,18,no,black,no,no,768,1198,3.5.6,legacy,xpyriment,osweb,1.3.13,0,space,space,space,space,21274,22707,22372,21274,2,legacy,800,1440,24,900,24,0,23,1440,1647273862808,1024,2,48000,-16,experiment,p2sarrcol2.png,0,even,MacIntel,200,134867,131850,199,200,646214,647720,641240,136384,641239,200,893810,895314,890831,647756,890831,visual_patterns,0,0,0,yes,1366
