acc,accuracy,average_response_time,avg_rt,background,bidi,browser_codename,browser_name,browser_version,canvas_backend,clock_backend,color_backend,compensation,coordinates,count_end,count_experiment,count_osweb,count_prestudy,count_prestudy_isi,count_prestudy_sequence,count_prestudy_stimpres,count_start,count_study,count_study_coroutines,count_study_isi,count_study_logger,count_study_response,count_study_sequence,count_study_start,count_study_stimpres,count_test,count_test_coroutines,count_test_isi,count_test_logger,count_test_response,count_test_sequence,count_test_start,count_test_stimpres,date_startdate,date_startdateUTC,date_starttime,datetime,description,disable_garbage_collection,experiment_debug,experiment_parameters,experiment_path,experiment_pilot,experiment_taskname,experiment_taskversion,fampict,font_bold,font_family,font_italic,font_size,font_underline,foreground,form_clicks,fullscreen,height,jatosStudyResultId,jatosVersion,keyboard_backend,mouse_backend,opensesame_codename,opensesame_version,repeat_cycle,response,response_start,response_study_start,response_test_start,response_time,response_time_start,response_time_study_start,response_time_test_start,round_decimals,sampler_backend,screen_availableHeight,screen_availableWidth,screen_colorDepth,screen_height,screen_pixelDepth,screen_screenX,screen_screenY,screen_width,sessionid,sound_buf_size,sound_channels,sound_freq,sound_sample_size,start,stim,subject_nr,subject_parity,system_os,time_prestudy,time_prestudy_isi,time_prestudy_stimpres,time_start,time_study,time_study_isi,time_study_logger,time_study_response,time_study_start,time_study_stimpres,time_test,time_test_isi,time_test_logger,time_test_response,time_test_start,time_test_stimpres,title,total_correct,total_response_time,total_responses,uniform_coordinates,width
undefined,undefined,undefined,undefined,white,no,Mozilla,Netscape,"5.0 (Macintosh; Intel Mac OS X 10_12_6) AppleWebKit/605.1.15 (KHTML, like Gecko) Version/12.1.2 Safari/605.1.15",xpyriment,legacy,legacy,0,uniform,0,0,0,0,24,24,24,0,0,0,0,0,0,0,0,0,0,,,,,,0,,14-02-22,14-02-22,20:02:50,Mon Mar 14 2022 20:02:50 GMT+0100 (CET),The main experiment item,yes,0,0,C:/Users/rrics/Documents/!!ResearchBMECOGSCI/gnet,0,0,0,prototype5.png,no,mono,no,18,no,black,no,no,768,1199,3.5.6,legacy,xpyriment,osweb,1.3.13,0,space,space,space,,42931,51066,42931,,2,legacy,853,1440,24,900,24,0,0,1440,1647284569494,1024,2,48000,-16,experiment,p6sarr1.png,1,odd,MacIntel,186,165245,162234,185,186,218035,219546,213055,166782,213055,186,,,,,,visual_patterns,0,0,0,yes,1366
undefined,undefined,undefined,undefined,white,no,Mozilla,Netscape,"5.0 (Macintosh; Intel Mac OS X 10_12_6) AppleWebKit/605.1.15 (KHTML, like Gecko) Version/12.1.2 Safari/605.1.15",xpyriment,legacy,legacy,0,uniform,0,0,0,0,24,24,24,0,0,1,1,1,1,1,0,1,0,,,,,,0,,14-02-22,14-02-22,20:02:50,Mon Mar 14 2022 20:02:50 GMT+0100 (CET),The main experiment item,yes,0,0,C:/Users/rrics/Documents/!!ResearchBMECOGSCI/gnet,0,0,0,prototype5.png,no,mono,no,18,no,black,no,no,768,1199,3.5.6,legacy,xpyriment,osweb,1.3.13,0,space,space,space,,42931,51066,42931,,2,legacy,853,1440,24,900,24,0,0,1440,1647284569494,1024,2,48000,-16,experiment,prototype3.png,1,odd,MacIntel,186,165245,162234,185,186,224564,226079,219581,166782,219580,186,,,,,,visual_patterns,0,0,0,yes,1366
undefined,undefined,undefined,undefined,white,no,Mozilla,Netscape,"5.0 (Macintosh; Intel Mac OS X 10_12_6) AppleWebKit/605.1.15 (KHTML, like Gecko) Version/12.1.2 Safari/605.1.15",xpyriment,legacy,legacy,0,uniform,0,0,0,0,24,24,24,0,0,2,2,2,2,2,0,2,0,,,,,,0,,14-02-22,14-02-22,20:02:50,Mon Mar 14 2022 20:02:50 GMT+0100 (CET),The main experiment item,yes,0,0,C:/Users/rrics/Documents/!!ResearchBMECOGSCI/gnet,0,0,0,prototype5.png,no,mono,no,18,no,black,no,no,768,1199,3.5.6,legacy,xpyriment,osweb,1.3.13,0,space,space,space,,42931,51066,42931,,2,legacy,853,1440,24,900,24,0,0,1440,1647284569494,1024,2,48000,-16,experiment,p3sarr1.png,1,odd,MacIntel,186,165245,162234,185,186,231094,232597,226113,166782,226113,186,,,,,,visual_patterns,0,0,0,yes,1366
undefined,undefined,undefined,undefined,white,no,Mozilla,Netscape,"5.0 (Macintosh; Intel Mac OS X 10_12_6) AppleWebKit/605.1.15 (KHTML, like Gecko) Version/12.1.2 Safari/605.1.15",xpyriment,legacy,legacy,0,uniform,0,0,0,0,24,24,24,0,0,3,3,3,3,3,0,3,0,,,,,,0,,14-02-22,14-02-22,20:02:50,Mon Mar 14 2022 20:02:50 GMT+0100 (CET),The main experiment item,yes,0,0,C:/Users/rrics/Documents/!!ResearchBMECOGSCI/gnet,0,0,0,prototype5.png,no,mono,no,18,no,black,no,no,768,1199,3.5.6,legacy,xpyriment,osweb,1.3.13,0,space,space,space,,42931,51066,42931,,2,legacy,853,1440,24,900,24,0,0,1440,1647284569494,1024,2,48000,-16,experiment,p9sarr2.png,1,odd,MacIntel,186,165245,162234,185,186,237617,239131,232641,166782,232641,186,,,,,,visual_patterns,0,0,0,yes,1366
undefined,undefined,undefined,undefined,white,no,Mozilla,Netscape,"5.0 (Macintosh; Intel Mac OS X 10_12_6) AppleWebKit/605.1.15 (KHTML, like Gecko) Version/12.1.2 Safari/605.1.15",xpyriment,legacy,legacy,0,uniform,0,0,0,0,24,24,24,0,0,4,4,4,4,4,0,4,0,,,,,,0,,14-02-22,14-02-22,20:02:50,Mon Mar 14 2022 20:02:50 GMT+0100 (CET),The main experiment item,yes,0,0,C:/Users/rrics/Documents/!!ResearchBMECOGSCI/gnet,0,0,0,prototype5.png,no,mono,no,18,no,black,no,no,768,1199,3.5.6,legacy,xpyriment,osweb,1.3.13,0,space,space,space,,42931,51066,42931,,2,legacy,853,1440,24,900,24,0,0,1440,1647284569494,1024,2,48000,-16,experiment,p4sarr2.png,1,odd,MacIntel,186,165245,162234,185,186,244146,245648,239164,166782,239164,186,,,,,,visual_patterns,0,0,0,yes,1366
undefined,undefined,undefined,undefined,white,no,Mozilla,Netscape,"5.0 (Macintosh; Intel Mac OS X 10_12_6) AppleWebKit/605.1.15 (KHTML, like Gecko) Version/12.1.2 Safari/605.1.15",xpyriment,legacy,legacy,0,uniform,0,0,0,0,24,24,24,0,0,5,5,5,5,5,0,5,0,,,,,,0,,14-02-22,14-02-22,20:02:50,Mon Mar 14 2022 20:02:50 GMT+0100 (CET),The main experiment item,yes,0,0,C:/Users/rrics/Documents/!!ResearchBMECOGSCI/gnet,0,0,0,prototype5.png,no,mono,no,18,no,black,no,no,768,1199,3.5.6,legacy,xpyriment,osweb,1.3.13,0,space,space,space,,42931,51066,42931,,2,legacy,853,1440,24,900,24,0,0,1440,1647284569494,1024,2,48000,-16,experiment,p4sarrshacol2.png,1,odd,MacIntel,186,165245,162234,185,186,250663,252166,245683,166782,245683,186,,,,,,visual_patterns,0,0,0,yes,1366
undefined,undefined,undefined,undefined,white,no,Mozilla,Netscape,"5.0 (Macintosh; Intel Mac OS X 10_12_6) AppleWebKit/605.1.15 (KHTML, like Gecko) Version/12.1.2 Safari/605.1.15",xpyriment,legacy,legacy,0,uniform,0,0,0,0,24,24,24,0,0,6,6,6,6,6,0,6,0,,,,,,0,,14-02-22,14-02-22,20:02:50,Mon Mar 14 2022 20:02:50 GMT+0100 (CET),The main experiment item,yes,0,0,C:/Users/rrics/Documents/!!ResearchBMECOGSCI/gnet,0,0,0,prototype5.png,no,mono,no,18,no,black,no,no,768,1199,3.5.6,legacy,xpyriment,osweb,1.3.13,0,space,space,space,,42931,51066,42931,,2,legacy,853,1440,24,900,24,0,0,1440,1647284569494,1024,2,48000,-16,experiment,p5sarrsha2.png,1,odd,MacIntel,186,165245,162234,185,186,257185,258699,252201,166782,252201,186,,,,,,visual_patterns,0,0,0,yes,1366
undefined,undefined,undefined,undefined,white,no,Mozilla,Netscape,"5.0 (Macintosh; Intel Mac OS X 10_12_6) AppleWebKit/605.1.15 (KHTML, like Gecko) Version/12.1.2 Safari/605.1.15",xpyriment,legacy,legacy,0,uniform,0,0,0,0,24,24,24,0,0,7,7,7,7,7,0,7,0,,,,,,0,,14-02-22,14-02-22,20:02:50,Mon Mar 14 2022 20:02:50 GMT+0100 (CET),The main experiment item,yes,0,0,C:/Users/rrics/Documents/!!ResearchBMECOGSCI/gnet,0,0,0,prototype5.png,no,mono,no,18,no,black,no,no,768,1199,3.5.6,legacy,xpyriment,osweb,1.3.13,0,space,space,space,,42931,51066,42931,,2,legacy,853,1440,24,900,24,0,0,1440,1647284569494,1024,2,48000,-16,experiment,p2sarr1.png,1,odd,MacIntel,186,165245,162234,185,186,263716,265233,258734,166782,258734,186,,,,,,visual_patterns,0,0,0,yes,1366
undefined,undefined,undefined,undefined,white,no,Mozilla,Netscape,"5.0 (Macintosh; Intel Mac OS X 10_12_6) AppleWebKit/605.1.15 (KHTML, like Gecko) Version/12.1.2 Safari/605.1.15",xpyriment,legacy,legacy,0,uniform,0,0,0,0,24,24,24,0,0,8,8,8,8,8,0,8,0,,,,,,0,,14-02-22,14-02-22,20:02:50,Mon Mar 14 2022 20:02:50 GMT+0100 (CET),The main experiment item,yes,0,0,C:/Users/rrics/Documents/!!ResearchBMECOGSCI/gnet,0,0,0,prototype5.png,no,mono,no,18,no,black,no,no,768,1199,3.5.6,legacy,xpyriment,osweb,1.3.13,0,space,space,space,,42931,51066,42931,,2,legacy,853,1440,24,900,24,0,0,1440,1647284569494,1024,2,48000,-16,experiment,prototype4.png,1,odd,MacIntel,186,165245,162234,185,186,270249,271750,265268,166782,265267,186,,,,,,visual_patterns,0,0,0,yes,1366
undefined,undefined,undefined,undefined,white,no,Mozilla,Netscape,"5.0 (Macintosh; Intel Mac OS X 10_12_6) AppleWebKit/605.1.15 (KHTML, like Gecko) Version/12.1.2 Safari/605.1.15",xpyriment,legacy,legacy,0,uniform,0,0,0,0,24,24,24,0,0,9,9,9,9,9,0,9,0,,,,,,0,,14-02-22,14-02-22,20:02:50,Mon Mar 14 2022 20:02:50 GMT+0100 (CET),The main experiment item,yes,0,0,C:/Users/rrics/Documents/!!ResearchBMECOGSCI/gnet,0,0,0,prototype5.png,no,mono,no,18,no,black,no,no,768,1199,3.5.6,legacy,xpyriment,osweb,1.3.13,0,space,space,space,,42931,51066,42931,,2,legacy,853,1440,24,900,24,0,0,1440,1647284569494,1024,2,48000,-16,experiment,p5sarrsha1.png,1,odd,MacIntel,186,165245,162234,185,186,276768,278284,271792,166782,271792,186,,,,,,visual_patterns,0,0,0,yes,1366
undefined,undefined,undefined,undefined,white,no,Mozilla,Netscape,"5.0 (Macintosh; Intel Mac OS X 10_12_6) AppleWebKit/605.1.15 (KHTML, like Gecko) Version/12.1.2 Safari/605.1.15",xpyriment,legacy,legacy,0,uniform,0,0,0,0,24,24,24,0,0,10,10,10,10,10,0,10,0,,,,,,0,,14-02-22,14-02-22,20:02:50,Mon Mar 14 2022 20:02:50 GMT+0100 (CET),The main experiment item,yes,0,0,C:/Users/rrics/Documents/!!ResearchBMECOGSCI/gnet,0,0,0,prototype5.png,no,mono,no,18,no,black,no,no,768,1199,3.5.6,legacy,xpyriment,osweb,1.3.13,0,space,space,space,,42931,51066,42931,,2,legacy,853,1440,24,900,24,0,0,1440,1647284569494,1024,2,48000,-16,experiment,p5sarrcol1.png,1,odd,MacIntel,186,165245,162234,185,186,283297,284801,278317,166782,278317,186,,,,,,visual_patterns,0,0,0,yes,1366
undefined,undefined,undefined,undefined,white,no,Mozilla,Netscape,"5.0 (Macintosh; Intel Mac OS X 10_12_6) AppleWebKit/605.1.15 (KHTML, like Gecko) Version/12.1.2 Safari/605.1.15",xpyriment,legacy,legacy,0,uniform,0,0,0,0,24,24,24,0,0,11,11,11,11,11,0,11,0,,,,,,0,,14-02-22,14-02-22,20:02:50,Mon Mar 14 2022 20:02:50 GMT+0100 (CET),The main experiment item,yes,0,0,C:/Users/rrics/Documents/!!ResearchBMECOGSCI/gnet,0,0,0,prototype5.png,no,mono,no,18,no,black,no,no,768,1199,3.5.6,legacy,xpyriment,osweb,1.3.13,0,space,space,space,,42931,51066,42931,,2,legacy,853,1440,24,900,24,0,0,1440,1647284569494,1024,2,48000,-16,experiment,p8sarr2.png,1,odd,MacIntel,186,165245,162234,185,186,289816,291318,284834,166782,284834,186,,,,,,visual_patterns,0,0,0,yes,1366
undefined,undefined,undefined,undefined,white,no,Mozilla,Netscape,"5.0 (Macintosh; Intel Mac OS X 10_12_6) AppleWebKit/605.1.15 (KHTML, like Gecko) Version/12.1.2 Safari/605.1.15",xpyriment,legacy,legacy,0,uniform,0,0,0,0,24,24,24,0,0,12,12,12,12,12,0,12,0,,,,,,0,,14-02-22,14-02-22,20:02:50,Mon Mar 14 2022 20:02:50 GMT+0100 (CET),The main experiment item,yes,0,0,C:/Users/rrics/Documents/!!ResearchBMECOGSCI/gnet,0,0,0,prototype5.png,no,mono,no,18,no,black,no,no,768,1199,3.5.6,legacy,xpyriment,osweb,1.3.13,0,space,space,space,,42931,51066,42931,,2,legacy,853,1440,24,900,24,0,0,1440,1647284569494,1024,2,48000,-16,experiment,p5sarrshacol2.png,1,odd,MacIntel,186,165245,162234,185,186,296335,297852,291355,166782,291355,186,,,,,,visual_patterns,0,0,0,yes,1366
undefined,undefined,undefined,undefined,white,no,Mozilla,Netscape,"5.0 (Macintosh; Intel Mac OS X 10_12_6) AppleWebKit/605.1.15 (KHTML, like Gecko) Version/12.1.2 Safari/605.1.15",xpyriment,legacy,legacy,0,uniform,0,0,0,0,24,24,24,0,0,13,13,13,13,13,0,13,0,,,,,,0,,14-02-22,14-02-22,20:02:50,Mon Mar 14 2022 20:02:50 GMT+0100 (CET),The main experiment item,yes,0,0,C:/Users/rrics/Documents/!!ResearchBMECOGSCI/gnet,0,0,0,prototype5.png,no,mono,no,18,no,black,no,no,768,1199,3.5.6,legacy,xpyriment,osweb,1.3.13,0,space,space,space,,42931,51066,42931,,2,legacy,853,1440,24,900,24,0,0,1440,1647284569494,1024,2,48000,-16,experiment,p8sarr1.png,1,odd,MacIntel,186,165245,162234,185,186,302869,304386,297888,166782,297887,186,,,,,,visual_patterns,0,0,0,yes,1366
undefined,undefined,undefined,undefined,white,no,Mozilla,Netscape,"5.0 (Macintosh; Intel Mac OS X 10_12_6) AppleWebKit/605.1.15 (KHTML, like Gecko) Version/12.1.2 Safari/605.1.15",xpyriment,legacy,legacy,0,uniform,0,0,0,0,24,24,24,0,0,14,14,14,14,14,0,14,0,,,,,,0,,14-02-22,14-02-22,20:02:50,Mon Mar 14 2022 20:02:50 GMT+0100 (CET),The main experiment item,yes,0,0,C:/Users/rrics/Documents/!!ResearchBMECOGSCI/gnet,0,0,0,prototype5.png,no,mono,no,18,no,black,no,no,768,1199,3.5.6,legacy,xpyriment,osweb,1.3.13,0,space,space,space,,42931,51066,42931,,2,legacy,853,1440,24,900,24,0,0,1440,1647284569494,1024,2,48000,-16,experiment,p3sarrcol1.png,1,odd,MacIntel,186,165245,162234,185,186,309401,310903,304423,166782,304423,186,,,,,,visual_patterns,0,0,0,yes,1366
undefined,undefined,undefined,undefined,white,no,Mozilla,Netscape,"5.0 (Macintosh; Intel Mac OS X 10_12_6) AppleWebKit/605.1.15 (KHTML, like Gecko) Version/12.1.2 Safari/605.1.15",xpyriment,legacy,legacy,0,uniform,0,0,0,0,24,24,24,0,0,15,15,15,15,15,0,15,0,,,,,,0,,14-02-22,14-02-22,20:02:50,Mon Mar 14 2022 20:02:50 GMT+0100 (CET),The main experiment item,yes,0,0,C:/Users/rrics/Documents/!!ResearchBMECOGSCI/gnet,0,0,0,prototype5.png,no,mono,no,18,no,black,no,no,768,1199,3.5.6,legacy,xpyriment,osweb,1.3.13,0,space,space,space,,42931,51066,42931,,2,legacy,853,1440,24,900,24,0,0,1440,1647284569494,1024,2,48000,-16,experiment,prototype1.png,1,odd,MacIntel,186,165245,162234,185,186,315919,317420,310938,166782,310938,186,,,,,,visual_patterns,0,0,0,yes,1366
undefined,undefined,undefined,undefined,white,no,Mozilla,Netscape,"5.0 (Macintosh; Intel Mac OS X 10_12_6) AppleWebKit/605.1.15 (KHTML, like Gecko) Version/12.1.2 Safari/605.1.15",xpyriment,legacy,legacy,0,uniform,0,0,0,0,24,24,24,0,0,16,16,16,16,16,0,16,0,,,,,,0,,14-02-22,14-02-22,20:02:50,Mon Mar 14 2022 20:02:50 GMT+0100 (CET),The main experiment item,yes,0,0,C:/Users/rrics/Documents/!!ResearchBMECOGSCI/gnet,0,0,0,prototype5.png,no,mono,no,18,no,black,no,no,768,1199,3.5.6,legacy,xpyriment,osweb,1.3.13,0,space,space,space,,42931,51066,42931,,2,legacy,853,1440,24,900,24,0,0,1440,1647284569494,1024,2,48000,-16,experiment,p2sarr2.png,1,odd,MacIntel,186,165245,162234,185,186,322434,323937,317453,166782,317453,186,,,,,,visual_patterns,0,0,0,yes,1366
undefined,undefined,undefined,undefined,white,no,Mozilla,Netscape,"5.0 (Macintosh; Intel Mac OS X 10_12_6) AppleWebKit/605.1.15 (KHTML, like Gecko) Version/12.1.2 Safari/605.1.15",xpyriment,legacy,legacy,0,uniform,0,0,0,0,24,24,24,0,0,17,17,17,17,17,0,17,0,,,,,,0,,14-02-22,14-02-22,20:02:50,Mon Mar 14 2022 20:02:50 GMT+0100 (CET),The main experiment item,yes,0,0,C:/Users/rrics/Documents/!!ResearchBMECOGSCI/gnet,0,0,0,prototype5.png,no,mono,no,18,no,black,no,no,768,1199,3.5.6,legacy,xpyriment,osweb,1.3.13,0,space,space,space,,42931,51066,42931,,2,legacy,853,1440,24,900,24,0,0,1440,1647284569494,1024,2,48000,-16,experiment,p3sarrsha2.png,1,odd,MacIntel,186,165245,162234,185,186,328951,330455,323971,166782,323971,186,,,,,,visual_patterns,0,0,0,yes,1366
undefined,undefined,undefined,undefined,white,no,Mozilla,Netscape,"5.0 (Macintosh; Intel Mac OS X 10_12_6) AppleWebKit/605.1.15 (KHTML, like Gecko) Version/12.1.2 Safari/605.1.15",xpyriment,legacy,legacy,0,uniform,0,0,0,0,24,24,24,0,0,18,18,18,18,18,0,18,0,,,,,,0,,14-02-22,14-02-22,20:02:50,Mon Mar 14 2022 20:02:50 GMT+0100 (CET),The main experiment item,yes,0,0,C:/Users/rrics/Documents/!!ResearchBMECOGSCI/gnet,0,0,0,prototype5.png,no,mono,no,18,no,black,no,no,768,1199,3.5.6,legacy,xpyriment,osweb,1.3.13,0,space,space,space,,42931,51066,42931,,2,legacy,853,1440,24,900,24,0,0,1440,1647284569494,1024,2,48000,-16,experiment,prototype4.png,1,odd,MacIntel,186,165245,162234,185,186,335470,336972,330490,166782,330490,186,,,,,,visual_patterns,0,0,0,yes,1366
undefined,undefined,undefined,undefined,white,no,Mozilla,Netscape,"5.0 (Macintosh; Intel Mac OS X 10_12_6) AppleWebKit/605.1.15 (KHTML, like Gecko) Version/12.1.2 Safari/605.1.15",xpyriment,legacy,legacy,0,uniform,0,0,0,0,24,24,24,0,0,19,19,19,19,19,0,19,0,,,,,,0,,14-02-22,14-02-22,20:02:50,Mon Mar 14 2022 20:02:50 GMT+0100 (CET),The main experiment item,yes,0,0,C:/Users/rrics/Documents/!!ResearchBMECOGSCI/gnet,0,0,0,prototype5.png,no,mono,no,18,no,black,no,no,768,1199,3.5.6,legacy,xpyriment,osweb,1.3.13,0,space,space,space,,42931,51066,42931,,2,legacy,853,1440,24,900,24,0,0,1440,1647284569494,1024,2,48000,-16,experiment,p3sarrsha1.png,1,odd,MacIntel,186,165245,162234,185,186,341988,343504,337008,166782,337008,186,,,,,,visual_patterns,0,0,0,yes,1366
undefined,undefined,undefined,undefined,white,no,Mozilla,Netscape,"5.0 (Macintosh; Intel Mac OS X 10_12_6) AppleWebKit/605.1.15 (KHTML, like Gecko) Version/12.1.2 Safari/605.1.15",xpyriment,legacy,legacy,0,uniform,0,0,0,0,24,24,24,0,0,20,20,20,20,20,0,20,0,,,,,,0,,14-02-22,14-02-22,20:02:50,Mon Mar 14 2022 20:02:50 GMT+0100 (CET),The main experiment item,yes,0,0,C:/Users/rrics/Documents/!!ResearchBMECOGSCI/gnet,0,0,0,prototype5.png,no,mono,no,18,no,black,no,no,768,1199,3.5.6,legacy,xpyriment,osweb,1.3.13,0,space,space,space,,42931,51066,42931,,2,legacy,853,1440,24,900,24,0,0,1440,1647284569494,1024,2,48000,-16,experiment,prototype2.png,1,odd,MacIntel,186,165245,162234,185,186,348518,350022,343537,166782,343537,186,,,,,,visual_patterns,0,0,0,yes,1366
undefined,undefined,undefined,undefined,white,no,Mozilla,Netscape,"5.0 (Macintosh; Intel Mac OS X 10_12_6) AppleWebKit/605.1.15 (KHTML, like Gecko) Version/12.1.2 Safari/605.1.15",xpyriment,legacy,legacy,0,uniform,0,0,0,0,24,24,24,0,0,21,21,21,21,21,0,21,0,,,,,,0,,14-02-22,14-02-22,20:02:50,Mon Mar 14 2022 20:02:50 GMT+0100 (CET),The main experiment item,yes,0,0,C:/Users/rrics/Documents/!!ResearchBMECOGSCI/gnet,0,0,0,prototype5.png,no,mono,no,18,no,black,no,no,768,1199,3.5.6,legacy,xpyriment,osweb,1.3.13,0,space,space,space,,42931,51066,42931,,2,legacy,853,1440,24,900,24,0,0,1440,1647284569494,1024,2,48000,-16,experiment,p4sarrcol2.png,1,odd,MacIntel,186,165245,162234,185,186,355041,356556,350060,166782,350059,186,,,,,,visual_patterns,0,0,0,yes,1366
undefined,undefined,undefined,undefined,white,no,Mozilla,Netscape,"5.0 (Macintosh; Intel Mac OS X 10_12_6) AppleWebKit/605.1.15 (KHTML, like Gecko) Version/12.1.2 Safari/605.1.15",xpyriment,legacy,legacy,0,uniform,0,0,0,0,24,24,24,0,0,22,22,22,22,22,0,22,0,,,,,,0,,14-02-22,14-02-22,20:02:50,Mon Mar 14 2022 20:02:50 GMT+0100 (CET),The main experiment item,yes,0,0,C:/Users/rrics/Documents/!!ResearchBMECOGSCI/gnet,0,0,0,prototype5.png,no,mono,no,18,no,black,no,no,768,1199,3.5.6,legacy,xpyriment,osweb,1.3.13,0,space,space,space,,42931,51066,42931,,2,legacy,853,1440,24,900,24,0,0,1440,1647284569494,1024,2,48000,-16,experiment,p5sarrshacol1.png,1,odd,MacIntel,186,165245,162234,185,186,361570,363073,356588,166782,356588,186,,,,,,visual_patterns,0,0,0,yes,1366
undefined,undefined,undefined,undefined,white,no,Mozilla,Netscape,"5.0 (Macintosh; Intel Mac OS X 10_12_6) AppleWebKit/605.1.15 (KHTML, like Gecko) Version/12.1.2 Safari/605.1.15",xpyriment,legacy,legacy,0,uniform,0,0,0,0,24,24,24,0,0,23,23,23,23,23,0,23,0,,,,,,0,,14-02-22,14-02-22,20:02:50,Mon Mar 14 2022 20:02:50 GMT+0100 (CET),The main experiment item,yes,0,0,C:/Users/rrics/Documents/!!ResearchBMECOGSCI/gnet,0,0,0,prototype5.png,no,mono,no,18,no,black,no,no,768,1199,3.5.6,legacy,xpyriment,osweb,1.3.13,0,space,space,space,,42931,51066,42931,,2,legacy,853,1440,24,900,24,0,0,1440,1647284569494,1024,2,48000,-16,experiment,prototype2.png,1,odd,MacIntel,186,165245,162234,185,186,368088,369590,363106,166782,363106,186,,,,,,visual_patterns,0,0,0,yes,1366
undefined,undefined,undefined,undefined,white,no,Mozilla,Netscape,"5.0 (Macintosh; Intel Mac OS X 10_12_6) AppleWebKit/605.1.15 (KHTML, like Gecko) Version/12.1.2 Safari/605.1.15",xpyriment,legacy,legacy,0,uniform,0,0,0,0,24,24,24,0,0,24,24,24,24,24,0,24,0,,,,,,0,,14-02-22,14-02-22,20:02:50,Mon Mar 14 2022 20:02:50 GMT+0100 (CET),The main experiment item,yes,0,0,C:/Users/rrics/Documents/!!ResearchBMECOGSCI/gnet,0,0,0,prototype5.png,no,mono,no,18,no,black,no,no,768,1199,3.5.6,legacy,xpyriment,osweb,1.3.13,0,space,space,space,,42931,51066,42931,,2,legacy,853,1440,24,900,24,0,0,1440,1647284569494,1024,2,48000,-16,experiment,p4sarrsha2.png,1,odd,MacIntel,186,165245,162234,185,186,374608,376124,369626,166782,369626,186,,,,,,visual_patterns,0,0,0,yes,1366
undefined,undefined,undefined,undefined,white,no,Mozilla,Netscape,"5.0 (Macintosh; Intel Mac OS X 10_12_6) AppleWebKit/605.1.15 (KHTML, like Gecko) Version/12.1.2 Safari/605.1.15",xpyriment,legacy,legacy,0,uniform,0,0,0,0,24,24,24,0,0,25,25,25,25,25,0,25,0,,,,,,0,,14-02-22,14-02-22,20:02:50,Mon Mar 14 2022 20:02:50 GMT+0100 (CET),The main experiment item,yes,0,0,C:/Users/rrics/Documents/!!ResearchBMECOGSCI/gnet,0,0,0,prototype5.png,no,mono,no,18,no,black,no,no,768,1199,3.5.6,legacy,xpyriment,osweb,1.3.13,0,space,space,space,,42931,51066,42931,,2,legacy,853,1440,24,900,24,0,0,1440,1647284569494,1024,2,48000,-16,experiment,p9sarr1.png,1,odd,MacIntel,186,165245,162234,185,186,381140,382641,376160,166782,376160,186,,,,,,visual_patterns,0,0,0,yes,1366
undefined,undefined,undefined,undefined,white,no,Mozilla,Netscape,"5.0 (Macintosh; Intel Mac OS X 10_12_6) AppleWebKit/605.1.15 (KHTML, like Gecko) Version/12.1.2 Safari/605.1.15",xpyriment,legacy,legacy,0,uniform,0,0,0,0,24,24,24,0,0,26,26,26,26,26,0,26,0,,,,,,0,,14-02-22,14-02-22,20:02:50,Mon Mar 14 2022 20:02:50 GMT+0100 (CET),The main experiment item,yes,0,0,C:/Users/rrics/Documents/!!ResearchBMECOGSCI/gnet,0,0,0,prototype5.png,no,mono,no,18,no,black,no,no,768,1199,3.5.6,legacy,xpyriment,osweb,1.3.13,0,space,space,space,,42931,51066,42931,,2,legacy,853,1440,24,900,24,0,0,1440,1647284569494,1024,2,48000,-16,experiment,prototype1.png,1,odd,MacIntel,186,165245,162234,185,186,387668,389175,382690,166782,382690,186,,,,,,visual_patterns,0,0,0,yes,1366
undefined,undefined,undefined,undefined,white,no,Mozilla,Netscape,"5.0 (Macintosh; Intel Mac OS X 10_12_6) AppleWebKit/605.1.15 (KHTML, like Gecko) Version/12.1.2 Safari/605.1.15",xpyriment,legacy,legacy,0,uniform,0,0,0,0,24,24,24,0,0,27,27,27,27,27,0,27,0,,,,,,0,,14-02-22,14-02-22,20:02:50,Mon Mar 14 2022 20:02:50 GMT+0100 (CET),The main experiment item,yes,0,0,C:/Users/rrics/Documents/!!ResearchBMECOGSCI/gnet,0,0,0,prototype5.png,no,mono,no,18,no,black,no,no,768,1199,3.5.6,legacy,xpyriment,osweb,1.3.13,0,space,space,space,,42931,51066,42931,,2,legacy,853,1440,24,900,24,0,0,1440,1647284569494,1024,2,48000,-16,experiment,p4sarrcol1.png,1,odd,MacIntel,186,165245,162234,185,186,394193,395709,389212,166782,389212,186,,,,,,visual_patterns,0,0,0,yes,1366
undefined,undefined,undefined,undefined,white,no,Mozilla,Netscape,"5.0 (Macintosh; Intel Mac OS X 10_12_6) AppleWebKit/605.1.15 (KHTML, like Gecko) Version/12.1.2 Safari/605.1.15",xpyriment,legacy,legacy,0,uniform,0,0,0,0,24,24,24,0,0,28,28,28,28,28,0,28,0,,,,,,0,,14-02-22,14-02-22,20:02:50,Mon Mar 14 2022 20:02:50 GMT+0100 (CET),The main experiment item,yes,0,0,C:/Users/rrics/Documents/!!ResearchBMECOGSCI/gnet,0,0,0,prototype5.png,no,mono,no,18,no,black,no,no,768,1199,3.5.6,legacy,xpyriment,osweb,1.3.13,0,space,space,space,,42931,51066,42931,,2,legacy,853,1440,24,900,24,0,0,1440,1647284569494,1024,2,48000,-16,experiment,prototype4.png,1,odd,MacIntel,186,165245,162234,185,186,400723,402226,395744,166782,395744,186,,,,,,visual_patterns,0,0,0,yes,1366
undefined,undefined,undefined,undefined,white,no,Mozilla,Netscape,"5.0 (Macintosh; Intel Mac OS X 10_12_6) AppleWebKit/605.1.15 (KHTML, like Gecko) Version/12.1.2 Safari/605.1.15",xpyriment,legacy,legacy,0,uniform,0,0,0,0,24,24,24,0,0,29,29,29,29,29,0,29,0,,,,,,0,,14-02-22,14-02-22,20:02:50,Mon Mar 14 2022 20:02:50 GMT+0100 (CET),The main experiment item,yes,0,0,C:/Users/rrics/Documents/!!ResearchBMECOGSCI/gnet,0,0,0,prototype5.png,no,mono,no,18,no,black,no,no,768,1199,3.5.6,legacy,xpyriment,osweb,1.3.13,0,space,space,space,,42931,51066,42931,,2,legacy,853,1440,24,900,24,0,0,1440,1647284569494,1024,2,48000,-16,experiment,prototype5.png,1,odd,MacIntel,186,165245,162234,185,186,407245,408760,402265,166782,402264,186,,,,,,visual_patterns,0,0,0,yes,1366
undefined,undefined,undefined,undefined,white,no,Mozilla,Netscape,"5.0 (Macintosh; Intel Mac OS X 10_12_6) AppleWebKit/605.1.15 (KHTML, like Gecko) Version/12.1.2 Safari/605.1.15",xpyriment,legacy,legacy,0,uniform,0,0,0,0,24,24,24,0,0,30,30,30,30,30,0,30,0,,,,,,0,,14-02-22,14-02-22,20:02:50,Mon Mar 14 2022 20:02:50 GMT+0100 (CET),The main experiment item,yes,0,0,C:/Users/rrics/Documents/!!ResearchBMECOGSCI/gnet,0,0,0,prototype5.png,no,mono,no,18,no,black,no,no,768,1199,3.5.6,legacy,xpyriment,osweb,1.3.13,0,space,space,space,,42931,51066,42931,,2,legacy,853,1440,24,900,24,0,0,1440,1647284569494,1024,2,48000,-16,experiment,p5sarrcol2.png,1,odd,MacIntel,186,165245,162234,185,186,413780,415294,408801,166782,408801,186,,,,,,visual_patterns,0,0,0,yes,1366
undefined,undefined,undefined,undefined,white,no,Mozilla,Netscape,"5.0 (Macintosh; Intel Mac OS X 10_12_6) AppleWebKit/605.1.15 (KHTML, like Gecko) Version/12.1.2 Safari/605.1.15",xpyriment,legacy,legacy,0,uniform,0,0,0,0,24,24,24,0,0,31,31,31,31,31,0,31,0,,,,,,0,,14-02-22,14-02-22,20:02:50,Mon Mar 14 2022 20:02:50 GMT+0100 (CET),The main experiment item,yes,0,0,C:/Users/rrics/Documents/!!ResearchBMECOGSCI/gnet,0,0,0,prototype5.png,no,mono,no,18,no,black,no,no,768,1199,3.5.6,legacy,xpyriment,osweb,1.3.13,0,space,space,space,,42931,51066,42931,,2,legacy,853,1440,24,900,24,0,0,1440,1647284569494,1024,2,48000,-16,experiment,p2sarrsha2.png,1,odd,MacIntel,186,165245,162234,185,186,420311,421827,415331,166782,415331,186,,,,,,visual_patterns,0,0,0,yes,1366
undefined,undefined,undefined,undefined,white,no,Mozilla,Netscape,"5.0 (Macintosh; Intel Mac OS X 10_12_6) AppleWebKit/605.1.15 (KHTML, like Gecko) Version/12.1.2 Safari/605.1.15",xpyriment,legacy,legacy,0,uniform,0,0,0,0,24,24,24,0,0,32,32,32,32,32,0,32,0,,,,,,0,,14-02-22,14-02-22,20:02:50,Mon Mar 14 2022 20:02:50 GMT+0100 (CET),The main experiment item,yes,0,0,C:/Users/rrics/Documents/!!ResearchBMECOGSCI/gnet,0,0,0,prototype5.png,no,mono,no,18,no,black,no,no,768,1199,3.5.6,legacy,xpyriment,osweb,1.3.13,0,space,space,space,,42931,51066,42931,,2,legacy,853,1440,24,900,24,0,0,1440,1647284569494,1024,2,48000,-16,experiment,p5sarr1.png,1,odd,MacIntel,186,165245,162234,185,186,426844,428361,421863,166782,421863,186,,,,,,visual_patterns,0,0,0,yes,1366
undefined,undefined,undefined,undefined,white,no,Mozilla,Netscape,"5.0 (Macintosh; Intel Mac OS X 10_12_6) AppleWebKit/605.1.15 (KHTML, like Gecko) Version/12.1.2 Safari/605.1.15",xpyriment,legacy,legacy,0,uniform,0,0,0,0,24,24,24,0,0,33,33,33,33,33,0,33,0,,,,,,0,,14-02-22,14-02-22,20:02:50,Mon Mar 14 2022 20:02:50 GMT+0100 (CET),The main experiment item,yes,0,0,C:/Users/rrics/Documents/!!ResearchBMECOGSCI/gnet,0,0,0,prototype5.png,no,mono,no,18,no,black,no,no,768,1199,3.5.6,legacy,xpyriment,osweb,1.3.13,0,space,space,space,,42931,51066,42931,,2,legacy,853,1440,24,900,24,0,0,1440,1647284569494,1024,2,48000,-16,experiment,p3sarrshacol1.png,1,odd,MacIntel,186,165245,162234,185,186,433377,434878,428396,166782,428396,186,,,,,,visual_patterns,0,0,0,yes,1366
undefined,undefined,undefined,undefined,white,no,Mozilla,Netscape,"5.0 (Macintosh; Intel Mac OS X 10_12_6) AppleWebKit/605.1.15 (KHTML, like Gecko) Version/12.1.2 Safari/605.1.15",xpyriment,legacy,legacy,0,uniform,0,0,0,0,24,24,24,0,0,34,34,34,34,34,0,34,0,,,,,,0,,14-02-22,14-02-22,20:02:50,Mon Mar 14 2022 20:02:50 GMT+0100 (CET),The main experiment item,yes,0,0,C:/Users/rrics/Documents/!!ResearchBMECOGSCI/gnet,0,0,0,prototype5.png,no,mono,no,18,no,black,no,no,768,1199,3.5.6,legacy,xpyriment,osweb,1.3.13,0,space,space,space,,42931,51066,42931,,2,legacy,853,1440,24,900,24,0,0,1440,1647284569494,1024,2,48000,-16,experiment,prototype1.png,1,odd,MacIntel,186,165245,162234,185,186,439896,441411,434911,166782,434911,186,,,,,,visual_patterns,0,0,0,yes,1366
undefined,undefined,undefined,undefined,white,no,Mozilla,Netscape,"5.0 (Macintosh; Intel Mac OS X 10_12_6) AppleWebKit/605.1.15 (KHTML, like Gecko) Version/12.1.2 Safari/605.1.15",xpyriment,legacy,legacy,0,uniform,0,0,0,0,24,24,24,0,0,35,35,35,35,35,0,35,0,,,,,,0,,14-02-22,14-02-22,20:02:50,Mon Mar 14 2022 20:02:50 GMT+0100 (CET),The main experiment item,yes,0,0,C:/Users/rrics/Documents/!!ResearchBMECOGSCI/gnet,0,0,0,prototype5.png,no,mono,no,18,no,black,no,no,768,1199,3.5.6,legacy,xpyriment,osweb,1.3.13,0,space,space,space,,42931,51066,42931,,2,legacy,853,1440,24,900,24,0,0,1440,1647284569494,1024,2,48000,-16,experiment,p4sarrshacol1.png,1,odd,MacIntel,186,165245,162234,185,186,446428,447929,441447,166782,441447,186,,,,,,visual_patterns,0,0,0,yes,1366
undefined,undefined,undefined,undefined,white,no,Mozilla,Netscape,"5.0 (Macintosh; Intel Mac OS X 10_12_6) AppleWebKit/605.1.15 (KHTML, like Gecko) Version/12.1.2 Safari/605.1.15",xpyriment,legacy,legacy,0,uniform,0,0,0,0,24,24,24,0,0,36,36,36,36,36,0,36,0,,,,,,0,,14-02-22,14-02-22,20:02:50,Mon Mar 14 2022 20:02:50 GMT+0100 (CET),The main experiment item,yes,0,0,C:/Users/rrics/Documents/!!ResearchBMECOGSCI/gnet,0,0,0,prototype5.png,no,mono,no,18,no,black,no,no,768,1199,3.5.6,legacy,xpyriment,osweb,1.3.13,0,space,space,space,,42931,51066,42931,,2,legacy,853,1440,24,900,24,0,0,1440,1647284569494,1024,2,48000,-16,experiment,prototype3.png,1,odd,MacIntel,186,165245,162234,185,186,452945,454446,447965,166782,447965,186,,,,,,visual_patterns,0,0,0,yes,1366
undefined,undefined,undefined,undefined,white,no,Mozilla,Netscape,"5.0 (Macintosh; Intel Mac OS X 10_12_6) AppleWebKit/605.1.15 (KHTML, like Gecko) Version/12.1.2 Safari/605.1.15",xpyriment,legacy,legacy,0,uniform,0,0,0,0,24,24,24,0,0,37,37,37,37,37,0,37,0,,,,,,0,,14-02-22,14-02-22,20:02:50,Mon Mar 14 2022 20:02:50 GMT+0100 (CET),The main experiment item,yes,0,0,C:/Users/rrics/Documents/!!ResearchBMECOGSCI/gnet,0,0,0,prototype5.png,no,mono,no,18,no,black,no,no,768,1199,3.5.6,legacy,xpyriment,osweb,1.3.13,0,space,space,space,,42931,51066,42931,,2,legacy,853,1440,24,900,24,0,0,1440,1647284569494,1024,2,48000,-16,experiment,prototype3.png,1,odd,MacIntel,186,165245,162234,185,186,459460,460963,454480,166782,454479,186,,,,,,visual_patterns,0,0,0,yes,1366
undefined,undefined,undefined,undefined,white,no,Mozilla,Netscape,"5.0 (Macintosh; Intel Mac OS X 10_12_6) AppleWebKit/605.1.15 (KHTML, like Gecko) Version/12.1.2 Safari/605.1.15",xpyriment,legacy,legacy,0,uniform,0,0,0,0,24,24,24,0,0,38,38,38,38,38,0,38,0,,,,,,0,,14-02-22,14-02-22,20:02:50,Mon Mar 14 2022 20:02:50 GMT+0100 (CET),The main experiment item,yes,0,0,C:/Users/rrics/Documents/!!ResearchBMECOGSCI/gnet,0,0,0,prototype5.png,no,mono,no,18,no,black,no,no,768,1199,3.5.6,legacy,xpyriment,osweb,1.3.13,0,space,space,space,,42931,51066,42931,,2,legacy,853,1440,24,900,24,0,0,1440,1647284569494,1024,2,48000,-16,experiment,p7sarr1.png,1,odd,MacIntel,186,165245,162234,185,186,465980,467497,460998,166782,460998,186,,,,,,visual_patterns,0,0,0,yes,1366
undefined,undefined,undefined,undefined,white,no,Mozilla,Netscape,"5.0 (Macintosh; Intel Mac OS X 10_12_6) AppleWebKit/605.1.15 (KHTML, like Gecko) Version/12.1.2 Safari/605.1.15",xpyriment,legacy,legacy,0,uniform,0,0,0,0,24,24,24,0,0,39,39,39,39,39,0,39,0,,,,,,0,,14-02-22,14-02-22,20:02:50,Mon Mar 14 2022 20:02:50 GMT+0100 (CET),The main experiment item,yes,0,0,C:/Users/rrics/Documents/!!ResearchBMECOGSCI/gnet,0,0,0,prototype5.png,no,mono,no,18,no,black,no,no,768,1199,3.5.6,legacy,xpyriment,osweb,1.3.13,0,space,space,space,,42931,51066,42931,,2,legacy,853,1440,24,900,24,0,0,1440,1647284569494,1024,2,48000,-16,experiment,p1sarrsha1.png,1,odd,MacIntel,186,165245,162234,185,186,472515,474031,467535,166782,467535,186,,,,,,visual_patterns,0,0,0,yes,1366
undefined,undefined,undefined,undefined,white,no,Mozilla,Netscape,"5.0 (Macintosh; Intel Mac OS X 10_12_6) AppleWebKit/605.1.15 (KHTML, like Gecko) Version/12.1.2 Safari/605.1.15",xpyriment,legacy,legacy,0,uniform,0,0,0,0,24,24,24,0,0,40,40,40,40,40,0,40,0,,,,,,0,,14-02-22,14-02-22,20:02:50,Mon Mar 14 2022 20:02:50 GMT+0100 (CET),The main experiment item,yes,0,0,C:/Users/rrics/Documents/!!ResearchBMECOGSCI/gnet,0,0,0,prototype5.png,no,mono,no,18,no,black,no,no,768,1199,3.5.6,legacy,xpyriment,osweb,1.3.13,0,space,space,space,,42931,51066,42931,,2,legacy,853,1440,24,900,24,0,0,1440,1647284569494,1024,2,48000,-16,experiment,prototype5.png,1,odd,MacIntel,186,165245,162234,185,186,479044,480548,474065,166782,474065,186,,,,,,visual_patterns,0,0,0,yes,1366
undefined,undefined,undefined,undefined,white,no,Mozilla,Netscape,"5.0 (Macintosh; Intel Mac OS X 10_12_6) AppleWebKit/605.1.15 (KHTML, like Gecko) Version/12.1.2 Safari/605.1.15",xpyriment,legacy,legacy,0,uniform,0,0,0,0,24,24,24,0,0,41,41,41,41,41,0,41,0,,,,,,0,,14-02-22,14-02-22,20:02:50,Mon Mar 14 2022 20:02:50 GMT+0100 (CET),The main experiment item,yes,0,0,C:/Users/rrics/Documents/!!ResearchBMECOGSCI/gnet,0,0,0,prototype5.png,no,mono,no,18,no,black,no,no,768,1199,3.5.6,legacy,xpyriment,osweb,1.3.13,0,space,space,space,,42931,51066,42931,,2,legacy,853,1440,24,900,24,0,0,1440,1647284569494,1024,2,48000,-16,experiment,p3sarrshacol2.png,1,odd,MacIntel,186,165245,162234,185,186,485565,487082,480585,166782,480585,186,,,,,,visual_patterns,0,0,0,yes,1366
undefined,undefined,undefined,undefined,white,no,Mozilla,Netscape,"5.0 (Macintosh; Intel Mac OS X 10_12_6) AppleWebKit/605.1.15 (KHTML, like Gecko) Version/12.1.2 Safari/605.1.15",xpyriment,legacy,legacy,0,uniform,0,0,0,0,24,24,24,0,0,42,42,42,42,42,0,42,0,,,,,,0,,14-02-22,14-02-22,20:02:50,Mon Mar 14 2022 20:02:50 GMT+0100 (CET),The main experiment item,yes,0,0,C:/Users/rrics/Documents/!!ResearchBMECOGSCI/gnet,0,0,0,prototype5.png,no,mono,no,18,no,black,no,no,768,1199,3.5.6,legacy,xpyriment,osweb,1.3.13,0,space,space,space,,42931,51066,42931,,2,legacy,853,1440,24,900,24,0,0,1440,1647284569494,1024,2,48000,-16,experiment,p3sarrcol2.png,1,odd,MacIntel,186,165245,162234,185,186,492100,493616,487119,166782,487119,186,,,,,,visual_patterns,0,0,0,yes,1366
undefined,undefined,undefined,undefined,white,no,Mozilla,Netscape,"5.0 (Macintosh; Intel Mac OS X 10_12_6) AppleWebKit/605.1.15 (KHTML, like Gecko) Version/12.1.2 Safari/605.1.15",xpyriment,legacy,legacy,0,uniform,0,0,0,0,24,24,24,0,0,43,43,43,43,43,0,43,0,,,,,,0,,14-02-22,14-02-22,20:02:50,Mon Mar 14 2022 20:02:50 GMT+0100 (CET),The main experiment item,yes,0,0,C:/Users/rrics/Documents/!!ResearchBMECOGSCI/gnet,0,0,0,prototype5.png,no,mono,no,18,no,black,no,no,768,1199,3.5.6,legacy,xpyriment,osweb,1.3.13,0,space,space,space,,42931,51066,42931,,2,legacy,853,1440,24,900,24,0,0,1440,1647284569494,1024,2,48000,-16,experiment,p3sarr2.png,1,odd,MacIntel,186,165245,162234,185,186,498630,500133,493648,166782,493648,186,,,,,,visual_patterns,0,0,0,yes,1366
undefined,undefined,undefined,undefined,white,no,Mozilla,Netscape,"5.0 (Macintosh; Intel Mac OS X 10_12_6) AppleWebKit/605.1.15 (KHTML, like Gecko) Version/12.1.2 Safari/605.1.15",xpyriment,legacy,legacy,0,uniform,0,0,0,0,24,24,24,0,0,44,44,44,44,44,0,44,0,,,,,,0,,14-02-22,14-02-22,20:02:50,Mon Mar 14 2022 20:02:50 GMT+0100 (CET),The main experiment item,yes,0,0,C:/Users/rrics/Documents/!!ResearchBMECOGSCI/gnet,0,0,0,prototype5.png,no,mono,no,18,no,black,no,no,768,1199,3.5.6,legacy,xpyriment,osweb,1.3.13,0,space,space,space,,42931,51066,42931,,2,legacy,853,1440,24,900,24,0,0,1440,1647284569494,1024,2,48000,-16,experiment,p2sarrsha1.png,1,odd,MacIntel,186,165245,162234,185,186,505147,506650,500167,166782,500167,186,,,,,,visual_patterns,0,0,0,yes,1366
undefined,undefined,undefined,undefined,white,no,Mozilla,Netscape,"5.0 (Macintosh; Intel Mac OS X 10_12_6) AppleWebKit/605.1.15 (KHTML, like Gecko) Version/12.1.2 Safari/605.1.15",xpyriment,legacy,legacy,0,uniform,0,0,0,0,24,24,24,0,0,45,45,45,45,45,0,45,0,,,,,,0,,14-02-22,14-02-22,20:02:50,Mon Mar 14 2022 20:02:50 GMT+0100 (CET),The main experiment item,yes,0,0,C:/Users/rrics/Documents/!!ResearchBMECOGSCI/gnet,0,0,0,prototype5.png,no,mono,no,18,no,black,no,no,768,1199,3.5.6,legacy,xpyriment,osweb,1.3.13,0,space,space,space,,42931,51066,42931,,2,legacy,853,1440,24,900,24,0,0,1440,1647284569494,1024,2,48000,-16,experiment,p4sarrsha1.png,1,odd,MacIntel,186,165245,162234,185,186,511668,513184,506685,166782,506685,186,,,,,,visual_patterns,0,0,0,yes,1366
undefined,undefined,undefined,undefined,white,no,Mozilla,Netscape,"5.0 (Macintosh; Intel Mac OS X 10_12_6) AppleWebKit/605.1.15 (KHTML, like Gecko) Version/12.1.2 Safari/605.1.15",xpyriment,legacy,legacy,0,uniform,0,0,0,0,24,24,24,0,0,46,46,46,46,46,0,46,0,,,,,,0,,14-02-22,14-02-22,20:02:50,Mon Mar 14 2022 20:02:50 GMT+0100 (CET),The main experiment item,yes,0,0,C:/Users/rrics/Documents/!!ResearchBMECOGSCI/gnet,0,0,0,prototype5.png,no,mono,no,18,no,black,no,no,768,1199,3.5.6,legacy,xpyriment,osweb,1.3.13,0,space,space,space,,42931,51066,42931,,2,legacy,853,1440,24,900,24,0,0,1440,1647284569494,1024,2,48000,-16,experiment,p1sarrcol1.png,1,odd,MacIntel,186,165245,162234,185,186,518200,519701,513217,166782,513217,186,,,,,,visual_patterns,0,0,0,yes,1366
undefined,undefined,undefined,undefined,white,no,Mozilla,Netscape,"5.0 (Macintosh; Intel Mac OS X 10_12_6) AppleWebKit/605.1.15 (KHTML, like Gecko) Version/12.1.2 Safari/605.1.15",xpyriment,legacy,legacy,0,uniform,0,0,0,0,24,24,24,0,0,47,47,47,47,47,0,47,0,,,,,,0,,14-02-22,14-02-22,20:02:50,Mon Mar 14 2022 20:02:50 GMT+0100 (CET),The main experiment item,yes,0,0,C:/Users/rrics/Documents/!!ResearchBMECOGSCI/gnet,0,0,0,prototype5.png,no,mono,no,18,no,black,no,no,768,1199,3.5.6,legacy,xpyriment,osweb,1.3.13,0,space,space,space,,42931,51066,42931,,2,legacy,853,1440,24,900,24,0,0,1440,1647284569494,1024,2,48000,-16,experiment,p1sarrsha2.png,1,odd,MacIntel,186,165245,162234,185,186,524717,526218,519748,166782,519748,186,,,,,,visual_patterns,0,0,0,yes,1366
undefined,undefined,undefined,undefined,white,no,Mozilla,Netscape,"5.0 (Macintosh; Intel Mac OS X 10_12_6) AppleWebKit/605.1.15 (KHTML, like Gecko) Version/12.1.2 Safari/605.1.15",xpyriment,legacy,legacy,0,uniform,0,0,0,0,24,24,24,0,0,48,48,48,48,48,0,48,0,,,,,,0,,14-02-22,14-02-22,20:02:50,Mon Mar 14 2022 20:02:50 GMT+0100 (CET),The main experiment item,yes,0,0,C:/Users/rrics/Documents/!!ResearchBMECOGSCI/gnet,0,0,0,prototype5.png,no,mono,no,18,no,black,no,no,768,1199,3.5.6,legacy,xpyriment,osweb,1.3.13,0,space,space,space,,42931,51066,42931,,2,legacy,853,1440,24,900,24,0,0,1440,1647284569494,1024,2,48000,-16,experiment,p7sarr2.png,1,odd,MacIntel,186,165245,162234,185,186,531235,532752,526256,166782,526255,186,,,,,,visual_patterns,0,0,0,yes,1366
undefined,undefined,undefined,undefined,white,no,Mozilla,Netscape,"5.0 (Macintosh; Intel Mac OS X 10_12_6) AppleWebKit/605.1.15 (KHTML, like Gecko) Version/12.1.2 Safari/605.1.15",xpyriment,legacy,legacy,0,uniform,0,0,0,0,24,24,24,0,0,49,49,49,49,49,0,49,0,,,,,,0,,14-02-22,14-02-22,20:02:50,Mon Mar 14 2022 20:02:50 GMT+0100 (CET),The main experiment item,yes,0,0,C:/Users/rrics/Documents/!!ResearchBMECOGSCI/gnet,0,0,0,prototype5.png,no,mono,no,18,no,black,no,no,768,1199,3.5.6,legacy,xpyriment,osweb,1.3.13,0,space,space,space,,42931,51066,42931,,2,legacy,853,1440,24,900,24,0,0,1440,1647284569494,1024,2,48000,-16,experiment,p4sarr1.png,1,odd,MacIntel,186,165245,162234,185,186,537771,539285,532794,166782,532794,186,,,,,,visual_patterns,0,0,0,yes,1366
undefined,undefined,undefined,undefined,white,no,Mozilla,Netscape,"5.0 (Macintosh; Intel Mac OS X 10_12_6) AppleWebKit/605.1.15 (KHTML, like Gecko) Version/12.1.2 Safari/605.1.15",xpyriment,legacy,legacy,0,uniform,0,0,0,0,24,24,24,0,0,50,50,50,50,50,0,50,0,,,,,,0,,14-02-22,14-02-22,20:02:50,Mon Mar 14 2022 20:02:50 GMT+0100 (CET),The main experiment item,yes,0,0,C:/Users/rrics/Documents/!!ResearchBMECOGSCI/gnet,0,0,0,prototype5.png,no,mono,no,18,no,black,no,no,768,1199,3.5.6,legacy,xpyriment,osweb,1.3.13,0,space,space,space,,42931,51066,42931,,2,legacy,853,1440,24,900,24,0,0,1440,1647284569494,1024,2,48000,-16,experiment,p10sarr1.png,1,odd,MacIntel,186,165245,162234,185,186,544302,545803,539321,166782,539321,186,,,,,,visual_patterns,0,0,0,yes,1366
undefined,undefined,undefined,undefined,white,no,Mozilla,Netscape,"5.0 (Macintosh; Intel Mac OS X 10_12_6) AppleWebKit/605.1.15 (KHTML, like Gecko) Version/12.1.2 Safari/605.1.15",xpyriment,legacy,legacy,0,uniform,0,0,0,0,24,24,24,0,0,51,51,51,51,51,0,51,0,,,,,,0,,14-02-22,14-02-22,20:02:50,Mon Mar 14 2022 20:02:50 GMT+0100 (CET),The main experiment item,yes,0,0,C:/Users/rrics/Documents/!!ResearchBMECOGSCI/gnet,0,0,0,prototype5.png,no,mono,no,18,no,black,no,no,768,1199,3.5.6,legacy,xpyriment,osweb,1.3.13,0,space,space,space,,42931,51066,42931,,2,legacy,853,1440,24,900,24,0,0,1440,1647284569494,1024,2,48000,-16,experiment,prototype3.png,1,odd,MacIntel,186,165245,162234,185,186,550821,552336,545838,166782,545838,186,,,,,,visual_patterns,0,0,0,yes,1366
undefined,undefined,undefined,undefined,white,no,Mozilla,Netscape,"5.0 (Macintosh; Intel Mac OS X 10_12_6) AppleWebKit/605.1.15 (KHTML, like Gecko) Version/12.1.2 Safari/605.1.15",xpyriment,legacy,legacy,0,uniform,0,0,0,0,24,24,24,0,0,52,52,52,52,52,0,52,0,,,,,,0,,14-02-22,14-02-22,20:02:50,Mon Mar 14 2022 20:02:50 GMT+0100 (CET),The main experiment item,yes,0,0,C:/Users/rrics/Documents/!!ResearchBMECOGSCI/gnet,0,0,0,prototype5.png,no,mono,no,18,no,black,no,no,768,1199,3.5.6,legacy,xpyriment,osweb,1.3.13,0,space,space,space,,42931,51066,42931,,2,legacy,853,1440,24,900,24,0,0,1440,1647284569494,1024,2,48000,-16,experiment,p1sarr1.png,1,odd,MacIntel,186,165245,162234,185,186,557354,558869,552371,166782,552371,186,,,,,,visual_patterns,0,0,0,yes,1366
undefined,undefined,undefined,undefined,white,no,Mozilla,Netscape,"5.0 (Macintosh; Intel Mac OS X 10_12_6) AppleWebKit/605.1.15 (KHTML, like Gecko) Version/12.1.2 Safari/605.1.15",xpyriment,legacy,legacy,0,uniform,0,0,0,0,24,24,24,0,0,53,53,53,53,53,0,53,0,,,,,,0,,14-02-22,14-02-22,20:02:50,Mon Mar 14 2022 20:02:50 GMT+0100 (CET),The main experiment item,yes,0,0,C:/Users/rrics/Documents/!!ResearchBMECOGSCI/gnet,0,0,0,prototype5.png,no,mono,no,18,no,black,no,no,768,1199,3.5.6,legacy,xpyriment,osweb,1.3.13,0,space,space,space,,42931,51066,42931,,2,legacy,853,1440,24,900,24,0,0,1440,1647284569494,1024,2,48000,-16,experiment,p1sarrcol2.png,1,odd,MacIntel,186,165245,162234,185,186,563887,565404,558905,166782,558905,186,,,,,,visual_patterns,0,0,0,yes,1366
undefined,undefined,undefined,undefined,white,no,Mozilla,Netscape,"5.0 (Macintosh; Intel Mac OS X 10_12_6) AppleWebKit/605.1.15 (KHTML, like Gecko) Version/12.1.2 Safari/605.1.15",xpyriment,legacy,legacy,0,uniform,0,0,0,0,24,24,24,0,0,54,54,54,54,54,0,54,0,,,,,,0,,14-02-22,14-02-22,20:02:50,Mon Mar 14 2022 20:02:50 GMT+0100 (CET),The main experiment item,yes,0,0,C:/Users/rrics/Documents/!!ResearchBMECOGSCI/gnet,0,0,0,prototype5.png,no,mono,no,18,no,black,no,no,768,1199,3.5.6,legacy,xpyriment,osweb,1.3.13,0,space,space,space,,42931,51066,42931,,2,legacy,853,1440,24,900,24,0,0,1440,1647284569494,1024,2,48000,-16,experiment,p2sarrcol2.png,1,odd,MacIntel,186,165245,162234,185,186,570423,571938,565445,166782,565445,186,,,,,,visual_patterns,0,0,0,yes,1366
undefined,undefined,undefined,undefined,white,no,Mozilla,Netscape,"5.0 (Macintosh; Intel Mac OS X 10_12_6) AppleWebKit/605.1.15 (KHTML, like Gecko) Version/12.1.2 Safari/605.1.15",xpyriment,legacy,legacy,0,uniform,0,0,0,0,24,24,24,0,0,55,55,55,55,55,0,55,0,,,,,,0,,14-02-22,14-02-22,20:02:50,Mon Mar 14 2022 20:02:50 GMT+0100 (CET),The main experiment item,yes,0,0,C:/Users/rrics/Documents/!!ResearchBMECOGSCI/gnet,0,0,0,prototype5.png,no,mono,no,18,no,black,no,no,768,1199,3.5.6,legacy,xpyriment,osweb,1.3.13,0,space,space,space,,42931,51066,42931,,2,legacy,853,1440,24,900,24,0,0,1440,1647284569494,1024,2,48000,-16,experiment,prototype4.png,1,odd,MacIntel,186,165245,162234,185,186,576952,578455,571971,166782,571971,186,,,,,,visual_patterns,0,0,0,yes,1366
undefined,undefined,undefined,undefined,white,no,Mozilla,Netscape,"5.0 (Macintosh; Intel Mac OS X 10_12_6) AppleWebKit/605.1.15 (KHTML, like Gecko) Version/12.1.2 Safari/605.1.15",xpyriment,legacy,legacy,0,uniform,0,0,0,0,24,24,24,0,0,56,56,56,56,56,0,56,0,,,,,,0,,14-02-22,14-02-22,20:02:50,Mon Mar 14 2022 20:02:50 GMT+0100 (CET),The main experiment item,yes,0,0,C:/Users/rrics/Documents/!!ResearchBMECOGSCI/gnet,0,0,0,prototype5.png,no,mono,no,18,no,black,no,no,768,1199,3.5.6,legacy,xpyriment,osweb,1.3.13,0,space,space,space,,42931,51066,42931,,2,legacy,853,1440,24,900,24,0,0,1440,1647284569494,1024,2,48000,-16,experiment,p2sarrshacol1.png,1,odd,MacIntel,186,165245,162234,185,186,583472,584989,578490,166782,578490,186,,,,,,visual_patterns,0,0,0,yes,1366
undefined,undefined,undefined,undefined,white,no,Mozilla,Netscape,"5.0 (Macintosh; Intel Mac OS X 10_12_6) AppleWebKit/605.1.15 (KHTML, like Gecko) Version/12.1.2 Safari/605.1.15",xpyriment,legacy,legacy,0,uniform,0,0,0,0,24,24,24,0,0,57,57,57,57,57,0,57,0,,,,,,0,,14-02-22,14-02-22,20:02:50,Mon Mar 14 2022 20:02:50 GMT+0100 (CET),The main experiment item,yes,0,0,C:/Users/rrics/Documents/!!ResearchBMECOGSCI/gnet,0,0,0,prototype5.png,no,mono,no,18,no,black,no,no,768,1199,3.5.6,legacy,xpyriment,osweb,1.3.13,0,space,space,space,,42931,51066,42931,,2,legacy,853,1440,24,900,24,0,0,1440,1647284569494,1024,2,48000,-16,experiment,prototype5.png,1,odd,MacIntel,186,165245,162234,185,186,590008,591522,585024,166782,585023,186,,,,,,visual_patterns,0,0,0,yes,1366
undefined,undefined,undefined,undefined,white,no,Mozilla,Netscape,"5.0 (Macintosh; Intel Mac OS X 10_12_6) AppleWebKit/605.1.15 (KHTML, like Gecko) Version/12.1.2 Safari/605.1.15",xpyriment,legacy,legacy,0,uniform,0,0,0,0,24,24,24,0,0,58,58,58,58,58,0,58,0,,,,,,0,,14-02-22,14-02-22,20:02:50,Mon Mar 14 2022 20:02:50 GMT+0100 (CET),The main experiment item,yes,0,0,C:/Users/rrics/Documents/!!ResearchBMECOGSCI/gnet,0,0,0,prototype5.png,no,mono,no,18,no,black,no,no,768,1199,3.5.6,legacy,xpyriment,osweb,1.3.13,0,space,space,space,,42931,51066,42931,,2,legacy,853,1440,24,900,24,0,0,1440,1647284569494,1024,2,48000,-16,experiment,prototype2.png,1,odd,MacIntel,186,165245,162234,185,186,596538,598039,591555,166782,591554,186,,,,,,visual_patterns,0,0,0,yes,1366
undefined,undefined,undefined,undefined,white,no,Mozilla,Netscape,"5.0 (Macintosh; Intel Mac OS X 10_12_6) AppleWebKit/605.1.15 (KHTML, like Gecko) Version/12.1.2 Safari/605.1.15",xpyriment,legacy,legacy,0,uniform,0,0,0,0,24,24,24,0,0,59,59,59,59,59,0,59,0,,,,,,0,,14-02-22,14-02-22,20:02:50,Mon Mar 14 2022 20:02:50 GMT+0100 (CET),The main experiment item,yes,0,0,C:/Users/rrics/Documents/!!ResearchBMECOGSCI/gnet,0,0,0,prototype5.png,no,mono,no,18,no,black,no,no,768,1199,3.5.6,legacy,xpyriment,osweb,1.3.13,0,space,space,space,,42931,51066,42931,,2,legacy,853,1440,24,900,24,0,0,1440,1647284569494,1024,2,48000,-16,experiment,prototype5.png,1,odd,MacIntel,186,165245,162234,185,186,603056,604573,598076,166782,598076,186,,,,,,visual_patterns,0,0,0,yes,1366
undefined,undefined,undefined,undefined,white,no,Mozilla,Netscape,"5.0 (Macintosh; Intel Mac OS X 10_12_6) AppleWebKit/605.1.15 (KHTML, like Gecko) Version/12.1.2 Safari/605.1.15",xpyriment,legacy,legacy,0,uniform,0,0,0,0,24,24,24,0,0,60,60,60,60,60,0,60,0,,,,,,0,,14-02-22,14-02-22,20:02:50,Mon Mar 14 2022 20:02:50 GMT+0100 (CET),The main experiment item,yes,0,0,C:/Users/rrics/Documents/!!ResearchBMECOGSCI/gnet,0,0,0,prototype5.png,no,mono,no,18,no,black,no,no,768,1199,3.5.6,legacy,xpyriment,osweb,1.3.13,0,space,space,space,,42931,51066,42931,,2,legacy,853,1440,24,900,24,0,0,1440,1647284569494,1024,2,48000,-16,experiment,p1sarrshacol2.png,1,odd,MacIntel,186,165245,162234,185,186,609590,611107,604616,166782,604616,186,,,,,,visual_patterns,0,0,0,yes,1366
undefined,undefined,undefined,undefined,white,no,Mozilla,Netscape,"5.0 (Macintosh; Intel Mac OS X 10_12_6) AppleWebKit/605.1.15 (KHTML, like Gecko) Version/12.1.2 Safari/605.1.15",xpyriment,legacy,legacy,0,uniform,0,0,0,0,24,24,24,0,0,61,61,61,61,61,0,61,0,,,,,,0,,14-02-22,14-02-22,20:02:50,Mon Mar 14 2022 20:02:50 GMT+0100 (CET),The main experiment item,yes,0,0,C:/Users/rrics/Documents/!!ResearchBMECOGSCI/gnet,0,0,0,prototype5.png,no,mono,no,18,no,black,no,no,768,1199,3.5.6,legacy,xpyriment,osweb,1.3.13,0,space,space,space,,42931,51066,42931,,2,legacy,853,1440,24,900,24,0,0,1440,1647284569494,1024,2,48000,-16,experiment,p2sarrcol1.png,1,odd,MacIntel,186,165245,162234,185,186,616124,617641,611142,166782,611142,186,,,,,,visual_patterns,0,0,0,yes,1366
undefined,undefined,undefined,undefined,white,no,Mozilla,Netscape,"5.0 (Macintosh; Intel Mac OS X 10_12_6) AppleWebKit/605.1.15 (KHTML, like Gecko) Version/12.1.2 Safari/605.1.15",xpyriment,legacy,legacy,0,uniform,0,0,0,0,24,24,24,0,0,62,62,62,62,62,0,62,0,,,,,,0,,14-02-22,14-02-22,20:02:50,Mon Mar 14 2022 20:02:50 GMT+0100 (CET),The main experiment item,yes,0,0,C:/Users/rrics/Documents/!!ResearchBMECOGSCI/gnet,0,0,0,prototype5.png,no,mono,no,18,no,black,no,no,768,1199,3.5.6,legacy,xpyriment,osweb,1.3.13,0,space,space,space,,42931,51066,42931,,2,legacy,853,1440,24,900,24,0,0,1440,1647284569494,1024,2,48000,-16,experiment,p5sarr2.png,1,odd,MacIntel,186,165245,162234,185,186,622657,624158,617676,166782,617676,186,,,,,,visual_patterns,0,0,0,yes,1366
undefined,undefined,undefined,undefined,white,no,Mozilla,Netscape,"5.0 (Macintosh; Intel Mac OS X 10_12_6) AppleWebKit/605.1.15 (KHTML, like Gecko) Version/12.1.2 Safari/605.1.15",xpyriment,legacy,legacy,0,uniform,0,0,0,0,24,24,24,0,0,63,63,63,63,63,0,63,0,,,,,,0,,14-02-22,14-02-22,20:02:50,Mon Mar 14 2022 20:02:50 GMT+0100 (CET),The main experiment item,yes,0,0,C:/Users/rrics/Documents/!!ResearchBMECOGSCI/gnet,0,0,0,prototype5.png,no,mono,no,18,no,black,no,no,768,1199,3.5.6,legacy,xpyriment,osweb,1.3.13,0,space,space,space,,42931,51066,42931,,2,legacy,853,1440,24,900,24,0,0,1440,1647284569494,1024,2,48000,-16,experiment,p10sarr2.png,1,odd,MacIntel,186,165245,162234,185,186,629175,630692,624193,166782,624193,186,,,,,,visual_patterns,0,0,0,yes,1366
undefined,undefined,undefined,undefined,white,no,Mozilla,Netscape,"5.0 (Macintosh; Intel Mac OS X 10_12_6) AppleWebKit/605.1.15 (KHTML, like Gecko) Version/12.1.2 Safari/605.1.15",xpyriment,legacy,legacy,0,uniform,0,0,0,0,24,24,24,0,0,64,64,64,64,64,0,64,0,,,,,,0,,14-02-22,14-02-22,20:02:50,Mon Mar 14 2022 20:02:50 GMT+0100 (CET),The main experiment item,yes,0,0,C:/Users/rrics/Documents/!!ResearchBMECOGSCI/gnet,0,0,0,prototype5.png,no,mono,no,18,no,black,no,no,768,1199,3.5.6,legacy,xpyriment,osweb,1.3.13,0,space,space,space,,42931,51066,42931,,2,legacy,853,1440,24,900,24,0,0,1440,1647284569494,1024,2,48000,-16,experiment,prototype1.png,1,odd,MacIntel,186,165245,162234,185,186,635706,637209,630724,166782,630724,186,,,,,,visual_patterns,0,0,0,yes,1366
undefined,undefined,undefined,undefined,white,no,Mozilla,Netscape,"5.0 (Macintosh; Intel Mac OS X 10_12_6) AppleWebKit/605.1.15 (KHTML, like Gecko) Version/12.1.2 Safari/605.1.15",xpyriment,legacy,legacy,0,uniform,0,0,0,0,24,24,24,0,0,65,65,65,65,65,0,65,0,,,,,,0,,14-02-22,14-02-22,20:02:50,Mon Mar 14 2022 20:02:50 GMT+0100 (CET),The main experiment item,yes,0,0,C:/Users/rrics/Documents/!!ResearchBMECOGSCI/gnet,0,0,0,prototype5.png,no,mono,no,18,no,black,no,no,768,1199,3.5.6,legacy,xpyriment,osweb,1.3.13,0,space,space,space,,42931,51066,42931,,2,legacy,853,1440,24,900,24,0,0,1440,1647284569494,1024,2,48000,-16,experiment,prototype4.png,1,odd,MacIntel,186,165245,162234,185,186,642224,643726,637243,166782,637243,186,,,,,,visual_patterns,0,0,0,yes,1366
undefined,undefined,undefined,undefined,white,no,Mozilla,Netscape,"5.0 (Macintosh; Intel Mac OS X 10_12_6) AppleWebKit/605.1.15 (KHTML, like Gecko) Version/12.1.2 Safari/605.1.15",xpyriment,legacy,legacy,0,uniform,0,0,0,0,24,24,24,0,0,66,66,66,66,66,0,66,0,,,,,,0,,14-02-22,14-02-22,20:02:50,Mon Mar 14 2022 20:02:50 GMT+0100 (CET),The main experiment item,yes,0,0,C:/Users/rrics/Documents/!!ResearchBMECOGSCI/gnet,0,0,0,prototype5.png,no,mono,no,18,no,black,no,no,768,1199,3.5.6,legacy,xpyriment,osweb,1.3.13,0,space,space,space,,42931,51066,42931,,2,legacy,853,1440,24,900,24,0,0,1440,1647284569494,1024,2,48000,-16,experiment,p2sarrshacol2.png,1,odd,MacIntel,186,165245,162234,185,186,648745,650259,643762,166782,643762,186,,,,,,visual_patterns,0,0,0,yes,1366
undefined,undefined,undefined,undefined,white,no,Mozilla,Netscape,"5.0 (Macintosh; Intel Mac OS X 10_12_6) AppleWebKit/605.1.15 (KHTML, like Gecko) Version/12.1.2 Safari/605.1.15",xpyriment,legacy,legacy,0,uniform,0,0,0,0,24,24,24,0,0,67,67,67,67,67,0,67,0,,,,,,0,,14-02-22,14-02-22,20:02:50,Mon Mar 14 2022 20:02:50 GMT+0100 (CET),The main experiment item,yes,0,0,C:/Users/rrics/Documents/!!ResearchBMECOGSCI/gnet,0,0,0,prototype5.png,no,mono,no,18,no,black,no,no,768,1199,3.5.6,legacy,xpyriment,osweb,1.3.13,0,space,space,space,,42931,51066,42931,,2,legacy,853,1440,24,900,24,0,0,1440,1647284569494,1024,2,48000,-16,experiment,p1sarr2.png,1,odd,MacIntel,186,165245,162234,185,186,655274,656777,650293,166782,650293,186,,,,,,visual_patterns,0,0,0,yes,1366
undefined,undefined,undefined,undefined,white,no,Mozilla,Netscape,"5.0 (Macintosh; Intel Mac OS X 10_12_6) AppleWebKit/605.1.15 (KHTML, like Gecko) Version/12.1.2 Safari/605.1.15",xpyriment,legacy,legacy,0,uniform,0,0,0,0,24,24,24,0,0,68,68,68,68,68,0,68,0,,,,,,0,,14-02-22,14-02-22,20:02:50,Mon Mar 14 2022 20:02:50 GMT+0100 (CET),The main experiment item,yes,0,0,C:/Users/rrics/Documents/!!ResearchBMECOGSCI/gnet,0,0,0,prototype5.png,no,mono,no,18,no,black,no,no,768,1199,3.5.6,legacy,xpyriment,osweb,1.3.13,0,space,space,space,,42931,51066,42931,,2,legacy,853,1440,24,900,24,0,0,1440,1647284569494,1024,2,48000,-16,experiment,p6sarr2.png,1,odd,MacIntel,186,165245,162234,185,186,661791,663294,656810,166782,656810,186,,,,,,visual_patterns,0,0,0,yes,1366
undefined,undefined,undefined,undefined,white,no,Mozilla,Netscape,"5.0 (Macintosh; Intel Mac OS X 10_12_6) AppleWebKit/605.1.15 (KHTML, like Gecko) Version/12.1.2 Safari/605.1.15",xpyriment,legacy,legacy,0,uniform,0,0,0,0,24,24,24,0,0,69,69,69,69,69,0,69,0,,,,,,0,,14-02-22,14-02-22,20:02:50,Mon Mar 14 2022 20:02:50 GMT+0100 (CET),The main experiment item,yes,0,0,C:/Users/rrics/Documents/!!ResearchBMECOGSCI/gnet,0,0,0,prototype5.png,no,mono,no,18,no,black,no,no,768,1199,3.5.6,legacy,xpyriment,osweb,1.3.13,0,space,space,space,,42931,51066,42931,,2,legacy,853,1440,24,900,24,0,0,1440,1647284569494,1024,2,48000,-16,experiment,prototype2.png,1,odd,MacIntel,186,165245,162234,185,186,668310,669811,663329,166782,663329,186,,,,,,visual_patterns,0,0,0,yes,1366
undefined,undefined,undefined,undefined,white,no,Mozilla,Netscape,"5.0 (Macintosh; Intel Mac OS X 10_12_6) AppleWebKit/605.1.15 (KHTML, like Gecko) Version/12.1.2 Safari/605.1.15",xpyriment,legacy,legacy,0,uniform,0,0,0,0,24,24,24,0,0,70,70,70,70,70,0,70,0,,,,,,0,,14-02-22,14-02-22,20:02:50,Mon Mar 14 2022 20:02:50 GMT+0100 (CET),The main experiment item,yes,0,0,C:/Users/rrics/Documents/!!ResearchBMECOGSCI/gnet,0,0,0,prototype5.png,no,mono,no,18,no,black,no,no,768,1199,3.5.6,legacy,xpyriment,osweb,1.3.13,0,space,space,space,,42931,51066,42931,,2,legacy,853,1440,24,900,24,0,0,1440,1647284569494,1024,2,48000,-16,experiment,p1sarrshacol1.png,1,odd,MacIntel,186,165245,162234,185,186,674824,676328,669854,166782,669854,186,,,,,,visual_patterns,0,0,0,yes,1366
undefined,undefined,undefined,undefined,white,no,Mozilla,Netscape,"5.0 (Macintosh; Intel Mac OS X 10_12_6) AppleWebKit/605.1.15 (KHTML, like Gecko) Version/12.1.2 Safari/605.1.15",xpyriment,legacy,legacy,0,uniform,0,0,0,0,24,24,24,0,0,71,71,71,71,71,0,71,0,,,,,,0,,14-02-22,14-02-22,20:02:50,Mon Mar 14 2022 20:02:50 GMT+0100 (CET),The main experiment item,yes,0,0,C:/Users/rrics/Documents/!!ResearchBMECOGSCI/gnet,0,0,0,prototype5.png,no,mono,no,18,no,black,no,no,768,1199,3.5.6,legacy,xpyriment,osweb,1.3.13,0,space,space,space,,42931,51066,42931,,2,legacy,853,1440,24,900,24,0,0,1440,1647284569494,1024,2,48000,-16,experiment,prototype1.png,1,odd,MacIntel,186,165245,162234,185,186,681345,682862,676364,166782,676364,186,,,,,,visual_patterns,0,0,0,yes,1366
undefined,undefined,undefined,undefined,white,no,Mozilla,Netscape,"5.0 (Macintosh; Intel Mac OS X 10_12_6) AppleWebKit/605.1.15 (KHTML, like Gecko) Version/12.1.2 Safari/605.1.15",xpyriment,legacy,legacy,0,uniform,0,0,0,0,24,24,24,0,0,72,72,72,72,72,0,72,0,,,,,,0,,14-02-22,14-02-22,20:02:50,Mon Mar 14 2022 20:02:50 GMT+0100 (CET),The main experiment item,yes,0,0,C:/Users/rrics/Documents/!!ResearchBMECOGSCI/gnet,0,0,0,prototype5.png,no,mono,no,18,no,black,no,no,768,1199,3.5.6,legacy,xpyriment,osweb,1.3.13,0,space,space,space,,42931,51066,42931,,2,legacy,853,1440,24,900,24,0,0,1440,1647284569494,1024,2,48000,-16,experiment,prototype5.png,1,odd,MacIntel,186,165245,162234,185,186,687878,689379,682898,166782,682897,186,,,,,,visual_patterns,0,0,0,yes,1366
undefined,undefined,undefined,undefined,white,no,Mozilla,Netscape,"5.0 (Macintosh; Intel Mac OS X 10_12_6) AppleWebKit/605.1.15 (KHTML, like Gecko) Version/12.1.2 Safari/605.1.15",xpyriment,legacy,legacy,0,uniform,0,0,0,0,24,24,24,0,0,73,73,73,73,73,0,73,0,,,,,,0,,14-02-22,14-02-22,20:02:50,Mon Mar 14 2022 20:02:50 GMT+0100 (CET),The main experiment item,yes,0,0,C:/Users/rrics/Documents/!!ResearchBMECOGSCI/gnet,0,0,0,prototype5.png,no,mono,no,18,no,black,no,no,768,1199,3.5.6,legacy,xpyriment,osweb,1.3.13,0,space,space,space,,42931,51066,42931,,2,legacy,853,1440,24,900,24,0,0,1440,1647284569494,1024,2,48000,-16,experiment,prototype3.png,1,odd,MacIntel,186,165245,162234,185,186,694392,695895,689413,166782,689413,186,,,,,,visual_patterns,0,0,0,yes,1366
undefined,undefined,undefined,undefined,white,no,Mozilla,Netscape,"5.0 (Macintosh; Intel Mac OS X 10_12_6) AppleWebKit/605.1.15 (KHTML, like Gecko) Version/12.1.2 Safari/605.1.15",xpyriment,legacy,legacy,0,uniform,0,0,0,0,24,24,24,0,0,74,74,74,74,74,0,74,0,,,,,,0,,14-02-22,14-02-22,20:02:50,Mon Mar 14 2022 20:02:50 GMT+0100 (CET),The main experiment item,yes,0,0,C:/Users/rrics/Documents/!!ResearchBMECOGSCI/gnet,0,0,0,prototype5.png,no,mono,no,18,no,black,no,no,768,1199,3.5.6,legacy,xpyriment,osweb,1.3.13,0,space,space,space,,42931,51066,42931,,2,legacy,853,1440,24,900,24,0,0,1440,1647284569494,1024,2,48000,-16,experiment,prototype2.png,1,odd,MacIntel,186,165245,162234,185,186,700910,702413,695927,166782,695927,186,,,,,,visual_patterns,0,0,0,yes,1366
undefined,undefined,undefined,undefined,white,no,Mozilla,Netscape,"5.0 (Macintosh; Intel Mac OS X 10_12_6) AppleWebKit/605.1.15 (KHTML, like Gecko) Version/12.1.2 Safari/605.1.15",xpyriment,legacy,legacy,0,uniform,0,0,0,0,24,24,24,0,0,74,74,74,74,74,0,74,0,0,0,0,0,0,0,0,14-02-22,14-02-22,20:02:50,Mon Mar 14 2022 20:02:50 GMT+0100 (CET),The main experiment item,yes,0,0,C:/Users/rrics/Documents/!!ResearchBMECOGSCI/gnet,0,0,0,prototype5.png,no,mono,no,18,no,black,no,no,768,1199,3.5.6,legacy,xpyriment,osweb,1.3.13,0,space,space,space,space,50698,51066,42931,50698,2,legacy,853,1440,24,900,24,0,0,1440,1647284569494,1024,2,48000,-16,experiment,p5sarrsha3.png,1,odd,MacIntel,186,165245,162234,185,186,700910,702413,695927,166782,695927,186,766121,767634,763143,702435,763143,visual_patterns,0,0,0,yes,1366
undefined,undefined,undefined,undefined,white,no,Mozilla,Netscape,"5.0 (Macintosh; Intel Mac OS X 10_12_6) AppleWebKit/605.1.15 (KHTML, like Gecko) Version/12.1.2 Safari/605.1.15",xpyriment,legacy,legacy,0,uniform,0,0,0,0,24,24,24,0,0,74,74,74,74,74,0,74,0,1,1,1,1,1,0,1,14-02-22,14-02-22,20:02:50,Mon Mar 14 2022 20:02:50 GMT+0100 (CET),The main experiment item,yes,0,0,C:/Users/rrics/Documents/!!ResearchBMECOGSCI/gnet,0,0,0,prototype5.png,no,mono,no,18,no,black,no,no,768,1199,3.5.6,legacy,xpyriment,osweb,1.3.13,0,space,space,space,space,50698,51066,42931,50698,2,legacy,853,1440,24,900,24,0,0,1440,1647284569494,1024,2,48000,-16,experiment,p2sarrshacol1.png,1,odd,MacIntel,186,165245,162234,185,186,700910,702413,695927,166782,695927,186,770652,772168,767671,702435,767671,visual_patterns,0,0,0,yes,1366
undefined,undefined,undefined,undefined,white,no,Mozilla,Netscape,"5.0 (Macintosh; Intel Mac OS X 10_12_6) AppleWebKit/605.1.15 (KHTML, like Gecko) Version/12.1.2 Safari/605.1.15",xpyriment,legacy,legacy,0,uniform,0,0,0,0,24,24,24,0,0,74,74,74,74,74,0,74,0,2,2,2,2,2,0,2,14-02-22,14-02-22,20:02:50,Mon Mar 14 2022 20:02:50 GMT+0100 (CET),The main experiment item,yes,0,0,C:/Users/rrics/Documents/!!ResearchBMECOGSCI/gnet,0,0,0,prototype5.png,no,mono,no,18,no,black,no,no,768,1199,3.5.6,legacy,xpyriment,osweb,1.3.13,0,space,space,space,space,50698,51066,42931,50698,2,legacy,853,1440,24,900,24,0,0,1440,1647284569494,1024,2,48000,-16,experiment,p4sarr4.png,1,odd,MacIntel,186,165245,162234,185,186,700910,702413,695927,166782,695927,186,775186,776701,772206,702435,772206,visual_patterns,0,0,0,yes,1366
undefined,undefined,undefined,undefined,white,no,Mozilla,Netscape,"5.0 (Macintosh; Intel Mac OS X 10_12_6) AppleWebKit/605.1.15 (KHTML, like Gecko) Version/12.1.2 Safari/605.1.15",xpyriment,legacy,legacy,0,uniform,0,0,0,0,24,24,24,0,0,74,74,74,74,74,0,74,0,3,3,3,3,3,0,3,14-02-22,14-02-22,20:02:50,Mon Mar 14 2022 20:02:50 GMT+0100 (CET),The main experiment item,yes,0,0,C:/Users/rrics/Documents/!!ResearchBMECOGSCI/gnet,0,0,0,prototype5.png,no,mono,no,18,no,black,no,no,768,1199,3.5.6,legacy,xpyriment,osweb,1.3.13,0,space,space,space,space,50698,51066,42931,50698,2,legacy,853,1440,24,900,24,0,0,1440,1647284569494,1024,2,48000,-16,experiment,p5sarrsha2.png,1,odd,MacIntel,186,165245,162234,185,186,700910,702413,695927,166782,695927,186,779722,781235,776741,702435,776741,visual_patterns,0,0,0,yes,1366
undefined,undefined,undefined,undefined,white,no,Mozilla,Netscape,"5.0 (Macintosh; Intel Mac OS X 10_12_6) AppleWebKit/605.1.15 (KHTML, like Gecko) Version/12.1.2 Safari/605.1.15",xpyriment,legacy,legacy,0,uniform,0,0,0,0,24,24,24,0,0,74,74,74,74,74,0,74,0,4,4,4,4,4,0,4,14-02-22,14-02-22,20:02:50,Mon Mar 14 2022 20:02:50 GMT+0100 (CET),The main experiment item,yes,0,0,C:/Users/rrics/Documents/!!ResearchBMECOGSCI/gnet,0,0,0,prototype5.png,no,mono,no,18,no,black,no,no,768,1199,3.5.6,legacy,xpyriment,osweb,1.3.13,0,space,space,space,space,50698,51066,42931,50698,2,legacy,853,1440,24,900,24,0,0,1440,1647284569494,1024,2,48000,-16,experiment,p7sarr2.png,1,odd,MacIntel,186,165245,162234,185,186,700910,702413,695927,166782,695927,186,784252,785769,781273,702435,781273,visual_patterns,0,0,0,yes,1366
undefined,undefined,undefined,undefined,white,no,Mozilla,Netscape,"5.0 (Macintosh; Intel Mac OS X 10_12_6) AppleWebKit/605.1.15 (KHTML, like Gecko) Version/12.1.2 Safari/605.1.15",xpyriment,legacy,legacy,0,uniform,0,0,0,0,24,24,24,0,0,74,74,74,74,74,0,74,0,5,5,5,5,5,0,5,14-02-22,14-02-22,20:02:50,Mon Mar 14 2022 20:02:50 GMT+0100 (CET),The main experiment item,yes,0,0,C:/Users/rrics/Documents/!!ResearchBMECOGSCI/gnet,0,0,0,prototype5.png,no,mono,no,18,no,black,no,no,768,1199,3.5.6,legacy,xpyriment,osweb,1.3.13,0,space,space,space,space,50698,51066,42931,50698,2,legacy,853,1440,24,900,24,0,0,1440,1647284569494,1024,2,48000,-16,experiment,p1sarrsha4.png,1,odd,MacIntel,186,165245,162234,185,186,700910,702413,695927,166782,695927,186,788787,790302,785808,702435,785807,visual_patterns,0,0,0,yes,1366
undefined,undefined,undefined,undefined,white,no,Mozilla,Netscape,"5.0 (Macintosh; Intel Mac OS X 10_12_6) AppleWebKit/605.1.15 (KHTML, like Gecko) Version/12.1.2 Safari/605.1.15",xpyriment,legacy,legacy,0,uniform,0,0,0,0,24,24,24,0,0,74,74,74,74,74,0,74,0,6,6,6,6,6,0,6,14-02-22,14-02-22,20:02:50,Mon Mar 14 2022 20:02:50 GMT+0100 (CET),The main experiment item,yes,0,0,C:/Users/rrics/Documents/!!ResearchBMECOGSCI/gnet,0,0,0,prototype5.png,no,mono,no,18,no,black,no,no,768,1199,3.5.6,legacy,xpyriment,osweb,1.3.13,0,space,space,space,space,50698,51066,42931,50698,2,legacy,853,1440,24,900,24,0,0,1440,1647284569494,1024,2,48000,-16,experiment,p3sarrcol2.png,1,odd,MacIntel,186,165245,162234,185,186,700910,702413,695927,166782,695927,186,793319,794836,790342,702435,790341,visual_patterns,0,0,0,yes,1366
undefined,undefined,undefined,undefined,white,no,Mozilla,Netscape,"5.0 (Macintosh; Intel Mac OS X 10_12_6) AppleWebKit/605.1.15 (KHTML, like Gecko) Version/12.1.2 Safari/605.1.15",xpyriment,legacy,legacy,0,uniform,0,0,0,0,24,24,24,0,0,74,74,74,74,74,0,74,0,7,7,7,7,7,0,7,14-02-22,14-02-22,20:02:50,Mon Mar 14 2022 20:02:50 GMT+0100 (CET),The main experiment item,yes,0,0,C:/Users/rrics/Documents/!!ResearchBMECOGSCI/gnet,0,0,0,prototype5.png,no,mono,no,18,no,black,no,no,768,1199,3.5.6,legacy,xpyriment,osweb,1.3.13,0,space,space,space,space,50698,51066,42931,50698,2,legacy,853,1440,24,900,24,0,0,1440,1647284569494,1024,2,48000,-16,experiment,p3sarrcol3.png,1,odd,MacIntel,186,165245,162234,185,186,700910,702413,695927,166782,695927,186,797853,799370,794873,702435,794873,visual_patterns,0,0,0,yes,1366
undefined,undefined,undefined,undefined,white,no,Mozilla,Netscape,"5.0 (Macintosh; Intel Mac OS X 10_12_6) AppleWebKit/605.1.15 (KHTML, like Gecko) Version/12.1.2 Safari/605.1.15",xpyriment,legacy,legacy,0,uniform,0,0,0,0,24,24,24,0,0,74,74,74,74,74,0,74,0,8,8,8,8,8,0,8,14-02-22,14-02-22,20:02:50,Mon Mar 14 2022 20:02:50 GMT+0100 (CET),The main experiment item,yes,0,0,C:/Users/rrics/Documents/!!ResearchBMECOGSCI/gnet,0,0,0,prototype5.png,no,mono,no,18,no,black,no,no,768,1199,3.5.6,legacy,xpyriment,osweb,1.3.13,0,space,space,space,space,50698,51066,42931,50698,2,legacy,853,1440,24,900,24,0,0,1440,1647284569494,1024,2,48000,-16,experiment,p1sarrsha1.png,1,odd,MacIntel,186,165245,162234,185,186,700910,702413,695927,166782,695927,186,802387,803904,799409,702435,799409,visual_patterns,0,0,0,yes,1366
undefined,undefined,undefined,undefined,white,no,Mozilla,Netscape,"5.0 (Macintosh; Intel Mac OS X 10_12_6) AppleWebKit/605.1.15 (KHTML, like Gecko) Version/12.1.2 Safari/605.1.15",xpyriment,legacy,legacy,0,uniform,0,0,0,0,24,24,24,0,0,74,74,74,74,74,0,74,0,9,9,9,9,9,0,9,14-02-22,14-02-22,20:02:50,Mon Mar 14 2022 20:02:50 GMT+0100 (CET),The main experiment item,yes,0,0,C:/Users/rrics/Documents/!!ResearchBMECOGSCI/gnet,0,0,0,prototype5.png,no,mono,no,18,no,black,no,no,768,1199,3.5.6,legacy,xpyriment,osweb,1.3.13,0,space,space,space,space,50698,51066,42931,50698,2,legacy,853,1440,24,900,24,0,0,1440,1647284569494,1024,2,48000,-16,experiment,p4sarr1.png,1,odd,MacIntel,186,165245,162234,185,186,700910,702413,695927,166782,695927,186,806919,808421,803942,702435,803942,visual_patterns,0,0,0,yes,1366
undefined,undefined,undefined,undefined,white,no,Mozilla,Netscape,"5.0 (Macintosh; Intel Mac OS X 10_12_6) AppleWebKit/605.1.15 (KHTML, like Gecko) Version/12.1.2 Safari/605.1.15",xpyriment,legacy,legacy,0,uniform,0,0,0,0,24,24,24,0,0,74,74,74,74,74,0,74,0,10,10,10,10,10,0,10,14-02-22,14-02-22,20:02:50,Mon Mar 14 2022 20:02:50 GMT+0100 (CET),The main experiment item,yes,0,0,C:/Users/rrics/Documents/!!ResearchBMECOGSCI/gnet,0,0,0,prototype5.png,no,mono,no,18,no,black,no,no,768,1199,3.5.6,legacy,xpyriment,osweb,1.3.13,0,space,space,space,space,50698,51066,42931,50698,2,legacy,853,1440,24,900,24,0,0,1440,1647284569494,1024,2,48000,-16,experiment,p9sarr2.png,1,odd,MacIntel,186,165245,162234,185,186,700910,702413,695927,166782,695927,186,811439,812954,808463,702435,808463,visual_patterns,0,0,0,yes,1366
undefined,undefined,undefined,undefined,white,no,Mozilla,Netscape,"5.0 (Macintosh; Intel Mac OS X 10_12_6) AppleWebKit/605.1.15 (KHTML, like Gecko) Version/12.1.2 Safari/605.1.15",xpyriment,legacy,legacy,0,uniform,0,0,0,0,24,24,24,0,0,74,74,74,74,74,0,74,0,11,11,11,11,11,0,11,14-02-22,14-02-22,20:02:50,Mon Mar 14 2022 20:02:50 GMT+0100 (CET),The main experiment item,yes,0,0,C:/Users/rrics/Documents/!!ResearchBMECOGSCI/gnet,0,0,0,prototype5.png,no,mono,no,18,no,black,no,no,768,1199,3.5.6,legacy,xpyriment,osweb,1.3.13,0,space,space,space,space,50698,51066,42931,50698,2,legacy,853,1440,24,900,24,0,0,1440,1647284569494,1024,2,48000,-16,experiment,p1sarr2.png,1,odd,MacIntel,186,165245,162234,185,186,700910,702413,695927,166782,695927,186,815973,817488,812994,702435,812994,visual_patterns,0,0,0,yes,1366
undefined,undefined,undefined,undefined,white,no,Mozilla,Netscape,"5.0 (Macintosh; Intel Mac OS X 10_12_6) AppleWebKit/605.1.15 (KHTML, like Gecko) Version/12.1.2 Safari/605.1.15",xpyriment,legacy,legacy,0,uniform,0,0,0,0,24,24,24,0,0,74,74,74,74,74,0,74,0,12,12,12,12,12,0,12,14-02-22,14-02-22,20:02:50,Mon Mar 14 2022 20:02:50 GMT+0100 (CET),The main experiment item,yes,0,0,C:/Users/rrics/Documents/!!ResearchBMECOGSCI/gnet,0,0,0,prototype5.png,no,mono,no,18,no,black,no,no,768,1199,3.5.6,legacy,xpyriment,osweb,1.3.13,0,space,space,space,space,50698,51066,42931,50698,2,legacy,853,1440,24,900,24,0,0,1440,1647284569494,1024,2,48000,-16,experiment,p3sarrcol4.png,1,odd,MacIntel,186,165245,162234,185,186,700910,702413,695927,166782,695927,186,820504,822021,817524,702435,817524,visual_patterns,0,0,0,yes,1366
undefined,undefined,undefined,undefined,white,no,Mozilla,Netscape,"5.0 (Macintosh; Intel Mac OS X 10_12_6) AppleWebKit/605.1.15 (KHTML, like Gecko) Version/12.1.2 Safari/605.1.15",xpyriment,legacy,legacy,0,uniform,0,0,0,0,24,24,24,0,0,74,74,74,74,74,0,74,0,13,13,13,13,13,0,13,14-02-22,14-02-22,20:02:50,Mon Mar 14 2022 20:02:50 GMT+0100 (CET),The main experiment item,yes,0,0,C:/Users/rrics/Documents/!!ResearchBMECOGSCI/gnet,0,0,0,prototype5.png,no,mono,no,18,no,black,no,no,768,1199,3.5.6,legacy,xpyriment,osweb,1.3.13,0,space,space,space,space,50698,51066,42931,50698,2,legacy,853,1440,24,900,24,0,0,1440,1647284569494,1024,2,48000,-16,experiment,p2sarrshacol2.png,1,odd,MacIntel,186,165245,162234,185,186,700910,702413,695927,166782,695927,186,825038,826554,822057,702435,822057,visual_patterns,0,0,0,yes,1366
undefined,undefined,undefined,undefined,white,no,Mozilla,Netscape,"5.0 (Macintosh; Intel Mac OS X 10_12_6) AppleWebKit/605.1.15 (KHTML, like Gecko) Version/12.1.2 Safari/605.1.15",xpyriment,legacy,legacy,0,uniform,0,0,0,0,24,24,24,0,0,74,74,74,74,74,0,74,0,14,14,14,14,14,0,14,14-02-22,14-02-22,20:02:50,Mon Mar 14 2022 20:02:50 GMT+0100 (CET),The main experiment item,yes,0,0,C:/Users/rrics/Documents/!!ResearchBMECOGSCI/gnet,0,0,0,prototype5.png,no,mono,no,18,no,black,no,no,768,1199,3.5.6,legacy,xpyriment,osweb,1.3.13,0,space,space,space,space,50698,51066,42931,50698,2,legacy,853,1440,24,900,24,0,0,1440,1647284569494,1024,2,48000,-16,experiment,p6sarr1.png,1,odd,MacIntel,186,165245,162234,185,186,700910,702413,695927,166782,695927,186,829574,831089,826593,702435,826593,visual_patterns,0,0,0,yes,1366
undefined,undefined,undefined,undefined,white,no,Mozilla,Netscape,"5.0 (Macintosh; Intel Mac OS X 10_12_6) AppleWebKit/605.1.15 (KHTML, like Gecko) Version/12.1.2 Safari/605.1.15",xpyriment,legacy,legacy,0,uniform,0,0,0,0,24,24,24,0,0,74,74,74,74,74,0,74,0,15,15,15,15,15,0,15,14-02-22,14-02-22,20:02:50,Mon Mar 14 2022 20:02:50 GMT+0100 (CET),The main experiment item,yes,0,0,C:/Users/rrics/Documents/!!ResearchBMECOGSCI/gnet,0,0,0,prototype5.png,no,mono,no,18,no,black,no,no,768,1199,3.5.6,legacy,xpyriment,osweb,1.3.13,0,space,space,space,space,50698,51066,42931,50698,2,legacy,853,1440,24,900,24,0,0,1440,1647284569494,1024,2,48000,-16,experiment,p4sarrshacol3.png,1,odd,MacIntel,186,165245,162234,185,186,700910,702413,695927,166782,695927,186,834105,835623,831125,702435,831124,visual_patterns,0,0,0,yes,1366
undefined,undefined,undefined,undefined,white,no,Mozilla,Netscape,"5.0 (Macintosh; Intel Mac OS X 10_12_6) AppleWebKit/605.1.15 (KHTML, like Gecko) Version/12.1.2 Safari/605.1.15",xpyriment,legacy,legacy,0,uniform,0,0,0,0,24,24,24,0,0,74,74,74,74,74,0,74,0,16,16,16,16,16,0,16,14-02-22,14-02-22,20:02:50,Mon Mar 14 2022 20:02:50 GMT+0100 (CET),The main experiment item,yes,0,0,C:/Users/rrics/Documents/!!ResearchBMECOGSCI/gnet,0,0,0,prototype5.png,no,mono,no,18,no,black,no,no,768,1199,3.5.6,legacy,xpyriment,osweb,1.3.13,0,space,space,space,space,50698,51066,42931,50698,2,legacy,853,1440,24,900,24,0,0,1440,1647284569494,1024,2,48000,-16,experiment,p4sarrshacol4.png,1,odd,MacIntel,186,165245,162234,185,186,700910,702413,695927,166782,695927,186,838640,840156,835660,702435,835660,visual_patterns,0,0,0,yes,1366
undefined,undefined,undefined,undefined,white,no,Mozilla,Netscape,"5.0 (Macintosh; Intel Mac OS X 10_12_6) AppleWebKit/605.1.15 (KHTML, like Gecko) Version/12.1.2 Safari/605.1.15",xpyriment,legacy,legacy,0,uniform,0,0,0,0,24,24,24,0,0,74,74,74,74,74,0,74,0,17,17,17,17,17,0,17,14-02-22,14-02-22,20:02:50,Mon Mar 14 2022 20:02:50 GMT+0100 (CET),The main experiment item,yes,0,0,C:/Users/rrics/Documents/!!ResearchBMECOGSCI/gnet,0,0,0,prototype5.png,no,mono,no,18,no,black,no,no,768,1199,3.5.6,legacy,xpyriment,osweb,1.3.13,0,space,space,space,space,50698,51066,42931,50698,2,legacy,853,1440,24,900,24,0,0,1440,1647284569494,1024,2,48000,-16,experiment,p2sarrcol1.png,1,odd,MacIntel,186,165245,162234,185,186,700910,702413,695927,166782,695927,186,843173,844690,840196,702435,840196,visual_patterns,0,0,0,yes,1366
undefined,undefined,undefined,undefined,white,no,Mozilla,Netscape,"5.0 (Macintosh; Intel Mac OS X 10_12_6) AppleWebKit/605.1.15 (KHTML, like Gecko) Version/12.1.2 Safari/605.1.15",xpyriment,legacy,legacy,0,uniform,0,0,0,0,24,24,24,0,0,74,74,74,74,74,0,74,0,18,18,18,18,18,0,18,14-02-22,14-02-22,20:02:50,Mon Mar 14 2022 20:02:50 GMT+0100 (CET),The main experiment item,yes,0,0,C:/Users/rrics/Documents/!!ResearchBMECOGSCI/gnet,0,0,0,prototype5.png,no,mono,no,18,no,black,no,no,768,1199,3.5.6,legacy,xpyriment,osweb,1.3.13,0,space,space,space,space,50698,51066,42931,50698,2,legacy,853,1440,24,900,24,0,0,1440,1647284569494,1024,2,48000,-16,experiment,p1sarr4.png,1,odd,MacIntel,186,165245,162234,185,186,700910,702413,695927,166782,695927,186,847704,849206,844726,702435,844726,visual_patterns,0,0,0,yes,1366
undefined,undefined,undefined,undefined,white,no,Mozilla,Netscape,"5.0 (Macintosh; Intel Mac OS X 10_12_6) AppleWebKit/605.1.15 (KHTML, like Gecko) Version/12.1.2 Safari/605.1.15",xpyriment,legacy,legacy,0,uniform,0,0,0,0,24,24,24,0,0,74,74,74,74,74,0,74,0,19,19,19,19,19,0,19,14-02-22,14-02-22,20:02:50,Mon Mar 14 2022 20:02:50 GMT+0100 (CET),The main experiment item,yes,0,0,C:/Users/rrics/Documents/!!ResearchBMECOGSCI/gnet,0,0,0,prototype5.png,no,mono,no,18,no,black,no,no,768,1199,3.5.6,legacy,xpyriment,osweb,1.3.13,0,space,space,space,space,50698,51066,42931,50698,2,legacy,853,1440,24,900,24,0,0,1440,1647284569494,1024,2,48000,-16,experiment,p10sarr1.png,1,odd,MacIntel,186,165245,162234,185,186,700910,702413,695927,166782,695927,186,852222,853724,849243,702435,849243,visual_patterns,0,0,0,yes,1366
undefined,undefined,undefined,undefined,white,no,Mozilla,Netscape,"5.0 (Macintosh; Intel Mac OS X 10_12_6) AppleWebKit/605.1.15 (KHTML, like Gecko) Version/12.1.2 Safari/605.1.15",xpyriment,legacy,legacy,0,uniform,0,0,0,0,24,24,24,0,0,74,74,74,74,74,0,74,0,20,20,20,20,20,0,20,14-02-22,14-02-22,20:02:50,Mon Mar 14 2022 20:02:50 GMT+0100 (CET),The main experiment item,yes,0,0,C:/Users/rrics/Documents/!!ResearchBMECOGSCI/gnet,0,0,0,prototype5.png,no,mono,no,18,no,black,no,no,768,1199,3.5.6,legacy,xpyriment,osweb,1.3.13,0,space,space,space,space,50698,51066,42931,50698,2,legacy,853,1440,24,900,24,0,0,1440,1647284569494,1024,2,48000,-16,experiment,p8sarr3.png,1,odd,MacIntel,186,165245,162234,185,186,700910,702413,695927,166782,695927,186,856739,858241,853760,702435,853760,visual_patterns,0,0,0,yes,1366
undefined,undefined,undefined,undefined,white,no,Mozilla,Netscape,"5.0 (Macintosh; Intel Mac OS X 10_12_6) AppleWebKit/605.1.15 (KHTML, like Gecko) Version/12.1.2 Safari/605.1.15",xpyriment,legacy,legacy,0,uniform,0,0,0,0,24,24,24,0,0,74,74,74,74,74,0,74,0,21,21,21,21,21,0,21,14-02-22,14-02-22,20:02:50,Mon Mar 14 2022 20:02:50 GMT+0100 (CET),The main experiment item,yes,0,0,C:/Users/rrics/Documents/!!ResearchBMECOGSCI/gnet,0,0,0,prototype5.png,no,mono,no,18,no,black,no,no,768,1199,3.5.6,legacy,xpyriment,osweb,1.3.13,0,space,space,space,space,50698,51066,42931,50698,2,legacy,853,1440,24,900,24,0,0,1440,1647284569494,1024,2,48000,-16,experiment,p9sarr4.png,1,odd,MacIntel,186,165245,162234,185,186,700910,702413,695927,166782,695927,186,861256,862757,858276,702435,858276,visual_patterns,0,0,0,yes,1366
undefined,undefined,undefined,undefined,white,no,Mozilla,Netscape,"5.0 (Macintosh; Intel Mac OS X 10_12_6) AppleWebKit/605.1.15 (KHTML, like Gecko) Version/12.1.2 Safari/605.1.15",xpyriment,legacy,legacy,0,uniform,0,0,0,0,24,24,24,0,0,74,74,74,74,74,0,74,0,22,22,22,22,22,0,22,14-02-22,14-02-22,20:02:50,Mon Mar 14 2022 20:02:50 GMT+0100 (CET),The main experiment item,yes,0,0,C:/Users/rrics/Documents/!!ResearchBMECOGSCI/gnet,0,0,0,prototype5.png,no,mono,no,18,no,black,no,no,768,1199,3.5.6,legacy,xpyriment,osweb,1.3.13,0,space,space,space,space,50698,51066,42931,50698,2,legacy,853,1440,24,900,24,0,0,1440,1647284569494,1024,2,48000,-16,experiment,p5sarrcol2.png,1,odd,MacIntel,186,165245,162234,185,186,700910,702413,695927,166782,695927,186,865774,867275,862797,702435,862797,visual_patterns,0,0,0,yes,1366
undefined,undefined,undefined,undefined,white,no,Mozilla,Netscape,"5.0 (Macintosh; Intel Mac OS X 10_12_6) AppleWebKit/605.1.15 (KHTML, like Gecko) Version/12.1.2 Safari/605.1.15",xpyriment,legacy,legacy,0,uniform,0,0,0,0,24,24,24,0,0,74,74,74,74,74,0,74,0,23,23,23,23,23,0,23,14-02-22,14-02-22,20:02:50,Mon Mar 14 2022 20:02:50 GMT+0100 (CET),The main experiment item,yes,0,0,C:/Users/rrics/Documents/!!ResearchBMECOGSCI/gnet,0,0,0,prototype5.png,no,mono,no,18,no,black,no,no,768,1199,3.5.6,legacy,xpyriment,osweb,1.3.13,0,space,space,space,space,50698,51066,42931,50698,2,legacy,853,1440,24,900,24,0,0,1440,1647284569494,1024,2,48000,-16,experiment,p7sarr4.png,1,odd,MacIntel,186,165245,162234,185,186,700910,702413,695927,166782,695927,186,870293,871808,867310,702435,867310,visual_patterns,0,0,0,yes,1366
undefined,undefined,undefined,undefined,white,no,Mozilla,Netscape,"5.0 (Macintosh; Intel Mac OS X 10_12_6) AppleWebKit/605.1.15 (KHTML, like Gecko) Version/12.1.2 Safari/605.1.15",xpyriment,legacy,legacy,0,uniform,0,0,0,0,24,24,24,0,0,74,74,74,74,74,0,74,0,24,24,24,24,24,0,24,14-02-22,14-02-22,20:02:50,Mon Mar 14 2022 20:02:50 GMT+0100 (CET),The main experiment item,yes,0,0,C:/Users/rrics/Documents/!!ResearchBMECOGSCI/gnet,0,0,0,prototype5.png,no,mono,no,18,no,black,no,no,768,1199,3.5.6,legacy,xpyriment,osweb,1.3.13,0,space,space,space,space,50698,51066,42931,50698,2,legacy,853,1440,24,900,24,0,0,1440,1647284569494,1024,2,48000,-16,experiment,p3sarrsha3.png,1,odd,MacIntel,186,165245,162234,185,186,700910,702413,695927,166782,695927,186,874825,876342,871844,702435,871844,visual_patterns,0,0,0,yes,1366
undefined,undefined,undefined,undefined,white,no,Mozilla,Netscape,"5.0 (Macintosh; Intel Mac OS X 10_12_6) AppleWebKit/605.1.15 (KHTML, like Gecko) Version/12.1.2 Safari/605.1.15",xpyriment,legacy,legacy,0,uniform,0,0,0,0,24,24,24,0,0,74,74,74,74,74,0,74,0,25,25,25,25,25,0,25,14-02-22,14-02-22,20:02:50,Mon Mar 14 2022 20:02:50 GMT+0100 (CET),The main experiment item,yes,0,0,C:/Users/rrics/Documents/!!ResearchBMECOGSCI/gnet,0,0,0,prototype5.png,no,mono,no,18,no,black,no,no,768,1199,3.5.6,legacy,xpyriment,osweb,1.3.13,0,space,space,space,space,50698,51066,42931,50698,2,legacy,853,1440,24,900,24,0,0,1440,1647284569494,1024,2,48000,-16,experiment,p8sarr4.png,1,odd,MacIntel,186,165245,162234,185,186,700910,702413,695927,166782,695927,186,879360,880876,876382,702435,876382,visual_patterns,0,0,0,yes,1366
undefined,undefined,undefined,undefined,white,no,Mozilla,Netscape,"5.0 (Macintosh; Intel Mac OS X 10_12_6) AppleWebKit/605.1.15 (KHTML, like Gecko) Version/12.1.2 Safari/605.1.15",xpyriment,legacy,legacy,0,uniform,0,0,0,0,24,24,24,0,0,74,74,74,74,74,0,74,0,26,26,26,26,26,0,26,14-02-22,14-02-22,20:02:50,Mon Mar 14 2022 20:02:50 GMT+0100 (CET),The main experiment item,yes,0,0,C:/Users/rrics/Documents/!!ResearchBMECOGSCI/gnet,0,0,0,prototype5.png,no,mono,no,18,no,black,no,no,768,1199,3.5.6,legacy,xpyriment,osweb,1.3.13,0,space,space,space,space,50698,51066,42931,50698,2,legacy,853,1440,24,900,24,0,0,1440,1647284569494,1024,2,48000,-16,experiment,p2sarrshacol4.png,1,odd,MacIntel,186,165245,162234,185,186,700910,702413,695927,166782,695927,186,883893,885409,880916,702435,880916,visual_patterns,0,0,0,yes,1366
undefined,undefined,undefined,undefined,white,no,Mozilla,Netscape,"5.0 (Macintosh; Intel Mac OS X 10_12_6) AppleWebKit/605.1.15 (KHTML, like Gecko) Version/12.1.2 Safari/605.1.15",xpyriment,legacy,legacy,0,uniform,0,0,0,0,24,24,24,0,0,74,74,74,74,74,0,74,0,27,27,27,27,27,0,27,14-02-22,14-02-22,20:02:50,Mon Mar 14 2022 20:02:50 GMT+0100 (CET),The main experiment item,yes,0,0,C:/Users/rrics/Documents/!!ResearchBMECOGSCI/gnet,0,0,0,prototype5.png,no,mono,no,18,no,black,no,no,768,1199,3.5.6,legacy,xpyriment,osweb,1.3.13,0,space,space,space,space,50698,51066,42931,50698,2,legacy,853,1440,24,900,24,0,0,1440,1647284569494,1024,2,48000,-16,experiment,p4sarrshacol1.png,1,odd,MacIntel,186,165245,162234,185,186,700910,702413,695927,166782,695927,186,888425,889926,885446,702435,885446,visual_patterns,0,0,0,yes,1366
undefined,undefined,undefined,undefined,white,no,Mozilla,Netscape,"5.0 (Macintosh; Intel Mac OS X 10_12_6) AppleWebKit/605.1.15 (KHTML, like Gecko) Version/12.1.2 Safari/605.1.15",xpyriment,legacy,legacy,0,uniform,0,0,0,0,24,24,24,0,0,74,74,74,74,74,0,74,0,28,28,28,28,28,0,28,14-02-22,14-02-22,20:02:50,Mon Mar 14 2022 20:02:50 GMT+0100 (CET),The main experiment item,yes,0,0,C:/Users/rrics/Documents/!!ResearchBMECOGSCI/gnet,0,0,0,prototype5.png,no,mono,no,18,no,black,no,no,768,1199,3.5.6,legacy,xpyriment,osweb,1.3.13,0,space,space,space,space,50698,51066,42931,50698,2,legacy,853,1440,24,900,24,0,0,1440,1647284569494,1024,2,48000,-16,experiment,p1sarrshacol3.png,1,odd,MacIntel,186,165245,162234,185,186,700910,702413,695927,166782,695927,186,892948,894460,889966,702435,889965,visual_patterns,0,0,0,yes,1366
undefined,undefined,undefined,undefined,white,no,Mozilla,Netscape,"5.0 (Macintosh; Intel Mac OS X 10_12_6) AppleWebKit/605.1.15 (KHTML, like Gecko) Version/12.1.2 Safari/605.1.15",xpyriment,legacy,legacy,0,uniform,0,0,0,0,24,24,24,0,0,74,74,74,74,74,0,74,0,29,29,29,29,29,0,29,14-02-22,14-02-22,20:02:50,Mon Mar 14 2022 20:02:50 GMT+0100 (CET),The main experiment item,yes,0,0,C:/Users/rrics/Documents/!!ResearchBMECOGSCI/gnet,0,0,0,prototype5.png,no,mono,no,18,no,black,no,no,768,1199,3.5.6,legacy,xpyriment,osweb,1.3.13,0,space,space,space,space,50698,51066,42931,50698,2,legacy,853,1440,24,900,24,0,0,1440,1647284569494,1024,2,48000,-16,experiment,p2sarrsha1.png,1,odd,MacIntel,186,165245,162234,185,186,700910,702413,695927,166782,695927,186,897478,898994,894494,702435,894494,visual_patterns,0,0,0,yes,1366
undefined,undefined,undefined,undefined,white,no,Mozilla,Netscape,"5.0 (Macintosh; Intel Mac OS X 10_12_6) AppleWebKit/605.1.15 (KHTML, like Gecko) Version/12.1.2 Safari/605.1.15",xpyriment,legacy,legacy,0,uniform,0,0,0,0,24,24,24,0,0,74,74,74,74,74,0,74,0,30,30,30,30,30,0,30,14-02-22,14-02-22,20:02:50,Mon Mar 14 2022 20:02:50 GMT+0100 (CET),The main experiment item,yes,0,0,C:/Users/rrics/Documents/!!ResearchBMECOGSCI/gnet,0,0,0,prototype5.png,no,mono,no,18,no,black,no,no,768,1199,3.5.6,legacy,xpyriment,osweb,1.3.13,0,space,space,space,space,50698,51066,42931,50698,2,legacy,853,1440,24,900,24,0,0,1440,1647284569494,1024,2,48000,-16,experiment,p3sarr2.png,1,odd,MacIntel,186,165245,162234,185,186,700910,702413,695927,166782,695927,186,902011,903527,899029,702435,899029,visual_patterns,0,0,0,yes,1366
undefined,undefined,undefined,undefined,white,no,Mozilla,Netscape,"5.0 (Macintosh; Intel Mac OS X 10_12_6) AppleWebKit/605.1.15 (KHTML, like Gecko) Version/12.1.2 Safari/605.1.15",xpyriment,legacy,legacy,0,uniform,0,0,0,0,24,24,24,0,0,74,74,74,74,74,0,74,0,31,31,31,31,31,0,31,14-02-22,14-02-22,20:02:50,Mon Mar 14 2022 20:02:50 GMT+0100 (CET),The main experiment item,yes,0,0,C:/Users/rrics/Documents/!!ResearchBMECOGSCI/gnet,0,0,0,prototype5.png,no,mono,no,18,no,black,no,no,768,1199,3.5.6,legacy,xpyriment,osweb,1.3.13,0,space,space,space,space,50698,51066,42931,50698,2,legacy,853,1440,24,900,24,0,0,1440,1647284569494,1024,2,48000,-16,experiment,p3sarrshacol3.png,1,odd,MacIntel,186,165245,162234,185,186,700910,702413,695927,166782,695927,186,906550,908062,903570,702435,903570,visual_patterns,0,0,0,yes,1366
undefined,undefined,undefined,undefined,white,no,Mozilla,Netscape,"5.0 (Macintosh; Intel Mac OS X 10_12_6) AppleWebKit/605.1.15 (KHTML, like Gecko) Version/12.1.2 Safari/605.1.15",xpyriment,legacy,legacy,0,uniform,0,0,0,0,24,24,24,0,0,74,74,74,74,74,0,74,0,32,32,32,32,32,0,32,14-02-22,14-02-22,20:02:50,Mon Mar 14 2022 20:02:50 GMT+0100 (CET),The main experiment item,yes,0,0,C:/Users/rrics/Documents/!!ResearchBMECOGSCI/gnet,0,0,0,prototype5.png,no,mono,no,18,no,black,no,no,768,1199,3.5.6,legacy,xpyriment,osweb,1.3.13,0,space,space,space,space,50698,51066,42931,50698,2,legacy,853,1440,24,900,24,0,0,1440,1647284569494,1024,2,48000,-16,experiment,p2sarrcol4.png,1,odd,MacIntel,186,165245,162234,185,186,700910,702413,695927,166782,695927,186,911080,912595,908100,702435,908100,visual_patterns,0,0,0,yes,1366
undefined,undefined,undefined,undefined,white,no,Mozilla,Netscape,"5.0 (Macintosh; Intel Mac OS X 10_12_6) AppleWebKit/605.1.15 (KHTML, like Gecko) Version/12.1.2 Safari/605.1.15",xpyriment,legacy,legacy,0,uniform,0,0,0,0,24,24,24,0,0,74,74,74,74,74,0,74,0,33,33,33,33,33,0,33,14-02-22,14-02-22,20:02:50,Mon Mar 14 2022 20:02:50 GMT+0100 (CET),The main experiment item,yes,0,0,C:/Users/rrics/Documents/!!ResearchBMECOGSCI/gnet,0,0,0,prototype5.png,no,mono,no,18,no,black,no,no,768,1199,3.5.6,legacy,xpyriment,osweb,1.3.13,0,space,space,space,space,50698,51066,42931,50698,2,legacy,853,1440,24,900,24,0,0,1440,1647284569494,1024,2,48000,-16,experiment,p5sarrcol1.png,1,odd,MacIntel,186,165245,162234,185,186,700910,702413,695927,166782,695927,186,915614,917128,912634,702435,912634,visual_patterns,0,0,0,yes,1366
undefined,undefined,undefined,undefined,white,no,Mozilla,Netscape,"5.0 (Macintosh; Intel Mac OS X 10_12_6) AppleWebKit/605.1.15 (KHTML, like Gecko) Version/12.1.2 Safari/605.1.15",xpyriment,legacy,legacy,0,uniform,0,0,0,0,24,24,24,0,0,74,74,74,74,74,0,74,0,34,34,34,34,34,0,34,14-02-22,14-02-22,20:02:50,Mon Mar 14 2022 20:02:50 GMT+0100 (CET),The main experiment item,yes,0,0,C:/Users/rrics/Documents/!!ResearchBMECOGSCI/gnet,0,0,0,prototype5.png,no,mono,no,18,no,black,no,no,768,1199,3.5.6,legacy,xpyriment,osweb,1.3.13,0,space,space,space,space,50698,51066,42931,50698,2,legacy,853,1440,24,900,24,0,0,1440,1647284569494,1024,2,48000,-16,experiment,p8sarr2.png,1,odd,MacIntel,186,165245,162234,185,186,700910,702413,695927,166782,695927,186,920147,921662,917166,702435,917166,visual_patterns,0,0,0,yes,1366
undefined,undefined,undefined,undefined,white,no,Mozilla,Netscape,"5.0 (Macintosh; Intel Mac OS X 10_12_6) AppleWebKit/605.1.15 (KHTML, like Gecko) Version/12.1.2 Safari/605.1.15",xpyriment,legacy,legacy,0,uniform,0,0,0,0,24,24,24,0,0,74,74,74,74,74,0,74,0,35,35,35,35,35,0,35,14-02-22,14-02-22,20:02:50,Mon Mar 14 2022 20:02:50 GMT+0100 (CET),The main experiment item,yes,0,0,C:/Users/rrics/Documents/!!ResearchBMECOGSCI/gnet,0,0,0,prototype5.png,no,mono,no,18,no,black,no,no,768,1199,3.5.6,legacy,xpyriment,osweb,1.3.13,0,space,space,space,space,50698,51066,42931,50698,2,legacy,853,1440,24,900,24,0,0,1440,1647284569494,1024,2,48000,-16,experiment,p5sarr3.png,1,odd,MacIntel,186,165245,162234,185,186,700910,702413,695927,166782,695927,186,924684,926195,921702,702435,921702,visual_patterns,0,0,0,yes,1366
undefined,undefined,undefined,undefined,white,no,Mozilla,Netscape,"5.0 (Macintosh; Intel Mac OS X 10_12_6) AppleWebKit/605.1.15 (KHTML, like Gecko) Version/12.1.2 Safari/605.1.15",xpyriment,legacy,legacy,0,uniform,0,0,0,0,24,24,24,0,0,74,74,74,74,74,0,74,0,36,36,36,36,36,0,36,14-02-22,14-02-22,20:02:50,Mon Mar 14 2022 20:02:50 GMT+0100 (CET),The main experiment item,yes,0,0,C:/Users/rrics/Documents/!!ResearchBMECOGSCI/gnet,0,0,0,prototype5.png,no,mono,no,18,no,black,no,no,768,1199,3.5.6,legacy,xpyriment,osweb,1.3.13,0,space,space,space,space,50698,51066,42931,50698,2,legacy,853,1440,24,900,24,0,0,1440,1647284569494,1024,2,48000,-16,experiment,p7sarr1.png,1,odd,MacIntel,186,165245,162234,185,186,700910,702413,695927,166782,695927,186,929216,930729,926233,702435,926233,visual_patterns,0,0,0,yes,1366
undefined,undefined,undefined,undefined,white,no,Mozilla,Netscape,"5.0 (Macintosh; Intel Mac OS X 10_12_6) AppleWebKit/605.1.15 (KHTML, like Gecko) Version/12.1.2 Safari/605.1.15",xpyriment,legacy,legacy,0,uniform,0,0,0,0,24,24,24,0,0,74,74,74,74,74,0,74,0,37,37,37,37,37,0,37,14-02-22,14-02-22,20:02:50,Mon Mar 14 2022 20:02:50 GMT+0100 (CET),The main experiment item,yes,0,0,C:/Users/rrics/Documents/!!ResearchBMECOGSCI/gnet,0,0,0,prototype5.png,no,mono,no,18,no,black,no,no,768,1199,3.5.6,legacy,xpyriment,osweb,1.3.13,0,space,space,space,space,50698,51066,42931,50698,2,legacy,853,1440,24,900,24,0,0,1440,1647284569494,1024,2,48000,-16,experiment,p1sarrcol4.png,1,odd,MacIntel,186,165245,162234,185,186,700910,702413,695927,166782,695927,186,933750,935263,930771,702435,930771,visual_patterns,0,0,0,yes,1366
undefined,undefined,undefined,undefined,white,no,Mozilla,Netscape,"5.0 (Macintosh; Intel Mac OS X 10_12_6) AppleWebKit/605.1.15 (KHTML, like Gecko) Version/12.1.2 Safari/605.1.15",xpyriment,legacy,legacy,0,uniform,0,0,0,0,24,24,24,0,0,74,74,74,74,74,0,74,0,38,38,38,38,38,0,38,14-02-22,14-02-22,20:02:50,Mon Mar 14 2022 20:02:50 GMT+0100 (CET),The main experiment item,yes,0,0,C:/Users/rrics/Documents/!!ResearchBMECOGSCI/gnet,0,0,0,prototype5.png,no,mono,no,18,no,black,no,no,768,1199,3.5.6,legacy,xpyriment,osweb,1.3.13,0,space,space,space,space,50698,51066,42931,50698,2,legacy,853,1440,24,900,24,0,0,1440,1647284569494,1024,2,48000,-16,experiment,p3sarrsha4.png,1,odd,MacIntel,186,165245,162234,185,186,700910,702413,695927,166782,695927,186,938280,939796,935297,702435,935297,visual_patterns,0,0,0,yes,1366
undefined,undefined,undefined,undefined,white,no,Mozilla,Netscape,"5.0 (Macintosh; Intel Mac OS X 10_12_6) AppleWebKit/605.1.15 (KHTML, like Gecko) Version/12.1.2 Safari/605.1.15",xpyriment,legacy,legacy,0,uniform,0,0,0,0,24,24,24,0,0,74,74,74,74,74,0,74,0,39,39,39,39,39,0,39,14-02-22,14-02-22,20:02:50,Mon Mar 14 2022 20:02:50 GMT+0100 (CET),The main experiment item,yes,0,0,C:/Users/rrics/Documents/!!ResearchBMECOGSCI/gnet,0,0,0,prototype5.png,no,mono,no,18,no,black,no,no,768,1199,3.5.6,legacy,xpyriment,osweb,1.3.13,0,space,space,space,space,50698,51066,42931,50698,2,legacy,853,1440,24,900,24,0,0,1440,1647284569494,1024,2,48000,-16,experiment,p3sarr1.png,1,odd,MacIntel,186,165245,162234,185,186,700910,702413,695927,166782,695927,186,942817,944330,939835,702435,939835,visual_patterns,0,0,0,yes,1366
undefined,undefined,undefined,undefined,white,no,Mozilla,Netscape,"5.0 (Macintosh; Intel Mac OS X 10_12_6) AppleWebKit/605.1.15 (KHTML, like Gecko) Version/12.1.2 Safari/605.1.15",xpyriment,legacy,legacy,0,uniform,0,0,0,0,24,24,24,0,0,74,74,74,74,74,0,74,0,40,40,40,40,40,0,40,14-02-22,14-02-22,20:02:50,Mon Mar 14 2022 20:02:50 GMT+0100 (CET),The main experiment item,yes,0,0,C:/Users/rrics/Documents/!!ResearchBMECOGSCI/gnet,0,0,0,prototype5.png,no,mono,no,18,no,black,no,no,768,1199,3.5.6,legacy,xpyriment,osweb,1.3.13,0,space,space,space,space,50698,51066,42931,50698,2,legacy,853,1440,24,900,24,0,0,1440,1647284569494,1024,2,48000,-16,experiment,p2sarrsha3.png,1,odd,MacIntel,186,165245,162234,185,186,700910,702413,695927,166782,695927,186,947348,948864,944366,702435,944366,visual_patterns,0,0,0,yes,1366
undefined,undefined,undefined,undefined,white,no,Mozilla,Netscape,"5.0 (Macintosh; Intel Mac OS X 10_12_6) AppleWebKit/605.1.15 (KHTML, like Gecko) Version/12.1.2 Safari/605.1.15",xpyriment,legacy,legacy,0,uniform,0,0,0,0,24,24,24,0,0,74,74,74,74,74,0,74,0,41,41,41,41,41,0,41,14-02-22,14-02-22,20:02:50,Mon Mar 14 2022 20:02:50 GMT+0100 (CET),The main experiment item,yes,0,0,C:/Users/rrics/Documents/!!ResearchBMECOGSCI/gnet,0,0,0,prototype5.png,no,mono,no,18,no,black,no,no,768,1199,3.5.6,legacy,xpyriment,osweb,1.3.13,0,space,space,space,space,50698,51066,42931,50698,2,legacy,853,1440,24,900,24,0,0,1440,1647284569494,1024,2,48000,-16,experiment,p9sarr3.png,1,odd,MacIntel,186,165245,162234,185,186,700910,702413,695927,166782,695927,186,951880,953381,948899,702435,948899,visual_patterns,0,0,0,yes,1366
undefined,undefined,undefined,undefined,white,no,Mozilla,Netscape,"5.0 (Macintosh; Intel Mac OS X 10_12_6) AppleWebKit/605.1.15 (KHTML, like Gecko) Version/12.1.2 Safari/605.1.15",xpyriment,legacy,legacy,0,uniform,0,0,0,0,24,24,24,0,0,74,74,74,74,74,0,74,0,42,42,42,42,42,0,42,14-02-22,14-02-22,20:02:50,Mon Mar 14 2022 20:02:50 GMT+0100 (CET),The main experiment item,yes,0,0,C:/Users/rrics/Documents/!!ResearchBMECOGSCI/gnet,0,0,0,prototype5.png,no,mono,no,18,no,black,no,no,768,1199,3.5.6,legacy,xpyriment,osweb,1.3.13,0,space,space,space,space,50698,51066,42931,50698,2,legacy,853,1440,24,900,24,0,0,1440,1647284569494,1024,2,48000,-16,experiment,p10sarr4.png,1,odd,MacIntel,186,165245,162234,185,186,700910,702413,695927,166782,695927,186,956400,957914,953420,702435,953420,visual_patterns,0,0,0,yes,1366
undefined,undefined,undefined,undefined,white,no,Mozilla,Netscape,"5.0 (Macintosh; Intel Mac OS X 10_12_6) AppleWebKit/605.1.15 (KHTML, like Gecko) Version/12.1.2 Safari/605.1.15",xpyriment,legacy,legacy,0,uniform,0,0,0,0,24,24,24,0,0,74,74,74,74,74,0,74,0,43,43,43,43,43,0,43,14-02-22,14-02-22,20:02:50,Mon Mar 14 2022 20:02:50 GMT+0100 (CET),The main experiment item,yes,0,0,C:/Users/rrics/Documents/!!ResearchBMECOGSCI/gnet,0,0,0,prototype5.png,no,mono,no,18,no,black,no,no,768,1199,3.5.6,legacy,xpyriment,osweb,1.3.13,0,space,space,space,space,50698,51066,42931,50698,2,legacy,853,1440,24,900,24,0,0,1440,1647284569494,1024,2,48000,-16,experiment,p4sarrcol1.png,1,odd,MacIntel,186,165245,162234,185,186,700910,702413,695927,166782,695927,186,960932,962448,957953,702435,957953,visual_patterns,0,0,0,yes,1366
undefined,undefined,undefined,undefined,white,no,Mozilla,Netscape,"5.0 (Macintosh; Intel Mac OS X 10_12_6) AppleWebKit/605.1.15 (KHTML, like Gecko) Version/12.1.2 Safari/605.1.15",xpyriment,legacy,legacy,0,uniform,0,0,0,0,24,24,24,0,0,74,74,74,74,74,0,74,0,44,44,44,44,44,0,44,14-02-22,14-02-22,20:02:50,Mon Mar 14 2022 20:02:50 GMT+0100 (CET),The main experiment item,yes,0,0,C:/Users/rrics/Documents/!!ResearchBMECOGSCI/gnet,0,0,0,prototype5.png,no,mono,no,18,no,black,no,no,768,1199,3.5.6,legacy,xpyriment,osweb,1.3.13,0,space,space,space,space,50698,51066,42931,50698,2,legacy,853,1440,24,900,24,0,0,1440,1647284569494,1024,2,48000,-16,experiment,p5sarrshacol4.png,1,odd,MacIntel,186,165245,162234,185,186,700910,702413,695927,166782,695927,186,965466,966982,962486,702435,962486,visual_patterns,0,0,0,yes,1366
undefined,undefined,undefined,undefined,white,no,Mozilla,Netscape,"5.0 (Macintosh; Intel Mac OS X 10_12_6) AppleWebKit/605.1.15 (KHTML, like Gecko) Version/12.1.2 Safari/605.1.15",xpyriment,legacy,legacy,0,uniform,0,0,0,0,24,24,24,0,0,74,74,74,74,74,0,74,0,45,45,45,45,45,0,45,14-02-22,14-02-22,20:02:50,Mon Mar 14 2022 20:02:50 GMT+0100 (CET),The main experiment item,yes,0,0,C:/Users/rrics/Documents/!!ResearchBMECOGSCI/gnet,0,0,0,prototype5.png,no,mono,no,18,no,black,no,no,768,1199,3.5.6,legacy,xpyriment,osweb,1.3.13,0,space,space,space,space,50698,51066,42931,50698,2,legacy,853,1440,24,900,24,0,0,1440,1647284569494,1024,2,48000,-16,experiment,p3sarr3.png,1,odd,MacIntel,186,165245,162234,185,186,700910,702413,695927,166782,695927,186,970003,971515,967022,702435,967022,visual_patterns,0,0,0,yes,1366
undefined,undefined,undefined,undefined,white,no,Mozilla,Netscape,"5.0 (Macintosh; Intel Mac OS X 10_12_6) AppleWebKit/605.1.15 (KHTML, like Gecko) Version/12.1.2 Safari/605.1.15",xpyriment,legacy,legacy,0,uniform,0,0,0,0,24,24,24,0,0,74,74,74,74,74,0,74,0,46,46,46,46,46,0,46,14-02-22,14-02-22,20:02:50,Mon Mar 14 2022 20:02:50 GMT+0100 (CET),The main experiment item,yes,0,0,C:/Users/rrics/Documents/!!ResearchBMECOGSCI/gnet,0,0,0,prototype5.png,no,mono,no,18,no,black,no,no,768,1199,3.5.6,legacy,xpyriment,osweb,1.3.13,0,space,space,space,space,50698,51066,42931,50698,2,legacy,853,1440,24,900,24,0,0,1440,1647284569494,1024,2,48000,-16,experiment,p2sarr3.png,1,odd,MacIntel,186,165245,162234,185,186,700910,702413,695927,166782,695927,186,974534,976049,971552,702435,971552,visual_patterns,0,0,0,yes,1366
undefined,undefined,undefined,undefined,white,no,Mozilla,Netscape,"5.0 (Macintosh; Intel Mac OS X 10_12_6) AppleWebKit/605.1.15 (KHTML, like Gecko) Version/12.1.2 Safari/605.1.15",xpyriment,legacy,legacy,0,uniform,0,0,0,0,24,24,24,0,0,74,74,74,74,74,0,74,0,47,47,47,47,47,0,47,14-02-22,14-02-22,20:02:50,Mon Mar 14 2022 20:02:50 GMT+0100 (CET),The main experiment item,yes,0,0,C:/Users/rrics/Documents/!!ResearchBMECOGSCI/gnet,0,0,0,prototype5.png,no,mono,no,18,no,black,no,no,768,1199,3.5.6,legacy,xpyriment,osweb,1.3.13,0,space,space,space,space,50698,51066,42931,50698,2,legacy,853,1440,24,900,24,0,0,1440,1647284569494,1024,2,48000,-16,experiment,p4sarr2.png,1,odd,MacIntel,186,165245,162234,185,186,700910,702413,695927,166782,695927,186,979072,980583,976090,702435,976090,visual_patterns,0,0,0,yes,1366
undefined,undefined,undefined,undefined,white,no,Mozilla,Netscape,"5.0 (Macintosh; Intel Mac OS X 10_12_6) AppleWebKit/605.1.15 (KHTML, like Gecko) Version/12.1.2 Safari/605.1.15",xpyriment,legacy,legacy,0,uniform,0,0,0,0,24,24,24,0,0,74,74,74,74,74,0,74,0,48,48,48,48,48,0,48,14-02-22,14-02-22,20:02:50,Mon Mar 14 2022 20:02:50 GMT+0100 (CET),The main experiment item,yes,0,0,C:/Users/rrics/Documents/!!ResearchBMECOGSCI/gnet,0,0,0,prototype5.png,no,mono,no,18,no,black,no,no,768,1199,3.5.6,legacy,xpyriment,osweb,1.3.13,0,space,space,space,space,50698,51066,42931,50698,2,legacy,853,1440,24,900,24,0,0,1440,1647284569494,1024,2,48000,-16,experiment,p2sarrshacol3.png,1,odd,MacIntel,186,165245,162234,185,186,700910,702413,695927,166782,695927,186,983601,985116,980624,702435,980624,visual_patterns,0,0,0,yes,1366
undefined,undefined,undefined,undefined,white,no,Mozilla,Netscape,"5.0 (Macintosh; Intel Mac OS X 10_12_6) AppleWebKit/605.1.15 (KHTML, like Gecko) Version/12.1.2 Safari/605.1.15",xpyriment,legacy,legacy,0,uniform,0,0,0,0,24,24,24,0,0,74,74,74,74,74,0,74,0,49,49,49,49,49,0,49,14-02-22,14-02-22,20:02:50,Mon Mar 14 2022 20:02:50 GMT+0100 (CET),The main experiment item,yes,0,0,C:/Users/rrics/Documents/!!ResearchBMECOGSCI/gnet,0,0,0,prototype5.png,no,mono,no,18,no,black,no,no,768,1199,3.5.6,legacy,xpyriment,osweb,1.3.13,0,space,space,space,space,50698,51066,42931,50698,2,legacy,853,1440,24,900,24,0,0,1440,1647284569494,1024,2,48000,-16,experiment,p2sarrcol2.png,1,odd,MacIntel,186,165245,162234,185,186,700910,702413,695927,166782,695927,186,988135,989650,985163,702435,985163,visual_patterns,0,0,0,yes,1366
