acc,accuracy,average_response_time,avg_rt,background,bidi,browser_codename,browser_name,browser_version,canvas_backend,clock_backend,color_backend,compensation,coordinates,count_end,count_experiment,count_osweb,count_prestudy,count_prestudy_isi,count_prestudy_sequence,count_prestudy_stimpres,count_start,count_study,count_study_coroutines,count_study_isi,count_study_logger,count_study_response,count_study_sequence,count_study_start,count_study_stimpres,count_test,count_test_coroutines,count_test_isi,count_test_logger,count_test_response,count_test_sequence,count_test_start,count_test_stimpres,date_startdate,date_startdateUTC,date_starttime,datetime,description,disable_garbage_collection,experiment_debug,experiment_parameters,experiment_path,experiment_pilot,experiment_taskname,experiment_taskversion,fampict,font_bold,font_family,font_italic,font_size,font_underline,foreground,form_clicks,fullscreen,height,jatosStudyResultId,jatosVersion,keyboard_backend,mouse_backend,opensesame_codename,opensesame_version,repeat_cycle,response,response_start,response_study_start,response_test_start,response_time,response_time_start,response_time_study_start,response_time_test_start,round_decimals,sampler_backend,screen_availableHeight,screen_availableWidth,screen_colorDepth,screen_height,screen_pixelDepth,screen_screenX,screen_screenY,screen_width,sessionid,sound_buf_size,sound_channels,sound_freq,sound_sample_size,start,stim,subject_nr,subject_parity,system_os,time_prestudy,time_prestudy_isi,time_prestudy_stimpres,time_start,time_study,time_study_isi,time_study_logger,time_study_response,time_study_start,time_study_stimpres,time_test,time_test_isi,time_test_logger,time_test_response,time_test_start,time_test_stimpres,title,total_correct,total_response_time,total_responses,uniform_coordinates,width
undefined,undefined,undefined,undefined,white,no,Mozilla,Netscape,"5.0 (Windows NT 10.0; Win64; x64) AppleWebKit/537.36 (KHTML, like Gecko) Chrome/99.0.4844.51 Safari/537.36",xpyriment,legacy,legacy,0,uniform,0,0,0,0,24,24,24,0,0,0,0,0,0,0,0,0,0,,,,,,0,,16-02-22,16-02-22,10:42:34,Wed Mar 16 2022 10:42:34 GMT+0100 (közép-európai téli idő),The main experiment item,yes,0,0,C:/Users/rrics/Documents/!!ResearchBMECOGSCI/gnet,0,0,0,prototype2.png,no,mono,no,18,no,black,no,no,768,1200,3.5.6,legacy,xpyriment,osweb,1.3.13,0,space,space,space,,28823,12201,28823,,2,legacy,860,1600,24,900,24,0,0,1600,1647423772614,1024,2,48000,-16,experiment,p6sarr1.png,0,even,Win32,252,124155,121140,252,252,159536,161045,154541,125673,154541,252,,,,,,visual_patterns,0,0,0,yes,1366
undefined,undefined,undefined,undefined,white,no,Mozilla,Netscape,"5.0 (Windows NT 10.0; Win64; x64) AppleWebKit/537.36 (KHTML, like Gecko) Chrome/99.0.4844.51 Safari/537.36",xpyriment,legacy,legacy,0,uniform,0,0,0,0,24,24,24,0,0,1,1,1,1,1,0,1,0,,,,,,0,,16-02-22,16-02-22,10:42:34,Wed Mar 16 2022 10:42:34 GMT+0100 (közép-európai téli idő),The main experiment item,yes,0,0,C:/Users/rrics/Documents/!!ResearchBMECOGSCI/gnet,0,0,0,prototype2.png,no,mono,no,18,no,black,no,no,768,1200,3.5.6,legacy,xpyriment,osweb,1.3.13,0,space,space,space,,28823,12201,28823,,2,legacy,860,1600,24,900,24,0,0,1600,1647423772614,1024,2,48000,-16,experiment,prototype3.png,0,even,Win32,252,124155,121140,252,252,166065,167575,161064,125673,161064,252,,,,,,visual_patterns,0,0,0,yes,1366
undefined,undefined,undefined,undefined,white,no,Mozilla,Netscape,"5.0 (Windows NT 10.0; Win64; x64) AppleWebKit/537.36 (KHTML, like Gecko) Chrome/99.0.4844.51 Safari/537.36",xpyriment,legacy,legacy,0,uniform,0,0,0,0,24,24,24,0,0,2,2,2,2,2,0,2,0,,,,,,0,,16-02-22,16-02-22,10:42:34,Wed Mar 16 2022 10:42:34 GMT+0100 (közép-európai téli idő),The main experiment item,yes,0,0,C:/Users/rrics/Documents/!!ResearchBMECOGSCI/gnet,0,0,0,prototype2.png,no,mono,no,18,no,black,no,no,768,1200,3.5.6,legacy,xpyriment,osweb,1.3.13,0,space,space,space,,28823,12201,28823,,2,legacy,860,1600,24,900,24,0,0,1600,1647423772614,1024,2,48000,-16,experiment,p3sarr1.png,0,even,Win32,252,124155,121140,252,252,172595,174110,167596,125673,167596,252,,,,,,visual_patterns,0,0,0,yes,1366
undefined,undefined,undefined,undefined,white,no,Mozilla,Netscape,"5.0 (Windows NT 10.0; Win64; x64) AppleWebKit/537.36 (KHTML, like Gecko) Chrome/99.0.4844.51 Safari/537.36",xpyriment,legacy,legacy,0,uniform,0,0,0,0,24,24,24,0,0,3,3,3,3,3,0,3,0,,,,,,0,,16-02-22,16-02-22,10:42:34,Wed Mar 16 2022 10:42:34 GMT+0100 (közép-európai téli idő),The main experiment item,yes,0,0,C:/Users/rrics/Documents/!!ResearchBMECOGSCI/gnet,0,0,0,prototype2.png,no,mono,no,18,no,black,no,no,768,1200,3.5.6,legacy,xpyriment,osweb,1.3.13,0,space,space,space,,28823,12201,28823,,2,legacy,860,1600,24,900,24,0,0,1600,1647423772614,1024,2,48000,-16,experiment,p9sarr2.png,0,even,Win32,252,124155,121140,252,252,179127,180628,174131,125673,174131,252,,,,,,visual_patterns,0,0,0,yes,1366
undefined,undefined,undefined,undefined,white,no,Mozilla,Netscape,"5.0 (Windows NT 10.0; Win64; x64) AppleWebKit/537.36 (KHTML, like Gecko) Chrome/99.0.4844.51 Safari/537.36",xpyriment,legacy,legacy,0,uniform,0,0,0,0,24,24,24,0,0,4,4,4,4,4,0,4,0,,,,,,0,,16-02-22,16-02-22,10:42:34,Wed Mar 16 2022 10:42:34 GMT+0100 (közép-európai téli idő),The main experiment item,yes,0,0,C:/Users/rrics/Documents/!!ResearchBMECOGSCI/gnet,0,0,0,prototype2.png,no,mono,no,18,no,black,no,no,768,1200,3.5.6,legacy,xpyriment,osweb,1.3.13,0,space,space,space,,28823,12201,28823,,2,legacy,860,1600,24,900,24,0,0,1600,1647423772614,1024,2,48000,-16,experiment,p4sarr2.png,0,even,Win32,252,124155,121140,252,252,185643,187147,180647,125673,180647,252,,,,,,visual_patterns,0,0,0,yes,1366
undefined,undefined,undefined,undefined,white,no,Mozilla,Netscape,"5.0 (Windows NT 10.0; Win64; x64) AppleWebKit/537.36 (KHTML, like Gecko) Chrome/99.0.4844.51 Safari/537.36",xpyriment,legacy,legacy,0,uniform,0,0,0,0,24,24,24,0,0,5,5,5,5,5,0,5,0,,,,,,0,,16-02-22,16-02-22,10:42:34,Wed Mar 16 2022 10:42:34 GMT+0100 (közép-európai téli idő),The main experiment item,yes,0,0,C:/Users/rrics/Documents/!!ResearchBMECOGSCI/gnet,0,0,0,prototype2.png,no,mono,no,18,no,black,no,no,768,1200,3.5.6,legacy,xpyriment,osweb,1.3.13,0,space,space,space,,28823,12201,28823,,2,legacy,860,1600,24,900,24,0,0,1600,1647423772614,1024,2,48000,-16,experiment,p4sarrshacol2.png,0,even,Win32,252,124155,121140,252,252,192166,193679,187167,125673,187167,252,,,,,,visual_patterns,0,0,0,yes,1366
undefined,undefined,undefined,undefined,white,no,Mozilla,Netscape,"5.0 (Windows NT 10.0; Win64; x64) AppleWebKit/537.36 (KHTML, like Gecko) Chrome/99.0.4844.51 Safari/537.36",xpyriment,legacy,legacy,0,uniform,0,0,0,0,24,24,24,0,0,6,6,6,6,6,0,6,0,,,,,,0,,16-02-22,16-02-22,10:42:34,Wed Mar 16 2022 10:42:34 GMT+0100 (közép-európai téli idő),The main experiment item,yes,0,0,C:/Users/rrics/Documents/!!ResearchBMECOGSCI/gnet,0,0,0,prototype2.png,no,mono,no,18,no,black,no,no,768,1200,3.5.6,legacy,xpyriment,osweb,1.3.13,0,space,space,space,,28823,12201,28823,,2,legacy,860,1600,24,900,24,0,0,1600,1647423772614,1024,2,48000,-16,experiment,p5sarrsha2.png,0,even,Win32,252,124155,121140,252,252,198695,200198,193699,125673,193698,252,,,,,,visual_patterns,0,0,0,yes,1366
undefined,undefined,undefined,undefined,white,no,Mozilla,Netscape,"5.0 (Windows NT 10.0; Win64; x64) AppleWebKit/537.36 (KHTML, like Gecko) Chrome/99.0.4844.51 Safari/537.36",xpyriment,legacy,legacy,0,uniform,0,0,0,0,24,24,24,0,0,7,7,7,7,7,0,7,0,,,,,,0,,16-02-22,16-02-22,10:42:34,Wed Mar 16 2022 10:42:34 GMT+0100 (közép-európai téli idő),The main experiment item,yes,0,0,C:/Users/rrics/Documents/!!ResearchBMECOGSCI/gnet,0,0,0,prototype2.png,no,mono,no,18,no,black,no,no,768,1200,3.5.6,legacy,xpyriment,osweb,1.3.13,0,space,space,space,,28823,12201,28823,,2,legacy,860,1600,24,900,24,0,0,1600,1647423772614,1024,2,48000,-16,experiment,p2sarr1.png,0,even,Win32,252,124155,121140,252,252,205219,206732,200218,125673,200218,252,,,,,,visual_patterns,0,0,0,yes,1366
undefined,undefined,undefined,undefined,white,no,Mozilla,Netscape,"5.0 (Windows NT 10.0; Win64; x64) AppleWebKit/537.36 (KHTML, like Gecko) Chrome/99.0.4844.51 Safari/537.36",xpyriment,legacy,legacy,0,uniform,0,0,0,0,24,24,24,0,0,8,8,8,8,8,0,8,0,,,,,,0,,16-02-22,16-02-22,10:42:34,Wed Mar 16 2022 10:42:34 GMT+0100 (közép-európai téli idő),The main experiment item,yes,0,0,C:/Users/rrics/Documents/!!ResearchBMECOGSCI/gnet,0,0,0,prototype2.png,no,mono,no,18,no,black,no,no,768,1200,3.5.6,legacy,xpyriment,osweb,1.3.13,0,space,space,space,,28823,12201,28823,,2,legacy,860,1600,24,900,24,0,0,1600,1647423772614,1024,2,48000,-16,experiment,prototype4.png,0,even,Win32,252,124155,121140,252,252,211747,213252,206748,125673,206748,252,,,,,,visual_patterns,0,0,0,yes,1366
undefined,undefined,undefined,undefined,white,no,Mozilla,Netscape,"5.0 (Windows NT 10.0; Win64; x64) AppleWebKit/537.36 (KHTML, like Gecko) Chrome/99.0.4844.51 Safari/537.36",xpyriment,legacy,legacy,0,uniform,0,0,0,0,24,24,24,0,0,9,9,9,9,9,0,9,0,,,,,,0,,16-02-22,16-02-22,10:42:34,Wed Mar 16 2022 10:42:34 GMT+0100 (közép-európai téli idő),The main experiment item,yes,0,0,C:/Users/rrics/Documents/!!ResearchBMECOGSCI/gnet,0,0,0,prototype2.png,no,mono,no,18,no,black,no,no,768,1200,3.5.6,legacy,xpyriment,osweb,1.3.13,0,space,space,space,,28823,12201,28823,,2,legacy,860,1600,24,900,24,0,0,1600,1647423772614,1024,2,48000,-16,experiment,p5sarrsha1.png,0,even,Win32,252,124155,121140,252,252,218270,219784,213272,125673,213272,252,,,,,,visual_patterns,0,0,0,yes,1366
undefined,undefined,undefined,undefined,white,no,Mozilla,Netscape,"5.0 (Windows NT 10.0; Win64; x64) AppleWebKit/537.36 (KHTML, like Gecko) Chrome/99.0.4844.51 Safari/537.36",xpyriment,legacy,legacy,0,uniform,0,0,0,0,24,24,24,0,0,10,10,10,10,10,0,10,0,,,,,,0,,16-02-22,16-02-22,10:42:34,Wed Mar 16 2022 10:42:34 GMT+0100 (közép-európai téli idő),The main experiment item,yes,0,0,C:/Users/rrics/Documents/!!ResearchBMECOGSCI/gnet,0,0,0,prototype2.png,no,mono,no,18,no,black,no,no,768,1200,3.5.6,legacy,xpyriment,osweb,1.3.13,0,space,space,space,,28823,12201,28823,,2,legacy,860,1600,24,900,24,0,0,1600,1647423772614,1024,2,48000,-16,experiment,p5sarrcol1.png,0,even,Win32,252,124155,121140,252,252,224800,226304,219802,125673,219802,252,,,,,,visual_patterns,0,0,0,yes,1366
undefined,undefined,undefined,undefined,white,no,Mozilla,Netscape,"5.0 (Windows NT 10.0; Win64; x64) AppleWebKit/537.36 (KHTML, like Gecko) Chrome/99.0.4844.51 Safari/537.36",xpyriment,legacy,legacy,0,uniform,0,0,0,0,24,24,24,0,0,11,11,11,11,11,0,11,0,,,,,,0,,16-02-22,16-02-22,10:42:34,Wed Mar 16 2022 10:42:34 GMT+0100 (közép-európai téli idő),The main experiment item,yes,0,0,C:/Users/rrics/Documents/!!ResearchBMECOGSCI/gnet,0,0,0,prototype2.png,no,mono,no,18,no,black,no,no,768,1200,3.5.6,legacy,xpyriment,osweb,1.3.13,0,space,space,space,,28823,12201,28823,,2,legacy,860,1600,24,900,24,0,0,1600,1647423772614,1024,2,48000,-16,experiment,p8sarr2.png,0,even,Win32,252,124155,121140,252,252,231321,232823,226321,125673,226321,252,,,,,,visual_patterns,0,0,0,yes,1366
undefined,undefined,undefined,undefined,white,no,Mozilla,Netscape,"5.0 (Windows NT 10.0; Win64; x64) AppleWebKit/537.36 (KHTML, like Gecko) Chrome/99.0.4844.51 Safari/537.36",xpyriment,legacy,legacy,0,uniform,0,0,0,0,24,24,24,0,0,12,12,12,12,12,0,12,0,,,,,,0,,16-02-22,16-02-22,10:42:34,Wed Mar 16 2022 10:42:34 GMT+0100 (közép-európai téli idő),The main experiment item,yes,0,0,C:/Users/rrics/Documents/!!ResearchBMECOGSCI/gnet,0,0,0,prototype2.png,no,mono,no,18,no,black,no,no,768,1200,3.5.6,legacy,xpyriment,osweb,1.3.13,0,space,space,space,,28823,12201,28823,,2,legacy,860,1600,24,900,24,0,0,1600,1647423772614,1024,2,48000,-16,experiment,p5sarrshacol2.png,0,even,Win32,252,124155,121140,252,252,237839,239356,232841,125673,232841,252,,,,,,visual_patterns,0,0,0,yes,1366
undefined,undefined,undefined,undefined,white,no,Mozilla,Netscape,"5.0 (Windows NT 10.0; Win64; x64) AppleWebKit/537.36 (KHTML, like Gecko) Chrome/99.0.4844.51 Safari/537.36",xpyriment,legacy,legacy,0,uniform,0,0,0,0,24,24,24,0,0,13,13,13,13,13,0,13,0,,,,,,0,,16-02-22,16-02-22,10:42:34,Wed Mar 16 2022 10:42:34 GMT+0100 (közép-európai téli idő),The main experiment item,yes,0,0,C:/Users/rrics/Documents/!!ResearchBMECOGSCI/gnet,0,0,0,prototype2.png,no,mono,no,18,no,black,no,no,768,1200,3.5.6,legacy,xpyriment,osweb,1.3.13,0,space,space,space,,28823,12201,28823,,2,legacy,860,1600,24,900,24,0,0,1600,1647423772614,1024,2,48000,-16,experiment,p8sarr1.png,0,even,Win32,252,124155,121140,252,252,244373,245881,239375,125673,239375,252,,,,,,visual_patterns,0,0,0,yes,1366
undefined,undefined,undefined,undefined,white,no,Mozilla,Netscape,"5.0 (Windows NT 10.0; Win64; x64) AppleWebKit/537.36 (KHTML, like Gecko) Chrome/99.0.4844.51 Safari/537.36",xpyriment,legacy,legacy,0,uniform,0,0,0,0,24,24,24,0,0,14,14,14,14,14,0,14,0,,,,,,0,,16-02-22,16-02-22,10:42:34,Wed Mar 16 2022 10:42:34 GMT+0100 (közép-európai téli idő),The main experiment item,yes,0,0,C:/Users/rrics/Documents/!!ResearchBMECOGSCI/gnet,0,0,0,prototype2.png,no,mono,no,18,no,black,no,no,768,1200,3.5.6,legacy,xpyriment,osweb,1.3.13,0,space,space,space,,28823,12201,28823,,2,legacy,860,1600,24,900,24,0,0,1600,1647423772614,1024,2,48000,-16,experiment,p3sarrcol1.png,0,even,Win32,252,124155,121140,252,252,250897,252405,245899,125673,245899,252,,,,,,visual_patterns,0,0,0,yes,1366
undefined,undefined,undefined,undefined,white,no,Mozilla,Netscape,"5.0 (Windows NT 10.0; Win64; x64) AppleWebKit/537.36 (KHTML, like Gecko) Chrome/99.0.4844.51 Safari/537.36",xpyriment,legacy,legacy,0,uniform,0,0,0,0,24,24,24,0,0,15,15,15,15,15,0,15,0,,,,,,0,,16-02-22,16-02-22,10:42:34,Wed Mar 16 2022 10:42:34 GMT+0100 (közép-európai téli idő),The main experiment item,yes,0,0,C:/Users/rrics/Documents/!!ResearchBMECOGSCI/gnet,0,0,0,prototype2.png,no,mono,no,18,no,black,no,no,768,1200,3.5.6,legacy,xpyriment,osweb,1.3.13,0,space,space,space,,28823,12201,28823,,2,legacy,860,1600,24,900,24,0,0,1600,1647423772614,1024,2,48000,-16,experiment,prototype1.png,0,even,Win32,252,124155,121140,252,252,257421,258929,252421,125673,252421,252,,,,,,visual_patterns,0,0,0,yes,1366
undefined,undefined,undefined,undefined,white,no,Mozilla,Netscape,"5.0 (Windows NT 10.0; Win64; x64) AppleWebKit/537.36 (KHTML, like Gecko) Chrome/99.0.4844.51 Safari/537.36",xpyriment,legacy,legacy,0,uniform,0,0,0,0,24,24,24,0,0,16,16,16,16,16,0,16,0,,,,,,0,,16-02-22,16-02-22,10:42:34,Wed Mar 16 2022 10:42:34 GMT+0100 (közép-európai téli idő),The main experiment item,yes,0,0,C:/Users/rrics/Documents/!!ResearchBMECOGSCI/gnet,0,0,0,prototype2.png,no,mono,no,18,no,black,no,no,768,1200,3.5.6,legacy,xpyriment,osweb,1.3.13,0,space,space,space,,28823,12201,28823,,2,legacy,860,1600,24,900,24,0,0,1600,1647423772614,1024,2,48000,-16,experiment,p2sarr2.png,0,even,Win32,252,124155,121140,252,252,263947,265460,258947,125673,258947,252,,,,,,visual_patterns,0,0,0,yes,1366
undefined,undefined,undefined,undefined,white,no,Mozilla,Netscape,"5.0 (Windows NT 10.0; Win64; x64) AppleWebKit/537.36 (KHTML, like Gecko) Chrome/99.0.4844.51 Safari/537.36",xpyriment,legacy,legacy,0,uniform,0,0,0,0,24,24,24,0,0,17,17,17,17,17,0,17,0,,,,,,0,,16-02-22,16-02-22,10:42:34,Wed Mar 16 2022 10:42:34 GMT+0100 (közép-európai téli idő),The main experiment item,yes,0,0,C:/Users/rrics/Documents/!!ResearchBMECOGSCI/gnet,0,0,0,prototype2.png,no,mono,no,18,no,black,no,no,768,1200,3.5.6,legacy,xpyriment,osweb,1.3.13,0,space,space,space,,28823,12201,28823,,2,legacy,860,1600,24,900,24,0,0,1600,1647423772614,1024,2,48000,-16,experiment,p3sarrsha2.png,0,even,Win32,252,124155,121140,252,252,270481,271992,265482,125673,265482,252,,,,,,visual_patterns,0,0,0,yes,1366
undefined,undefined,undefined,undefined,white,no,Mozilla,Netscape,"5.0 (Windows NT 10.0; Win64; x64) AppleWebKit/537.36 (KHTML, like Gecko) Chrome/99.0.4844.51 Safari/537.36",xpyriment,legacy,legacy,0,uniform,0,0,0,0,24,24,24,0,0,18,18,18,18,18,0,18,0,,,,,,0,,16-02-22,16-02-22,10:42:34,Wed Mar 16 2022 10:42:34 GMT+0100 (közép-európai téli idő),The main experiment item,yes,0,0,C:/Users/rrics/Documents/!!ResearchBMECOGSCI/gnet,0,0,0,prototype2.png,no,mono,no,18,no,black,no,no,768,1200,3.5.6,legacy,xpyriment,osweb,1.3.13,0,space,space,space,,28823,12201,28823,,2,legacy,860,1600,24,900,24,0,0,1600,1647423772614,1024,2,48000,-16,experiment,prototype4.png,0,even,Win32,252,124155,121140,252,252,277009,278521,272007,125673,272007,252,,,,,,visual_patterns,0,0,0,yes,1366
undefined,undefined,undefined,undefined,white,no,Mozilla,Netscape,"5.0 (Windows NT 10.0; Win64; x64) AppleWebKit/537.36 (KHTML, like Gecko) Chrome/99.0.4844.51 Safari/537.36",xpyriment,legacy,legacy,0,uniform,0,0,0,0,24,24,24,0,0,19,19,19,19,19,0,19,0,,,,,,0,,16-02-22,16-02-22,10:42:34,Wed Mar 16 2022 10:42:34 GMT+0100 (közép-európai téli idő),The main experiment item,yes,0,0,C:/Users/rrics/Documents/!!ResearchBMECOGSCI/gnet,0,0,0,prototype2.png,no,mono,no,18,no,black,no,no,768,1200,3.5.6,legacy,xpyriment,osweb,1.3.13,0,space,space,space,,28823,12201,28823,,2,legacy,860,1600,24,900,24,0,0,1600,1647423772614,1024,2,48000,-16,experiment,p3sarrsha1.png,0,even,Win32,252,124155,121140,252,252,283535,285046,278539,125673,278539,252,,,,,,visual_patterns,0,0,0,yes,1366
undefined,undefined,undefined,undefined,white,no,Mozilla,Netscape,"5.0 (Windows NT 10.0; Win64; x64) AppleWebKit/537.36 (KHTML, like Gecko) Chrome/99.0.4844.51 Safari/537.36",xpyriment,legacy,legacy,0,uniform,0,0,0,0,24,24,24,0,0,20,20,20,20,20,0,20,0,,,,,,0,,16-02-22,16-02-22,10:42:34,Wed Mar 16 2022 10:42:34 GMT+0100 (közép-európai téli idő),The main experiment item,yes,0,0,C:/Users/rrics/Documents/!!ResearchBMECOGSCI/gnet,0,0,0,prototype2.png,no,mono,no,18,no,black,no,no,768,1200,3.5.6,legacy,xpyriment,osweb,1.3.13,0,space,space,space,,28823,12201,28823,,2,legacy,860,1600,24,900,24,0,0,1600,1647423772614,1024,2,48000,-16,experiment,prototype2.png,0,even,Win32,252,124155,121140,252,252,290061,291574,285060,125673,285060,252,,,,,,visual_patterns,0,0,0,yes,1366
undefined,undefined,undefined,undefined,white,no,Mozilla,Netscape,"5.0 (Windows NT 10.0; Win64; x64) AppleWebKit/537.36 (KHTML, like Gecko) Chrome/99.0.4844.51 Safari/537.36",xpyriment,legacy,legacy,0,uniform,0,0,0,0,24,24,24,0,0,21,21,21,21,21,0,21,0,,,,,,0,,16-02-22,16-02-22,10:42:34,Wed Mar 16 2022 10:42:34 GMT+0100 (közép-európai téli idő),The main experiment item,yes,0,0,C:/Users/rrics/Documents/!!ResearchBMECOGSCI/gnet,0,0,0,prototype2.png,no,mono,no,18,no,black,no,no,768,1200,3.5.6,legacy,xpyriment,osweb,1.3.13,0,space,space,space,,28823,12201,28823,,2,legacy,860,1600,24,900,24,0,0,1600,1647423772614,1024,2,48000,-16,experiment,p4sarrcol2.png,0,even,Win32,252,124155,121140,252,252,296590,298099,291594,125673,291593,252,,,,,,visual_patterns,0,0,0,yes,1366
undefined,undefined,undefined,undefined,white,no,Mozilla,Netscape,"5.0 (Windows NT 10.0; Win64; x64) AppleWebKit/537.36 (KHTML, like Gecko) Chrome/99.0.4844.51 Safari/537.36",xpyriment,legacy,legacy,0,uniform,0,0,0,0,24,24,24,0,0,22,22,22,22,22,0,22,0,,,,,,0,,16-02-22,16-02-22,10:42:34,Wed Mar 16 2022 10:42:34 GMT+0100 (közép-európai téli idő),The main experiment item,yes,0,0,C:/Users/rrics/Documents/!!ResearchBMECOGSCI/gnet,0,0,0,prototype2.png,no,mono,no,18,no,black,no,no,768,1200,3.5.6,legacy,xpyriment,osweb,1.3.13,0,space,space,space,,28823,12201,28823,,2,legacy,860,1600,24,900,24,0,0,1600,1647423772614,1024,2,48000,-16,experiment,p5sarrshacol1.png,0,even,Win32,252,124155,121140,252,252,303154,304667,298159,125673,298159,252,,,,,,visual_patterns,0,0,0,yes,1366
undefined,undefined,undefined,undefined,white,no,Mozilla,Netscape,"5.0 (Windows NT 10.0; Win64; x64) AppleWebKit/537.36 (KHTML, like Gecko) Chrome/99.0.4844.51 Safari/537.36",xpyriment,legacy,legacy,0,uniform,0,0,0,0,24,24,24,0,0,23,23,23,23,23,0,23,0,,,,,,0,,16-02-22,16-02-22,10:42:34,Wed Mar 16 2022 10:42:34 GMT+0100 (közép-európai téli idő),The main experiment item,yes,0,0,C:/Users/rrics/Documents/!!ResearchBMECOGSCI/gnet,0,0,0,prototype2.png,no,mono,no,18,no,black,no,no,768,1200,3.5.6,legacy,xpyriment,osweb,1.3.13,0,space,space,space,,28823,12201,28823,,2,legacy,860,1600,24,900,24,0,0,1600,1647423772614,1024,2,48000,-16,experiment,prototype2.png,0,even,Win32,252,124155,121140,252,252,309684,311195,304685,125673,304685,252,,,,,,visual_patterns,0,0,0,yes,1366
undefined,undefined,undefined,undefined,white,no,Mozilla,Netscape,"5.0 (Windows NT 10.0; Win64; x64) AppleWebKit/537.36 (KHTML, like Gecko) Chrome/99.0.4844.51 Safari/537.36",xpyriment,legacy,legacy,0,uniform,0,0,0,0,24,24,24,0,0,24,24,24,24,24,0,24,0,,,,,,0,,16-02-22,16-02-22,10:42:34,Wed Mar 16 2022 10:42:34 GMT+0100 (közép-európai téli idő),The main experiment item,yes,0,0,C:/Users/rrics/Documents/!!ResearchBMECOGSCI/gnet,0,0,0,prototype2.png,no,mono,no,18,no,black,no,no,768,1200,3.5.6,legacy,xpyriment,osweb,1.3.13,0,space,space,space,,28823,12201,28823,,2,legacy,860,1600,24,900,24,0,0,1600,1647423772614,1024,2,48000,-16,experiment,p4sarrsha2.png,0,even,Win32,252,124155,121140,252,252,316214,317724,311213,125673,311213,252,,,,,,visual_patterns,0,0,0,yes,1366
undefined,undefined,undefined,undefined,white,no,Mozilla,Netscape,"5.0 (Windows NT 10.0; Win64; x64) AppleWebKit/537.36 (KHTML, like Gecko) Chrome/99.0.4844.51 Safari/537.36",xpyriment,legacy,legacy,0,uniform,0,0,0,0,24,24,24,0,0,25,25,25,25,25,0,25,0,,,,,,0,,16-02-22,16-02-22,10:42:34,Wed Mar 16 2022 10:42:34 GMT+0100 (közép-európai téli idő),The main experiment item,yes,0,0,C:/Users/rrics/Documents/!!ResearchBMECOGSCI/gnet,0,0,0,prototype2.png,no,mono,no,18,no,black,no,no,768,1200,3.5.6,legacy,xpyriment,osweb,1.3.13,0,space,space,space,,28823,12201,28823,,2,legacy,860,1600,24,900,24,0,0,1600,1647423772614,1024,2,48000,-16,experiment,p9sarr1.png,0,even,Win32,252,124155,121140,252,252,322740,324253,317742,125673,317742,252,,,,,,visual_patterns,0,0,0,yes,1366
undefined,undefined,undefined,undefined,white,no,Mozilla,Netscape,"5.0 (Windows NT 10.0; Win64; x64) AppleWebKit/537.36 (KHTML, like Gecko) Chrome/99.0.4844.51 Safari/537.36",xpyriment,legacy,legacy,0,uniform,0,0,0,0,24,24,24,0,0,26,26,26,26,26,0,26,0,,,,,,0,,16-02-22,16-02-22,10:42:34,Wed Mar 16 2022 10:42:34 GMT+0100 (közép-európai téli idő),The main experiment item,yes,0,0,C:/Users/rrics/Documents/!!ResearchBMECOGSCI/gnet,0,0,0,prototype2.png,no,mono,no,18,no,black,no,no,768,1200,3.5.6,legacy,xpyriment,osweb,1.3.13,0,space,space,space,,28823,12201,28823,,2,legacy,860,1600,24,900,24,0,0,1600,1647423772614,1024,2,48000,-16,experiment,prototype1.png,0,even,Win32,252,124155,121140,252,252,329268,330769,324268,125673,324268,252,,,,,,visual_patterns,0,0,0,yes,1366
undefined,undefined,undefined,undefined,white,no,Mozilla,Netscape,"5.0 (Windows NT 10.0; Win64; x64) AppleWebKit/537.36 (KHTML, like Gecko) Chrome/99.0.4844.51 Safari/537.36",xpyriment,legacy,legacy,0,uniform,0,0,0,0,24,24,24,0,0,27,27,27,27,27,0,27,0,,,,,,0,,16-02-22,16-02-22,10:42:34,Wed Mar 16 2022 10:42:34 GMT+0100 (közép-európai téli idő),The main experiment item,yes,0,0,C:/Users/rrics/Documents/!!ResearchBMECOGSCI/gnet,0,0,0,prototype2.png,no,mono,no,18,no,black,no,no,768,1200,3.5.6,legacy,xpyriment,osweb,1.3.13,0,space,space,space,,28823,12201,28823,,2,legacy,860,1600,24,900,24,0,0,1600,1647423772614,1024,2,48000,-16,experiment,p4sarrcol1.png,0,even,Win32,252,124155,121140,252,252,335788,337305,330789,125673,330789,252,,,,,,visual_patterns,0,0,0,yes,1366
undefined,undefined,undefined,undefined,white,no,Mozilla,Netscape,"5.0 (Windows NT 10.0; Win64; x64) AppleWebKit/537.36 (KHTML, like Gecko) Chrome/99.0.4844.51 Safari/537.36",xpyriment,legacy,legacy,0,uniform,0,0,0,0,24,24,24,0,0,28,28,28,28,28,0,28,0,,,,,,0,,16-02-22,16-02-22,10:42:34,Wed Mar 16 2022 10:42:34 GMT+0100 (közép-európai téli idő),The main experiment item,yes,0,0,C:/Users/rrics/Documents/!!ResearchBMECOGSCI/gnet,0,0,0,prototype2.png,no,mono,no,18,no,black,no,no,768,1200,3.5.6,legacy,xpyriment,osweb,1.3.13,0,space,space,space,,28823,12201,28823,,2,legacy,860,1600,24,900,24,0,0,1600,1647423772614,1024,2,48000,-16,experiment,prototype4.png,0,even,Win32,252,124155,121140,252,252,342321,343824,337320,125673,337320,252,,,,,,visual_patterns,0,0,0,yes,1366
undefined,undefined,undefined,undefined,white,no,Mozilla,Netscape,"5.0 (Windows NT 10.0; Win64; x64) AppleWebKit/537.36 (KHTML, like Gecko) Chrome/99.0.4844.51 Safari/537.36",xpyriment,legacy,legacy,0,uniform,0,0,0,0,24,24,24,0,0,29,29,29,29,29,0,29,0,,,,,,0,,16-02-22,16-02-22,10:42:34,Wed Mar 16 2022 10:42:34 GMT+0100 (közép-európai téli idő),The main experiment item,yes,0,0,C:/Users/rrics/Documents/!!ResearchBMECOGSCI/gnet,0,0,0,prototype2.png,no,mono,no,18,no,black,no,no,768,1200,3.5.6,legacy,xpyriment,osweb,1.3.13,0,space,space,space,,28823,12201,28823,,2,legacy,860,1600,24,900,24,0,0,1600,1647423772614,1024,2,48000,-16,experiment,prototype5.png,0,even,Win32,252,124155,121140,252,252,348841,350357,343841,125673,343841,252,,,,,,visual_patterns,0,0,0,yes,1366
undefined,undefined,undefined,undefined,white,no,Mozilla,Netscape,"5.0 (Windows NT 10.0; Win64; x64) AppleWebKit/537.36 (KHTML, like Gecko) Chrome/99.0.4844.51 Safari/537.36",xpyriment,legacy,legacy,0,uniform,0,0,0,0,24,24,24,0,0,30,30,30,30,30,0,30,0,,,,,,0,,16-02-22,16-02-22,10:42:34,Wed Mar 16 2022 10:42:34 GMT+0100 (közép-európai téli idő),The main experiment item,yes,0,0,C:/Users/rrics/Documents/!!ResearchBMECOGSCI/gnet,0,0,0,prototype2.png,no,mono,no,18,no,black,no,no,768,1200,3.5.6,legacy,xpyriment,osweb,1.3.13,0,space,space,space,,28823,12201,28823,,2,legacy,860,1600,24,900,24,0,0,1600,1647423772614,1024,2,48000,-16,experiment,p5sarrcol2.png,0,even,Win32,252,124155,121140,252,252,355374,356875,350376,125673,350376,252,,,,,,visual_patterns,0,0,0,yes,1366
undefined,undefined,undefined,undefined,white,no,Mozilla,Netscape,"5.0 (Windows NT 10.0; Win64; x64) AppleWebKit/537.36 (KHTML, like Gecko) Chrome/99.0.4844.51 Safari/537.36",xpyriment,legacy,legacy,0,uniform,0,0,0,0,24,24,24,0,0,31,31,31,31,31,0,31,0,,,,,,0,,16-02-22,16-02-22,10:42:34,Wed Mar 16 2022 10:42:34 GMT+0100 (közép-európai téli idő),The main experiment item,yes,0,0,C:/Users/rrics/Documents/!!ResearchBMECOGSCI/gnet,0,0,0,prototype2.png,no,mono,no,18,no,black,no,no,768,1200,3.5.6,legacy,xpyriment,osweb,1.3.13,0,space,space,space,,28823,12201,28823,,2,legacy,860,1600,24,900,24,0,0,1600,1647423772614,1024,2,48000,-16,experiment,p2sarrsha2.png,0,even,Win32,252,124155,121140,252,252,361892,363408,356896,125673,356896,252,,,,,,visual_patterns,0,0,0,yes,1366
undefined,undefined,undefined,undefined,white,no,Mozilla,Netscape,"5.0 (Windows NT 10.0; Win64; x64) AppleWebKit/537.36 (KHTML, like Gecko) Chrome/99.0.4844.51 Safari/537.36",xpyriment,legacy,legacy,0,uniform,0,0,0,0,24,24,24,0,0,32,32,32,32,32,0,32,0,,,,,,0,,16-02-22,16-02-22,10:42:34,Wed Mar 16 2022 10:42:34 GMT+0100 (közép-európai téli idő),The main experiment item,yes,0,0,C:/Users/rrics/Documents/!!ResearchBMECOGSCI/gnet,0,0,0,prototype2.png,no,mono,no,18,no,black,no,no,768,1200,3.5.6,legacy,xpyriment,osweb,1.3.13,0,space,space,space,,28823,12201,28823,,2,legacy,860,1600,24,900,24,0,0,1600,1647423772614,1024,2,48000,-16,experiment,p5sarr1.png,0,even,Win32,252,124155,121140,252,252,368423,369927,363426,125673,363426,252,,,,,,visual_patterns,0,0,0,yes,1366
undefined,undefined,undefined,undefined,white,no,Mozilla,Netscape,"5.0 (Windows NT 10.0; Win64; x64) AppleWebKit/537.36 (KHTML, like Gecko) Chrome/99.0.4844.51 Safari/537.36",xpyriment,legacy,legacy,0,uniform,0,0,0,0,24,24,24,0,0,33,33,33,33,33,0,33,0,,,,,,0,,16-02-22,16-02-22,10:42:34,Wed Mar 16 2022 10:42:34 GMT+0100 (közép-európai téli idő),The main experiment item,yes,0,0,C:/Users/rrics/Documents/!!ResearchBMECOGSCI/gnet,0,0,0,prototype2.png,no,mono,no,18,no,black,no,no,768,1200,3.5.6,legacy,xpyriment,osweb,1.3.13,0,space,space,space,,28823,12201,28823,,2,legacy,860,1600,24,900,24,0,0,1600,1647423772614,1024,2,48000,-16,experiment,p3sarrshacol1.png,0,even,Win32,252,124155,121140,252,252,374942,376452,369946,125673,369946,252,,,,,,visual_patterns,0,0,0,yes,1366
undefined,undefined,undefined,undefined,white,no,Mozilla,Netscape,"5.0 (Windows NT 10.0; Win64; x64) AppleWebKit/537.36 (KHTML, like Gecko) Chrome/99.0.4844.51 Safari/537.36",xpyriment,legacy,legacy,0,uniform,0,0,0,0,24,24,24,0,0,34,34,34,34,34,0,34,0,,,,,,0,,16-02-22,16-02-22,10:42:34,Wed Mar 16 2022 10:42:34 GMT+0100 (közép-európai téli idő),The main experiment item,yes,0,0,C:/Users/rrics/Documents/!!ResearchBMECOGSCI/gnet,0,0,0,prototype2.png,no,mono,no,18,no,black,no,no,768,1200,3.5.6,legacy,xpyriment,osweb,1.3.13,0,space,space,space,,28823,12201,28823,,2,legacy,860,1600,24,900,24,0,0,1600,1647423772614,1024,2,48000,-16,experiment,prototype1.png,0,even,Win32,252,124155,121140,252,252,381467,382978,376467,125673,376467,252,,,,,,visual_patterns,0,0,0,yes,1366
undefined,undefined,undefined,undefined,white,no,Mozilla,Netscape,"5.0 (Windows NT 10.0; Win64; x64) AppleWebKit/537.36 (KHTML, like Gecko) Chrome/99.0.4844.51 Safari/537.36",xpyriment,legacy,legacy,0,uniform,0,0,0,0,24,24,24,0,0,35,35,35,35,35,0,35,0,,,,,,0,,16-02-22,16-02-22,10:42:34,Wed Mar 16 2022 10:42:34 GMT+0100 (közép-európai téli idő),The main experiment item,yes,0,0,C:/Users/rrics/Documents/!!ResearchBMECOGSCI/gnet,0,0,0,prototype2.png,no,mono,no,18,no,black,no,no,768,1200,3.5.6,legacy,xpyriment,osweb,1.3.13,0,space,space,space,,28823,12201,28823,,2,legacy,860,1600,24,900,24,0,0,1600,1647423772614,1024,2,48000,-16,experiment,p4sarrshacol1.png,0,even,Win32,252,124155,121140,252,252,387995,389498,382996,125673,382996,252,,,,,,visual_patterns,0,0,0,yes,1366
undefined,undefined,undefined,undefined,white,no,Mozilla,Netscape,"5.0 (Windows NT 10.0; Win64; x64) AppleWebKit/537.36 (KHTML, like Gecko) Chrome/99.0.4844.51 Safari/537.36",xpyriment,legacy,legacy,0,uniform,0,0,0,0,24,24,24,0,0,36,36,36,36,36,0,36,0,,,,,,0,,16-02-22,16-02-22,10:42:34,Wed Mar 16 2022 10:42:34 GMT+0100 (közép-európai téli idő),The main experiment item,yes,0,0,C:/Users/rrics/Documents/!!ResearchBMECOGSCI/gnet,0,0,0,prototype2.png,no,mono,no,18,no,black,no,no,768,1200,3.5.6,legacy,xpyriment,osweb,1.3.13,0,space,space,space,,28823,12201,28823,,2,legacy,860,1600,24,900,24,0,0,1600,1647423772614,1024,2,48000,-16,experiment,prototype3.png,0,even,Win32,252,124155,121140,252,252,394511,396012,389512,125673,389512,252,,,,,,visual_patterns,0,0,0,yes,1366
undefined,undefined,undefined,undefined,white,no,Mozilla,Netscape,"5.0 (Windows NT 10.0; Win64; x64) AppleWebKit/537.36 (KHTML, like Gecko) Chrome/99.0.4844.51 Safari/537.36",xpyriment,legacy,legacy,0,uniform,0,0,0,0,24,24,24,0,0,37,37,37,37,37,0,37,0,,,,,,0,,16-02-22,16-02-22,10:42:34,Wed Mar 16 2022 10:42:34 GMT+0100 (közép-európai téli idő),The main experiment item,yes,0,0,C:/Users/rrics/Documents/!!ResearchBMECOGSCI/gnet,0,0,0,prototype2.png,no,mono,no,18,no,black,no,no,768,1200,3.5.6,legacy,xpyriment,osweb,1.3.13,0,space,space,space,,28823,12201,28823,,2,legacy,860,1600,24,900,24,0,0,1600,1647423772614,1024,2,48000,-16,experiment,prototype3.png,0,even,Win32,252,124155,121140,252,252,401029,402538,396026,125673,396026,252,,,,,,visual_patterns,0,0,0,yes,1366
undefined,undefined,undefined,undefined,white,no,Mozilla,Netscape,"5.0 (Windows NT 10.0; Win64; x64) AppleWebKit/537.36 (KHTML, like Gecko) Chrome/99.0.4844.51 Safari/537.36",xpyriment,legacy,legacy,0,uniform,0,0,0,0,24,24,24,0,0,38,38,38,38,38,0,38,0,,,,,,0,,16-02-22,16-02-22,10:42:34,Wed Mar 16 2022 10:42:34 GMT+0100 (közép-európai téli idő),The main experiment item,yes,0,0,C:/Users/rrics/Documents/!!ResearchBMECOGSCI/gnet,0,0,0,prototype2.png,no,mono,no,18,no,black,no,no,768,1200,3.5.6,legacy,xpyriment,osweb,1.3.13,0,space,space,space,,28823,12201,28823,,2,legacy,860,1600,24,900,24,0,0,1600,1647423772614,1024,2,48000,-16,experiment,p7sarr1.png,0,even,Win32,252,124155,121140,252,252,407595,409099,402596,125673,402596,252,,,,,,visual_patterns,0,0,0,yes,1366
undefined,undefined,undefined,undefined,white,no,Mozilla,Netscape,"5.0 (Windows NT 10.0; Win64; x64) AppleWebKit/537.36 (KHTML, like Gecko) Chrome/99.0.4844.51 Safari/537.36",xpyriment,legacy,legacy,0,uniform,0,0,0,0,24,24,24,0,0,39,39,39,39,39,0,39,0,,,,,,0,,16-02-22,16-02-22,10:42:34,Wed Mar 16 2022 10:42:34 GMT+0100 (közép-európai téli idő),The main experiment item,yes,0,0,C:/Users/rrics/Documents/!!ResearchBMECOGSCI/gnet,0,0,0,prototype2.png,no,mono,no,18,no,black,no,no,768,1200,3.5.6,legacy,xpyriment,osweb,1.3.13,0,space,space,space,,28823,12201,28823,,2,legacy,860,1600,24,900,24,0,0,1600,1647423772614,1024,2,48000,-16,experiment,p1sarrsha1.png,0,even,Win32,252,124155,121140,252,252,414116,415618,409118,125673,409118,252,,,,,,visual_patterns,0,0,0,yes,1366
undefined,undefined,undefined,undefined,white,no,Mozilla,Netscape,"5.0 (Windows NT 10.0; Win64; x64) AppleWebKit/537.36 (KHTML, like Gecko) Chrome/99.0.4844.51 Safari/537.36",xpyriment,legacy,legacy,0,uniform,0,0,0,0,24,24,24,0,0,40,40,40,40,40,0,40,0,,,,,,0,,16-02-22,16-02-22,10:42:34,Wed Mar 16 2022 10:42:34 GMT+0100 (közép-európai téli idő),The main experiment item,yes,0,0,C:/Users/rrics/Documents/!!ResearchBMECOGSCI/gnet,0,0,0,prototype2.png,no,mono,no,18,no,black,no,no,768,1200,3.5.6,legacy,xpyriment,osweb,1.3.13,0,space,space,space,,28823,12201,28823,,2,legacy,860,1600,24,900,24,0,0,1600,1647423772614,1024,2,48000,-16,experiment,prototype5.png,0,even,Win32,252,124155,121140,252,252,420635,422136,415636,125673,415635,252,,,,,,visual_patterns,0,0,0,yes,1366
undefined,undefined,undefined,undefined,white,no,Mozilla,Netscape,"5.0 (Windows NT 10.0; Win64; x64) AppleWebKit/537.36 (KHTML, like Gecko) Chrome/99.0.4844.51 Safari/537.36",xpyriment,legacy,legacy,0,uniform,0,0,0,0,24,24,24,0,0,41,41,41,41,41,0,41,0,,,,,,0,,16-02-22,16-02-22,10:42:34,Wed Mar 16 2022 10:42:34 GMT+0100 (közép-európai téli idő),The main experiment item,yes,0,0,C:/Users/rrics/Documents/!!ResearchBMECOGSCI/gnet,0,0,0,prototype2.png,no,mono,no,18,no,black,no,no,768,1200,3.5.6,legacy,xpyriment,osweb,1.3.13,0,space,space,space,,28823,12201,28823,,2,legacy,860,1600,24,900,24,0,0,1600,1647423772614,1024,2,48000,-16,experiment,p3sarrshacol2.png,0,even,Win32,252,124155,121140,252,252,427156,428669,422161,125673,422161,252,,,,,,visual_patterns,0,0,0,yes,1366
undefined,undefined,undefined,undefined,white,no,Mozilla,Netscape,"5.0 (Windows NT 10.0; Win64; x64) AppleWebKit/537.36 (KHTML, like Gecko) Chrome/99.0.4844.51 Safari/537.36",xpyriment,legacy,legacy,0,uniform,0,0,0,0,24,24,24,0,0,42,42,42,42,42,0,42,0,,,,,,0,,16-02-22,16-02-22,10:42:34,Wed Mar 16 2022 10:42:34 GMT+0100 (közép-európai téli idő),The main experiment item,yes,0,0,C:/Users/rrics/Documents/!!ResearchBMECOGSCI/gnet,0,0,0,prototype2.png,no,mono,no,18,no,black,no,no,768,1200,3.5.6,legacy,xpyriment,osweb,1.3.13,0,space,space,space,,28823,12201,28823,,2,legacy,860,1600,24,900,24,0,0,1600,1647423772614,1024,2,48000,-16,experiment,p3sarrcol2.png,0,even,Win32,252,124155,121140,252,252,433689,435203,428693,125673,428693,252,,,,,,visual_patterns,0,0,0,yes,1366
undefined,undefined,undefined,undefined,white,no,Mozilla,Netscape,"5.0 (Windows NT 10.0; Win64; x64) AppleWebKit/537.36 (KHTML, like Gecko) Chrome/99.0.4844.51 Safari/537.36",xpyriment,legacy,legacy,0,uniform,0,0,0,0,24,24,24,0,0,43,43,43,43,43,0,43,0,,,,,,0,,16-02-22,16-02-22,10:42:34,Wed Mar 16 2022 10:42:34 GMT+0100 (közép-európai téli idő),The main experiment item,yes,0,0,C:/Users/rrics/Documents/!!ResearchBMECOGSCI/gnet,0,0,0,prototype2.png,no,mono,no,18,no,black,no,no,768,1200,3.5.6,legacy,xpyriment,osweb,1.3.13,0,space,space,space,,28823,12201,28823,,2,legacy,860,1600,24,900,24,0,0,1600,1647423772614,1024,2,48000,-16,experiment,p3sarr2.png,0,even,Win32,252,124155,121140,252,252,440219,441722,435221,125673,435221,252,,,,,,visual_patterns,0,0,0,yes,1366
undefined,undefined,undefined,undefined,white,no,Mozilla,Netscape,"5.0 (Windows NT 10.0; Win64; x64) AppleWebKit/537.36 (KHTML, like Gecko) Chrome/99.0.4844.51 Safari/537.36",xpyriment,legacy,legacy,0,uniform,0,0,0,0,24,24,24,0,0,44,44,44,44,44,0,44,0,,,,,,0,,16-02-22,16-02-22,10:42:34,Wed Mar 16 2022 10:42:34 GMT+0100 (közép-európai téli idő),The main experiment item,yes,0,0,C:/Users/rrics/Documents/!!ResearchBMECOGSCI/gnet,0,0,0,prototype2.png,no,mono,no,18,no,black,no,no,768,1200,3.5.6,legacy,xpyriment,osweb,1.3.13,0,space,space,space,,28823,12201,28823,,2,legacy,860,1600,24,900,24,0,0,1600,1647423772614,1024,2,48000,-16,experiment,p2sarrsha1.png,0,even,Win32,252,124155,121140,252,252,446742,448254,441742,125673,441742,252,,,,,,visual_patterns,0,0,0,yes,1366
undefined,undefined,undefined,undefined,white,no,Mozilla,Netscape,"5.0 (Windows NT 10.0; Win64; x64) AppleWebKit/537.36 (KHTML, like Gecko) Chrome/99.0.4844.51 Safari/537.36",xpyriment,legacy,legacy,0,uniform,0,0,0,0,24,24,24,0,0,45,45,45,45,45,0,45,0,,,,,,0,,16-02-22,16-02-22,10:42:34,Wed Mar 16 2022 10:42:34 GMT+0100 (közép-európai téli idő),The main experiment item,yes,0,0,C:/Users/rrics/Documents/!!ResearchBMECOGSCI/gnet,0,0,0,prototype2.png,no,mono,no,18,no,black,no,no,768,1200,3.5.6,legacy,xpyriment,osweb,1.3.13,0,space,space,space,,28823,12201,28823,,2,legacy,860,1600,24,900,24,0,0,1600,1647423772614,1024,2,48000,-16,experiment,p4sarrsha1.png,0,even,Win32,252,124155,121140,252,252,453272,454774,448272,125673,448272,252,,,,,,visual_patterns,0,0,0,yes,1366
undefined,undefined,undefined,undefined,white,no,Mozilla,Netscape,"5.0 (Windows NT 10.0; Win64; x64) AppleWebKit/537.36 (KHTML, like Gecko) Chrome/99.0.4844.51 Safari/537.36",xpyriment,legacy,legacy,0,uniform,0,0,0,0,24,24,24,0,0,46,46,46,46,46,0,46,0,,,,,,0,,16-02-22,16-02-22,10:42:34,Wed Mar 16 2022 10:42:34 GMT+0100 (közép-európai téli idő),The main experiment item,yes,0,0,C:/Users/rrics/Documents/!!ResearchBMECOGSCI/gnet,0,0,0,prototype2.png,no,mono,no,18,no,black,no,no,768,1200,3.5.6,legacy,xpyriment,osweb,1.3.13,0,space,space,space,,28823,12201,28823,,2,legacy,860,1600,24,900,24,0,0,1600,1647423772614,1024,2,48000,-16,experiment,p1sarrcol1.png,0,even,Win32,252,124155,121140,252,252,459790,461292,454793,125673,454793,252,,,,,,visual_patterns,0,0,0,yes,1366
undefined,undefined,undefined,undefined,white,no,Mozilla,Netscape,"5.0 (Windows NT 10.0; Win64; x64) AppleWebKit/537.36 (KHTML, like Gecko) Chrome/99.0.4844.51 Safari/537.36",xpyriment,legacy,legacy,0,uniform,0,0,0,0,24,24,24,0,0,47,47,47,47,47,0,47,0,,,,,,0,,16-02-22,16-02-22,10:42:34,Wed Mar 16 2022 10:42:34 GMT+0100 (közép-európai téli idő),The main experiment item,yes,0,0,C:/Users/rrics/Documents/!!ResearchBMECOGSCI/gnet,0,0,0,prototype2.png,no,mono,no,18,no,black,no,no,768,1200,3.5.6,legacy,xpyriment,osweb,1.3.13,0,space,space,space,,28823,12201,28823,,2,legacy,860,1600,24,900,24,0,0,1600,1647423772614,1024,2,48000,-16,experiment,p1sarrsha2.png,0,even,Win32,252,124155,121140,252,252,466307,467810,461311,125673,461311,252,,,,,,visual_patterns,0,0,0,yes,1366
undefined,undefined,undefined,undefined,white,no,Mozilla,Netscape,"5.0 (Windows NT 10.0; Win64; x64) AppleWebKit/537.36 (KHTML, like Gecko) Chrome/99.0.4844.51 Safari/537.36",xpyriment,legacy,legacy,0,uniform,0,0,0,0,24,24,24,0,0,48,48,48,48,48,0,48,0,,,,,,0,,16-02-22,16-02-22,10:42:34,Wed Mar 16 2022 10:42:34 GMT+0100 (közép-európai téli idő),The main experiment item,yes,0,0,C:/Users/rrics/Documents/!!ResearchBMECOGSCI/gnet,0,0,0,prototype2.png,no,mono,no,18,no,black,no,no,768,1200,3.5.6,legacy,xpyriment,osweb,1.3.13,0,space,space,space,,28823,12201,28823,,2,legacy,860,1600,24,900,24,0,0,1600,1647423772614,1024,2,48000,-16,experiment,p7sarr2.png,0,even,Win32,252,124155,121140,252,252,472827,474344,467830,125673,467830,252,,,,,,visual_patterns,0,0,0,yes,1366
undefined,undefined,undefined,undefined,white,no,Mozilla,Netscape,"5.0 (Windows NT 10.0; Win64; x64) AppleWebKit/537.36 (KHTML, like Gecko) Chrome/99.0.4844.51 Safari/537.36",xpyriment,legacy,legacy,0,uniform,0,0,0,0,24,24,24,0,0,49,49,49,49,49,0,49,0,,,,,,0,,16-02-22,16-02-22,10:42:34,Wed Mar 16 2022 10:42:34 GMT+0100 (közép-európai téli idő),The main experiment item,yes,0,0,C:/Users/rrics/Documents/!!ResearchBMECOGSCI/gnet,0,0,0,prototype2.png,no,mono,no,18,no,black,no,no,768,1200,3.5.6,legacy,xpyriment,osweb,1.3.13,0,space,space,space,,28823,12201,28823,,2,legacy,860,1600,24,900,24,0,0,1600,1647423772614,1024,2,48000,-16,experiment,p4sarr1.png,0,even,Win32,252,124155,121140,252,252,479360,480863,474362,125673,474362,252,,,,,,visual_patterns,0,0,0,yes,1366
undefined,undefined,undefined,undefined,white,no,Mozilla,Netscape,"5.0 (Windows NT 10.0; Win64; x64) AppleWebKit/537.36 (KHTML, like Gecko) Chrome/99.0.4844.51 Safari/537.36",xpyriment,legacy,legacy,0,uniform,0,0,0,0,24,24,24,0,0,50,50,50,50,50,0,50,0,,,,,,0,,16-02-22,16-02-22,10:42:34,Wed Mar 16 2022 10:42:34 GMT+0100 (közép-európai téli idő),The main experiment item,yes,0,0,C:/Users/rrics/Documents/!!ResearchBMECOGSCI/gnet,0,0,0,prototype2.png,no,mono,no,18,no,black,no,no,768,1200,3.5.6,legacy,xpyriment,osweb,1.3.13,0,space,space,space,,28823,12201,28823,,2,legacy,860,1600,24,900,24,0,0,1600,1647423772614,1024,2,48000,-16,experiment,p10sarr1.png,0,even,Win32,252,124155,121140,252,252,485879,487380,480884,125673,480884,252,,,,,,visual_patterns,0,0,0,yes,1366
undefined,undefined,undefined,undefined,white,no,Mozilla,Netscape,"5.0 (Windows NT 10.0; Win64; x64) AppleWebKit/537.36 (KHTML, like Gecko) Chrome/99.0.4844.51 Safari/537.36",xpyriment,legacy,legacy,0,uniform,0,0,0,0,24,24,24,0,0,51,51,51,51,51,0,51,0,,,,,,0,,16-02-22,16-02-22,10:42:34,Wed Mar 16 2022 10:42:34 GMT+0100 (közép-európai téli idő),The main experiment item,yes,0,0,C:/Users/rrics/Documents/!!ResearchBMECOGSCI/gnet,0,0,0,prototype2.png,no,mono,no,18,no,black,no,no,768,1200,3.5.6,legacy,xpyriment,osweb,1.3.13,0,space,space,space,,28823,12201,28823,,2,legacy,860,1600,24,900,24,0,0,1600,1647423772614,1024,2,48000,-16,experiment,prototype3.png,0,even,Win32,252,124155,121140,252,252,492395,493899,487396,125673,487396,252,,,,,,visual_patterns,0,0,0,yes,1366
undefined,undefined,undefined,undefined,white,no,Mozilla,Netscape,"5.0 (Windows NT 10.0; Win64; x64) AppleWebKit/537.36 (KHTML, like Gecko) Chrome/99.0.4844.51 Safari/537.36",xpyriment,legacy,legacy,0,uniform,0,0,0,0,24,24,24,0,0,52,52,52,52,52,0,52,0,,,,,,0,,16-02-22,16-02-22,10:42:34,Wed Mar 16 2022 10:42:34 GMT+0100 (közép-európai téli idő),The main experiment item,yes,0,0,C:/Users/rrics/Documents/!!ResearchBMECOGSCI/gnet,0,0,0,prototype2.png,no,mono,no,18,no,black,no,no,768,1200,3.5.6,legacy,xpyriment,osweb,1.3.13,0,space,space,space,,28823,12201,28823,,2,legacy,860,1600,24,900,24,0,0,1600,1647423772614,1024,2,48000,-16,experiment,p1sarr1.png,0,even,Win32,252,124155,121140,252,252,498919,500430,493920,125673,493920,252,,,,,,visual_patterns,0,0,0,yes,1366
undefined,undefined,undefined,undefined,white,no,Mozilla,Netscape,"5.0 (Windows NT 10.0; Win64; x64) AppleWebKit/537.36 (KHTML, like Gecko) Chrome/99.0.4844.51 Safari/537.36",xpyriment,legacy,legacy,0,uniform,0,0,0,0,24,24,24,0,0,53,53,53,53,53,0,53,0,,,,,,0,,16-02-22,16-02-22,10:42:34,Wed Mar 16 2022 10:42:34 GMT+0100 (közép-európai téli idő),The main experiment item,yes,0,0,C:/Users/rrics/Documents/!!ResearchBMECOGSCI/gnet,0,0,0,prototype2.png,no,mono,no,18,no,black,no,no,768,1200,3.5.6,legacy,xpyriment,osweb,1.3.13,0,space,space,space,,28823,12201,28823,,2,legacy,860,1600,24,900,24,0,0,1600,1647423772614,1024,2,48000,-16,experiment,p1sarrcol2.png,0,even,Win32,252,124155,121140,252,252,505446,506954,500449,125673,500449,252,,,,,,visual_patterns,0,0,0,yes,1366
undefined,undefined,undefined,undefined,white,no,Mozilla,Netscape,"5.0 (Windows NT 10.0; Win64; x64) AppleWebKit/537.36 (KHTML, like Gecko) Chrome/99.0.4844.51 Safari/537.36",xpyriment,legacy,legacy,0,uniform,0,0,0,0,24,24,24,0,0,54,54,54,54,54,0,54,0,,,,,,0,,16-02-22,16-02-22,10:42:34,Wed Mar 16 2022 10:42:34 GMT+0100 (közép-európai téli idő),The main experiment item,yes,0,0,C:/Users/rrics/Documents/!!ResearchBMECOGSCI/gnet,0,0,0,prototype2.png,no,mono,no,18,no,black,no,no,768,1200,3.5.6,legacy,xpyriment,osweb,1.3.13,0,space,space,space,,28823,12201,28823,,2,legacy,860,1600,24,900,24,0,0,1600,1647423772614,1024,2,48000,-16,experiment,p2sarrcol2.png,0,even,Win32,252,124155,121140,252,252,511972,513485,506973,125673,506973,252,,,,,,visual_patterns,0,0,0,yes,1366
undefined,undefined,undefined,undefined,white,no,Mozilla,Netscape,"5.0 (Windows NT 10.0; Win64; x64) AppleWebKit/537.36 (KHTML, like Gecko) Chrome/99.0.4844.51 Safari/537.36",xpyriment,legacy,legacy,0,uniform,0,0,0,0,24,24,24,0,0,55,55,55,55,55,0,55,0,,,,,,0,,16-02-22,16-02-22,10:42:34,Wed Mar 16 2022 10:42:34 GMT+0100 (közép-európai téli idő),The main experiment item,yes,0,0,C:/Users/rrics/Documents/!!ResearchBMECOGSCI/gnet,0,0,0,prototype2.png,no,mono,no,18,no,black,no,no,768,1200,3.5.6,legacy,xpyriment,osweb,1.3.13,0,space,space,space,,28823,12201,28823,,2,legacy,860,1600,24,900,24,0,0,1600,1647423772614,1024,2,48000,-16,experiment,prototype4.png,0,even,Win32,252,124155,121140,252,252,518499,520001,513500,125673,513500,252,,,,,,visual_patterns,0,0,0,yes,1366
undefined,undefined,undefined,undefined,white,no,Mozilla,Netscape,"5.0 (Windows NT 10.0; Win64; x64) AppleWebKit/537.36 (KHTML, like Gecko) Chrome/99.0.4844.51 Safari/537.36",xpyriment,legacy,legacy,0,uniform,0,0,0,0,24,24,24,0,0,56,56,56,56,56,0,56,0,,,,,,0,,16-02-22,16-02-22,10:42:34,Wed Mar 16 2022 10:42:34 GMT+0100 (közép-európai téli idő),The main experiment item,yes,0,0,C:/Users/rrics/Documents/!!ResearchBMECOGSCI/gnet,0,0,0,prototype2.png,no,mono,no,18,no,black,no,no,768,1200,3.5.6,legacy,xpyriment,osweb,1.3.13,0,space,space,space,,28823,12201,28823,,2,legacy,860,1600,24,900,24,0,0,1600,1647423772614,1024,2,48000,-16,experiment,p2sarrshacol1.png,0,even,Win32,252,124155,121140,252,252,525015,526520,520019,125673,520019,252,,,,,,visual_patterns,0,0,0,yes,1366
undefined,undefined,undefined,undefined,white,no,Mozilla,Netscape,"5.0 (Windows NT 10.0; Win64; x64) AppleWebKit/537.36 (KHTML, like Gecko) Chrome/99.0.4844.51 Safari/537.36",xpyriment,legacy,legacy,0,uniform,0,0,0,0,24,24,24,0,0,57,57,57,57,57,0,57,0,,,,,,0,,16-02-22,16-02-22,10:42:34,Wed Mar 16 2022 10:42:34 GMT+0100 (közép-európai téli idő),The main experiment item,yes,0,0,C:/Users/rrics/Documents/!!ResearchBMECOGSCI/gnet,0,0,0,prototype2.png,no,mono,no,18,no,black,no,no,768,1200,3.5.6,legacy,xpyriment,osweb,1.3.13,0,space,space,space,,28823,12201,28823,,2,legacy,860,1600,24,900,24,0,0,1600,1647423772614,1024,2,48000,-16,experiment,prototype5.png,0,even,Win32,252,124155,121140,252,252,531535,533039,526536,125673,526536,252,,,,,,visual_patterns,0,0,0,yes,1366
undefined,undefined,undefined,undefined,white,no,Mozilla,Netscape,"5.0 (Windows NT 10.0; Win64; x64) AppleWebKit/537.36 (KHTML, like Gecko) Chrome/99.0.4844.51 Safari/537.36",xpyriment,legacy,legacy,0,uniform,0,0,0,0,24,24,24,0,0,58,58,58,58,58,0,58,0,,,,,,0,,16-02-22,16-02-22,10:42:34,Wed Mar 16 2022 10:42:34 GMT+0100 (közép-európai téli idő),The main experiment item,yes,0,0,C:/Users/rrics/Documents/!!ResearchBMECOGSCI/gnet,0,0,0,prototype2.png,no,mono,no,18,no,black,no,no,768,1200,3.5.6,legacy,xpyriment,osweb,1.3.13,0,space,space,space,,28823,12201,28823,,2,legacy,860,1600,24,900,24,0,0,1600,1647423772614,1024,2,48000,-16,experiment,prototype2.png,0,even,Win32,252,124155,121140,252,252,538056,539573,533055,125673,533055,252,,,,,,visual_patterns,0,0,0,yes,1366
undefined,undefined,undefined,undefined,white,no,Mozilla,Netscape,"5.0 (Windows NT 10.0; Win64; x64) AppleWebKit/537.36 (KHTML, like Gecko) Chrome/99.0.4844.51 Safari/537.36",xpyriment,legacy,legacy,0,uniform,0,0,0,0,24,24,24,0,0,59,59,59,59,59,0,59,0,,,,,,0,,16-02-22,16-02-22,10:42:34,Wed Mar 16 2022 10:42:34 GMT+0100 (közép-európai téli idő),The main experiment item,yes,0,0,C:/Users/rrics/Documents/!!ResearchBMECOGSCI/gnet,0,0,0,prototype2.png,no,mono,no,18,no,black,no,no,768,1200,3.5.6,legacy,xpyriment,osweb,1.3.13,0,space,space,space,,28823,12201,28823,,2,legacy,860,1600,24,900,24,0,0,1600,1647423772614,1024,2,48000,-16,experiment,prototype5.png,0,even,Win32,252,124155,121140,252,252,544589,546091,539588,125673,539588,252,,,,,,visual_patterns,0,0,0,yes,1366
undefined,undefined,undefined,undefined,white,no,Mozilla,Netscape,"5.0 (Windows NT 10.0; Win64; x64) AppleWebKit/537.36 (KHTML, like Gecko) Chrome/99.0.4844.51 Safari/537.36",xpyriment,legacy,legacy,0,uniform,0,0,0,0,24,24,24,0,0,60,60,60,60,60,0,60,0,,,,,,0,,16-02-22,16-02-22,10:42:34,Wed Mar 16 2022 10:42:34 GMT+0100 (közép-európai téli idő),The main experiment item,yes,0,0,C:/Users/rrics/Documents/!!ResearchBMECOGSCI/gnet,0,0,0,prototype2.png,no,mono,no,18,no,black,no,no,768,1200,3.5.6,legacy,xpyriment,osweb,1.3.13,0,space,space,space,,28823,12201,28823,,2,legacy,860,1600,24,900,24,0,0,1600,1647423772614,1024,2,48000,-16,experiment,p1sarrshacol2.png,0,even,Win32,252,124155,121140,252,252,551109,552618,546108,125673,546108,252,,,,,,visual_patterns,0,0,0,yes,1366
undefined,undefined,undefined,undefined,white,no,Mozilla,Netscape,"5.0 (Windows NT 10.0; Win64; x64) AppleWebKit/537.36 (KHTML, like Gecko) Chrome/99.0.4844.51 Safari/537.36",xpyriment,legacy,legacy,0,uniform,0,0,0,0,24,24,24,0,0,61,61,61,61,61,0,61,0,,,,,,0,,16-02-22,16-02-22,10:42:34,Wed Mar 16 2022 10:42:34 GMT+0100 (közép-európai téli idő),The main experiment item,yes,0,0,C:/Users/rrics/Documents/!!ResearchBMECOGSCI/gnet,0,0,0,prototype2.png,no,mono,no,18,no,black,no,no,768,1200,3.5.6,legacy,xpyriment,osweb,1.3.13,0,space,space,space,,28823,12201,28823,,2,legacy,860,1600,24,900,24,0,0,1600,1647423772614,1024,2,48000,-16,experiment,p2sarrcol1.png,0,even,Win32,252,124155,121140,252,252,557636,559142,552636,125673,552636,252,,,,,,visual_patterns,0,0,0,yes,1366
undefined,undefined,undefined,undefined,white,no,Mozilla,Netscape,"5.0 (Windows NT 10.0; Win64; x64) AppleWebKit/537.36 (KHTML, like Gecko) Chrome/99.0.4844.51 Safari/537.36",xpyriment,legacy,legacy,0,uniform,0,0,0,0,24,24,24,0,0,62,62,62,62,62,0,62,0,,,,,,0,,16-02-22,16-02-22,10:42:34,Wed Mar 16 2022 10:42:34 GMT+0100 (közép-európai téli idő),The main experiment item,yes,0,0,C:/Users/rrics/Documents/!!ResearchBMECOGSCI/gnet,0,0,0,prototype2.png,no,mono,no,18,no,black,no,no,768,1200,3.5.6,legacy,xpyriment,osweb,1.3.13,0,space,space,space,,28823,12201,28823,,2,legacy,860,1600,24,900,24,0,0,1600,1647423772614,1024,2,48000,-16,experiment,p5sarr2.png,0,even,Win32,252,124155,121140,252,252,564160,565677,559163,125673,559163,252,,,,,,visual_patterns,0,0,0,yes,1366
undefined,undefined,undefined,undefined,white,no,Mozilla,Netscape,"5.0 (Windows NT 10.0; Win64; x64) AppleWebKit/537.36 (KHTML, like Gecko) Chrome/99.0.4844.51 Safari/537.36",xpyriment,legacy,legacy,0,uniform,0,0,0,0,24,24,24,0,0,63,63,63,63,63,0,63,0,,,,,,0,,16-02-22,16-02-22,10:42:34,Wed Mar 16 2022 10:42:34 GMT+0100 (közép-európai téli idő),The main experiment item,yes,0,0,C:/Users/rrics/Documents/!!ResearchBMECOGSCI/gnet,0,0,0,prototype2.png,no,mono,no,18,no,black,no,no,768,1200,3.5.6,legacy,xpyriment,osweb,1.3.13,0,space,space,space,,28823,12201,28823,,2,legacy,860,1600,24,900,24,0,0,1600,1647423772614,1024,2,48000,-16,experiment,p10sarr2.png,0,even,Win32,252,124155,121140,252,252,570698,572210,565701,125673,565701,252,,,,,,visual_patterns,0,0,0,yes,1366
undefined,undefined,undefined,undefined,white,no,Mozilla,Netscape,"5.0 (Windows NT 10.0; Win64; x64) AppleWebKit/537.36 (KHTML, like Gecko) Chrome/99.0.4844.51 Safari/537.36",xpyriment,legacy,legacy,0,uniform,0,0,0,0,24,24,24,0,0,64,64,64,64,64,0,64,0,,,,,,0,,16-02-22,16-02-22,10:42:34,Wed Mar 16 2022 10:42:34 GMT+0100 (közép-európai téli idő),The main experiment item,yes,0,0,C:/Users/rrics/Documents/!!ResearchBMECOGSCI/gnet,0,0,0,prototype2.png,no,mono,no,18,no,black,no,no,768,1200,3.5.6,legacy,xpyriment,osweb,1.3.13,0,space,space,space,,28823,12201,28823,,2,legacy,860,1600,24,900,24,0,0,1600,1647423772614,1024,2,48000,-16,experiment,prototype1.png,0,even,Win32,252,124155,121140,252,252,577224,578729,572225,125673,572225,252,,,,,,visual_patterns,0,0,0,yes,1366
undefined,undefined,undefined,undefined,white,no,Mozilla,Netscape,"5.0 (Windows NT 10.0; Win64; x64) AppleWebKit/537.36 (KHTML, like Gecko) Chrome/99.0.4844.51 Safari/537.36",xpyriment,legacy,legacy,0,uniform,0,0,0,0,24,24,24,0,0,65,65,65,65,65,0,65,0,,,,,,0,,16-02-22,16-02-22,10:42:34,Wed Mar 16 2022 10:42:34 GMT+0100 (közép-európai téli idő),The main experiment item,yes,0,0,C:/Users/rrics/Documents/!!ResearchBMECOGSCI/gnet,0,0,0,prototype2.png,no,mono,no,18,no,black,no,no,768,1200,3.5.6,legacy,xpyriment,osweb,1.3.13,0,space,space,space,,28823,12201,28823,,2,legacy,860,1600,24,900,24,0,0,1600,1647423772614,1024,2,48000,-16,experiment,prototype4.png,0,even,Win32,252,124155,121140,252,252,583747,585260,578744,125673,578744,252,,,,,,visual_patterns,0,0,0,yes,1366
undefined,undefined,undefined,undefined,white,no,Mozilla,Netscape,"5.0 (Windows NT 10.0; Win64; x64) AppleWebKit/537.36 (KHTML, like Gecko) Chrome/99.0.4844.51 Safari/537.36",xpyriment,legacy,legacy,0,uniform,0,0,0,0,24,24,24,0,0,66,66,66,66,66,0,66,0,,,,,,0,,16-02-22,16-02-22,10:42:34,Wed Mar 16 2022 10:42:34 GMT+0100 (közép-európai téli idő),The main experiment item,yes,0,0,C:/Users/rrics/Documents/!!ResearchBMECOGSCI/gnet,0,0,0,prototype2.png,no,mono,no,18,no,black,no,no,768,1200,3.5.6,legacy,xpyriment,osweb,1.3.13,0,space,space,space,,28823,12201,28823,,2,legacy,860,1600,24,900,24,0,0,1600,1647423772614,1024,2,48000,-16,experiment,p2sarrshacol2.png,0,even,Win32,252,124155,121140,252,252,590276,591780,585279,125673,585279,252,,,,,,visual_patterns,0,0,0,yes,1366
undefined,undefined,undefined,undefined,white,no,Mozilla,Netscape,"5.0 (Windows NT 10.0; Win64; x64) AppleWebKit/537.36 (KHTML, like Gecko) Chrome/99.0.4844.51 Safari/537.36",xpyriment,legacy,legacy,0,uniform,0,0,0,0,24,24,24,0,0,67,67,67,67,67,0,67,0,,,,,,0,,16-02-22,16-02-22,10:42:34,Wed Mar 16 2022 10:42:34 GMT+0100 (közép-európai téli idő),The main experiment item,yes,0,0,C:/Users/rrics/Documents/!!ResearchBMECOGSCI/gnet,0,0,0,prototype2.png,no,mono,no,18,no,black,no,no,768,1200,3.5.6,legacy,xpyriment,osweb,1.3.13,0,space,space,space,,28823,12201,28823,,2,legacy,860,1600,24,900,24,0,0,1600,1647423772614,1024,2,48000,-16,experiment,p1sarr2.png,0,even,Win32,252,124155,121140,252,252,596796,598313,591798,125673,591798,252,,,,,,visual_patterns,0,0,0,yes,1366
undefined,undefined,undefined,undefined,white,no,Mozilla,Netscape,"5.0 (Windows NT 10.0; Win64; x64) AppleWebKit/537.36 (KHTML, like Gecko) Chrome/99.0.4844.51 Safari/537.36",xpyriment,legacy,legacy,0,uniform,0,0,0,0,24,24,24,0,0,68,68,68,68,68,0,68,0,,,,,,0,,16-02-22,16-02-22,10:42:34,Wed Mar 16 2022 10:42:34 GMT+0100 (közép-európai téli idő),The main experiment item,yes,0,0,C:/Users/rrics/Documents/!!ResearchBMECOGSCI/gnet,0,0,0,prototype2.png,no,mono,no,18,no,black,no,no,768,1200,3.5.6,legacy,xpyriment,osweb,1.3.13,0,space,space,space,,28823,12201,28823,,2,legacy,860,1600,24,900,24,0,0,1600,1647423772614,1024,2,48000,-16,experiment,p6sarr2.png,0,even,Win32,252,124155,121140,252,252,603330,604833,598332,125673,598332,252,,,,,,visual_patterns,0,0,0,yes,1366
undefined,undefined,undefined,undefined,white,no,Mozilla,Netscape,"5.0 (Windows NT 10.0; Win64; x64) AppleWebKit/537.36 (KHTML, like Gecko) Chrome/99.0.4844.51 Safari/537.36",xpyriment,legacy,legacy,0,uniform,0,0,0,0,24,24,24,0,0,69,69,69,69,69,0,69,0,,,,,,0,,16-02-22,16-02-22,10:42:34,Wed Mar 16 2022 10:42:34 GMT+0100 (közép-európai téli idő),The main experiment item,yes,0,0,C:/Users/rrics/Documents/!!ResearchBMECOGSCI/gnet,0,0,0,prototype2.png,no,mono,no,18,no,black,no,no,768,1200,3.5.6,legacy,xpyriment,osweb,1.3.13,0,space,space,space,,28823,12201,28823,,2,legacy,860,1600,24,900,24,0,0,1600,1647423772614,1024,2,48000,-16,experiment,prototype2.png,0,even,Win32,252,124155,121140,252,252,609851,611366,604849,125673,604849,252,,,,,,visual_patterns,0,0,0,yes,1366
undefined,undefined,undefined,undefined,white,no,Mozilla,Netscape,"5.0 (Windows NT 10.0; Win64; x64) AppleWebKit/537.36 (KHTML, like Gecko) Chrome/99.0.4844.51 Safari/537.36",xpyriment,legacy,legacy,0,uniform,0,0,0,0,24,24,24,0,0,70,70,70,70,70,0,70,0,,,,,,0,,16-02-22,16-02-22,10:42:34,Wed Mar 16 2022 10:42:34 GMT+0100 (közép-európai téli idő),The main experiment item,yes,0,0,C:/Users/rrics/Documents/!!ResearchBMECOGSCI/gnet,0,0,0,prototype2.png,no,mono,no,18,no,black,no,no,768,1200,3.5.6,legacy,xpyriment,osweb,1.3.13,0,space,space,space,,28823,12201,28823,,2,legacy,860,1600,24,900,24,0,0,1600,1647423772614,1024,2,48000,-16,experiment,p1sarrshacol1.png,0,even,Win32,252,124155,121140,252,252,616384,617899,611384,125673,611384,252,,,,,,visual_patterns,0,0,0,yes,1366
undefined,undefined,undefined,undefined,white,no,Mozilla,Netscape,"5.0 (Windows NT 10.0; Win64; x64) AppleWebKit/537.36 (KHTML, like Gecko) Chrome/99.0.4844.51 Safari/537.36",xpyriment,legacy,legacy,0,uniform,0,0,0,0,24,24,24,0,0,71,71,71,71,71,0,71,0,,,,,,0,,16-02-22,16-02-22,10:42:34,Wed Mar 16 2022 10:42:34 GMT+0100 (közép-európai téli idő),The main experiment item,yes,0,0,C:/Users/rrics/Documents/!!ResearchBMECOGSCI/gnet,0,0,0,prototype2.png,no,mono,no,18,no,black,no,no,768,1200,3.5.6,legacy,xpyriment,osweb,1.3.13,0,space,space,space,,28823,12201,28823,,2,legacy,860,1600,24,900,24,0,0,1600,1647423772614,1024,2,48000,-16,experiment,prototype1.png,0,even,Win32,252,124155,121140,252,252,622914,624421,617915,125673,617915,252,,,,,,visual_patterns,0,0,0,yes,1366
undefined,undefined,undefined,undefined,white,no,Mozilla,Netscape,"5.0 (Windows NT 10.0; Win64; x64) AppleWebKit/537.36 (KHTML, like Gecko) Chrome/99.0.4844.51 Safari/537.36",xpyriment,legacy,legacy,0,uniform,0,0,0,0,24,24,24,0,0,72,72,72,72,72,0,72,0,,,,,,0,,16-02-22,16-02-22,10:42:34,Wed Mar 16 2022 10:42:34 GMT+0100 (közép-európai téli idő),The main experiment item,yes,0,0,C:/Users/rrics/Documents/!!ResearchBMECOGSCI/gnet,0,0,0,prototype2.png,no,mono,no,18,no,black,no,no,768,1200,3.5.6,legacy,xpyriment,osweb,1.3.13,0,space,space,space,,28823,12201,28823,,2,legacy,860,1600,24,900,24,0,0,1600,1647423772614,1024,2,48000,-16,experiment,prototype5.png,0,even,Win32,252,124155,121140,252,252,629439,630952,624437,125673,624436,252,,,,,,visual_patterns,0,0,0,yes,1366
undefined,undefined,undefined,undefined,white,no,Mozilla,Netscape,"5.0 (Windows NT 10.0; Win64; x64) AppleWebKit/537.36 (KHTML, like Gecko) Chrome/99.0.4844.51 Safari/537.36",xpyriment,legacy,legacy,0,uniform,0,0,0,0,24,24,24,0,0,73,73,73,73,73,0,73,0,,,,,,0,,16-02-22,16-02-22,10:42:34,Wed Mar 16 2022 10:42:34 GMT+0100 (közép-európai téli idő),The main experiment item,yes,0,0,C:/Users/rrics/Documents/!!ResearchBMECOGSCI/gnet,0,0,0,prototype2.png,no,mono,no,18,no,black,no,no,768,1200,3.5.6,legacy,xpyriment,osweb,1.3.13,0,space,space,space,,28823,12201,28823,,2,legacy,860,1600,24,900,24,0,0,1600,1647423772614,1024,2,48000,-16,experiment,prototype3.png,0,even,Win32,252,124155,121140,252,252,635970,637475,630969,125673,630969,252,,,,,,visual_patterns,0,0,0,yes,1366
undefined,undefined,undefined,undefined,white,no,Mozilla,Netscape,"5.0 (Windows NT 10.0; Win64; x64) AppleWebKit/537.36 (KHTML, like Gecko) Chrome/99.0.4844.51 Safari/537.36",xpyriment,legacy,legacy,0,uniform,0,0,0,0,24,24,24,0,0,74,74,74,74,74,0,74,0,,,,,,0,,16-02-22,16-02-22,10:42:34,Wed Mar 16 2022 10:42:34 GMT+0100 (közép-európai téli idő),The main experiment item,yes,0,0,C:/Users/rrics/Documents/!!ResearchBMECOGSCI/gnet,0,0,0,prototype2.png,no,mono,no,18,no,black,no,no,768,1200,3.5.6,legacy,xpyriment,osweb,1.3.13,0,space,space,space,,28823,12201,28823,,2,legacy,860,1600,24,900,24,0,0,1600,1647423772614,1024,2,48000,-16,experiment,prototype2.png,0,even,Win32,252,124155,121140,252,252,642494,644006,637490,125673,637490,252,,,,,,visual_patterns,0,0,0,yes,1366
undefined,undefined,undefined,undefined,white,no,Mozilla,Netscape,"5.0 (Windows NT 10.0; Win64; x64) AppleWebKit/537.36 (KHTML, like Gecko) Chrome/99.0.4844.51 Safari/537.36",xpyriment,legacy,legacy,0,uniform,0,0,0,0,24,24,24,0,0,74,74,74,74,74,0,74,0,0,0,0,0,0,0,0,16-02-22,16-02-22,10:42:34,Wed Mar 16 2022 10:42:34 GMT+0100 (közép-európai téli idő),The main experiment item,yes,0,0,C:/Users/rrics/Documents/!!ResearchBMECOGSCI/gnet,0,0,0,prototype2.png,no,mono,no,18,no,black,no,no,768,1200,3.5.6,legacy,xpyriment,osweb,1.3.13,0,space,space,space,space,624026,12201,28823,624026,2,legacy,860,1600,24,900,24,0,0,1600,1647423772614,1024,2,48000,-16,experiment,p5sarrsha3.png,0,even,Win32,252,124155,121140,252,252,642494,644006,637490,125673,637490,252,1271089,1272594,1268093,644013,1268093,visual_patterns,0,0,0,yes,1366
undefined,undefined,undefined,undefined,white,no,Mozilla,Netscape,"5.0 (Windows NT 10.0; Win64; x64) AppleWebKit/537.36 (KHTML, like Gecko) Chrome/99.0.4844.51 Safari/537.36",xpyriment,legacy,legacy,0,uniform,0,0,0,0,24,24,24,0,0,74,74,74,74,74,0,74,0,1,1,1,1,1,0,1,16-02-22,16-02-22,10:42:34,Wed Mar 16 2022 10:42:34 GMT+0100 (közép-európai téli idő),The main experiment item,yes,0,0,C:/Users/rrics/Documents/!!ResearchBMECOGSCI/gnet,0,0,0,prototype2.png,no,mono,no,18,no,black,no,no,768,1200,3.5.6,legacy,xpyriment,osweb,1.3.13,0,space,space,space,space,624026,12201,28823,624026,2,legacy,860,1600,24,900,24,0,0,1600,1647423772614,1024,2,48000,-16,experiment,p2sarrshacol1.png,0,even,Win32,252,124155,121140,252,252,642494,644006,637490,125673,637490,252,1275613,1277128,1272613,644013,1272613,visual_patterns,0,0,0,yes,1366
undefined,undefined,undefined,undefined,white,no,Mozilla,Netscape,"5.0 (Windows NT 10.0; Win64; x64) AppleWebKit/537.36 (KHTML, like Gecko) Chrome/99.0.4844.51 Safari/537.36",xpyriment,legacy,legacy,0,uniform,0,0,0,0,24,24,24,0,0,74,74,74,74,74,0,74,0,2,2,2,2,2,0,2,16-02-22,16-02-22,10:42:34,Wed Mar 16 2022 10:42:34 GMT+0100 (közép-európai téli idő),The main experiment item,yes,0,0,C:/Users/rrics/Documents/!!ResearchBMECOGSCI/gnet,0,0,0,prototype2.png,no,mono,no,18,no,black,no,no,768,1200,3.5.6,legacy,xpyriment,osweb,1.3.13,0,space,space,space,space,624026,12201,28823,624026,2,legacy,860,1600,24,900,24,0,0,1600,1647423772614,1024,2,48000,-16,experiment,p4sarr4.png,0,even,Win32,252,124155,121140,252,252,642494,644006,637490,125673,637490,252,1280146,1281662,1277150,644013,1277150,visual_patterns,0,0,0,yes,1366
undefined,undefined,undefined,undefined,white,no,Mozilla,Netscape,"5.0 (Windows NT 10.0; Win64; x64) AppleWebKit/537.36 (KHTML, like Gecko) Chrome/99.0.4844.51 Safari/537.36",xpyriment,legacy,legacy,0,uniform,0,0,0,0,24,24,24,0,0,74,74,74,74,74,0,74,0,3,3,3,3,3,0,3,16-02-22,16-02-22,10:42:34,Wed Mar 16 2022 10:42:34 GMT+0100 (közép-európai téli idő),The main experiment item,yes,0,0,C:/Users/rrics/Documents/!!ResearchBMECOGSCI/gnet,0,0,0,prototype2.png,no,mono,no,18,no,black,no,no,768,1200,3.5.6,legacy,xpyriment,osweb,1.3.13,0,space,space,space,space,624026,12201,28823,624026,2,legacy,860,1600,24,900,24,0,0,1600,1647423772614,1024,2,48000,-16,experiment,p5sarrsha2.png,0,even,Win32,252,124155,121140,252,252,642494,644006,637490,125673,637490,252,1284684,1286186,1281681,644013,1281681,visual_patterns,0,0,0,yes,1366
undefined,undefined,undefined,undefined,white,no,Mozilla,Netscape,"5.0 (Windows NT 10.0; Win64; x64) AppleWebKit/537.36 (KHTML, like Gecko) Chrome/99.0.4844.51 Safari/537.36",xpyriment,legacy,legacy,0,uniform,0,0,0,0,24,24,24,0,0,74,74,74,74,74,0,74,0,4,4,4,4,4,0,4,16-02-22,16-02-22,10:42:34,Wed Mar 16 2022 10:42:34 GMT+0100 (közép-európai téli idő),The main experiment item,yes,0,0,C:/Users/rrics/Documents/!!ResearchBMECOGSCI/gnet,0,0,0,prototype2.png,no,mono,no,18,no,black,no,no,768,1200,3.5.6,legacy,xpyriment,osweb,1.3.13,0,space,space,space,space,624026,12201,28823,624026,2,legacy,860,1600,24,900,24,0,0,1600,1647423772614,1024,2,48000,-16,experiment,p7sarr2.png,0,even,Win32,252,124155,121140,252,252,642494,644006,637490,125673,637490,252,1289210,1290722,1286207,644013,1286207,visual_patterns,0,0,0,yes,1366
undefined,undefined,undefined,undefined,white,no,Mozilla,Netscape,"5.0 (Windows NT 10.0; Win64; x64) AppleWebKit/537.36 (KHTML, like Gecko) Chrome/99.0.4844.51 Safari/537.36",xpyriment,legacy,legacy,0,uniform,0,0,0,0,24,24,24,0,0,74,74,74,74,74,0,74,0,5,5,5,5,5,0,5,16-02-22,16-02-22,10:42:34,Wed Mar 16 2022 10:42:34 GMT+0100 (közép-európai téli idő),The main experiment item,yes,0,0,C:/Users/rrics/Documents/!!ResearchBMECOGSCI/gnet,0,0,0,prototype2.png,no,mono,no,18,no,black,no,no,768,1200,3.5.6,legacy,xpyriment,osweb,1.3.13,0,space,space,space,space,624026,12201,28823,624026,2,legacy,860,1600,24,900,24,0,0,1600,1647423772614,1024,2,48000,-16,experiment,p1sarrsha4.png,0,even,Win32,252,124155,121140,252,252,642494,644006,637490,125673,637490,252,1293742,1295255,1290744,644013,1290744,visual_patterns,0,0,0,yes,1366
undefined,undefined,undefined,undefined,white,no,Mozilla,Netscape,"5.0 (Windows NT 10.0; Win64; x64) AppleWebKit/537.36 (KHTML, like Gecko) Chrome/99.0.4844.51 Safari/537.36",xpyriment,legacy,legacy,0,uniform,0,0,0,0,24,24,24,0,0,74,74,74,74,74,0,74,0,6,6,6,6,6,0,6,16-02-22,16-02-22,10:42:34,Wed Mar 16 2022 10:42:34 GMT+0100 (közép-európai téli idő),The main experiment item,yes,0,0,C:/Users/rrics/Documents/!!ResearchBMECOGSCI/gnet,0,0,0,prototype2.png,no,mono,no,18,no,black,no,no,768,1200,3.5.6,legacy,xpyriment,osweb,1.3.13,0,space,space,space,space,624026,12201,28823,624026,2,legacy,860,1600,24,900,24,0,0,1600,1647423772614,1024,2,48000,-16,experiment,p3sarrcol2.png,0,even,Win32,252,124155,121140,252,252,642494,644006,637490,125673,637490,252,1298275,1299791,1295273,644013,1295273,visual_patterns,0,0,0,yes,1366
undefined,undefined,undefined,undefined,white,no,Mozilla,Netscape,"5.0 (Windows NT 10.0; Win64; x64) AppleWebKit/537.36 (KHTML, like Gecko) Chrome/99.0.4844.51 Safari/537.36",xpyriment,legacy,legacy,0,uniform,0,0,0,0,24,24,24,0,0,74,74,74,74,74,0,74,0,7,7,7,7,7,0,7,16-02-22,16-02-22,10:42:34,Wed Mar 16 2022 10:42:34 GMT+0100 (közép-európai téli idő),The main experiment item,yes,0,0,C:/Users/rrics/Documents/!!ResearchBMECOGSCI/gnet,0,0,0,prototype2.png,no,mono,no,18,no,black,no,no,768,1200,3.5.6,legacy,xpyriment,osweb,1.3.13,0,space,space,space,space,624026,12201,28823,624026,2,legacy,860,1600,24,900,24,0,0,1600,1647423772614,1024,2,48000,-16,experiment,p3sarrcol3.png,0,even,Win32,252,124155,121140,252,252,642494,644006,637490,125673,637490,252,1302809,1304326,1299813,644013,1299813,visual_patterns,0,0,0,yes,1366
undefined,undefined,undefined,undefined,white,no,Mozilla,Netscape,"5.0 (Windows NT 10.0; Win64; x64) AppleWebKit/537.36 (KHTML, like Gecko) Chrome/99.0.4844.51 Safari/537.36",xpyriment,legacy,legacy,0,uniform,0,0,0,0,24,24,24,0,0,74,74,74,74,74,0,74,0,8,8,8,8,8,0,8,16-02-22,16-02-22,10:42:34,Wed Mar 16 2022 10:42:34 GMT+0100 (közép-európai téli idő),The main experiment item,yes,0,0,C:/Users/rrics/Documents/!!ResearchBMECOGSCI/gnet,0,0,0,prototype2.png,no,mono,no,18,no,black,no,no,768,1200,3.5.6,legacy,xpyriment,osweb,1.3.13,0,space,space,space,space,624026,12201,28823,624026,2,legacy,860,1600,24,900,24,0,0,1600,1647423772614,1024,2,48000,-16,experiment,p1sarrsha1.png,0,even,Win32,252,124155,121140,252,252,642494,644006,637490,125673,637490,252,1307346,1308860,1304345,644013,1304345,visual_patterns,0,0,0,yes,1366
undefined,undefined,undefined,undefined,white,no,Mozilla,Netscape,"5.0 (Windows NT 10.0; Win64; x64) AppleWebKit/537.36 (KHTML, like Gecko) Chrome/99.0.4844.51 Safari/537.36",xpyriment,legacy,legacy,0,uniform,0,0,0,0,24,24,24,0,0,74,74,74,74,74,0,74,0,9,9,9,9,9,0,9,16-02-22,16-02-22,10:42:34,Wed Mar 16 2022 10:42:34 GMT+0100 (közép-európai téli idő),The main experiment item,yes,0,0,C:/Users/rrics/Documents/!!ResearchBMECOGSCI/gnet,0,0,0,prototype2.png,no,mono,no,18,no,black,no,no,768,1200,3.5.6,legacy,xpyriment,osweb,1.3.13,0,space,space,space,space,624026,12201,28823,624026,2,legacy,860,1600,24,900,24,0,0,1600,1647423772614,1024,2,48000,-16,experiment,p4sarr1.png,0,even,Win32,252,124155,121140,252,252,642494,644006,637490,125673,637490,252,1311880,1313384,1308880,644013,1308880,visual_patterns,0,0,0,yes,1366
undefined,undefined,undefined,undefined,white,no,Mozilla,Netscape,"5.0 (Windows NT 10.0; Win64; x64) AppleWebKit/537.36 (KHTML, like Gecko) Chrome/99.0.4844.51 Safari/537.36",xpyriment,legacy,legacy,0,uniform,0,0,0,0,24,24,24,0,0,74,74,74,74,74,0,74,0,10,10,10,10,10,0,10,16-02-22,16-02-22,10:42:34,Wed Mar 16 2022 10:42:34 GMT+0100 (közép-európai téli idő),The main experiment item,yes,0,0,C:/Users/rrics/Documents/!!ResearchBMECOGSCI/gnet,0,0,0,prototype2.png,no,mono,no,18,no,black,no,no,768,1200,3.5.6,legacy,xpyriment,osweb,1.3.13,0,space,space,space,space,624026,12201,28823,624026,2,legacy,860,1600,24,900,24,0,0,1600,1647423772614,1024,2,48000,-16,experiment,p9sarr2.png,0,even,Win32,252,124155,121140,252,252,642494,644006,637490,125673,637490,252,1316409,1317918,1313406,644013,1313406,visual_patterns,0,0,0,yes,1366
undefined,undefined,undefined,undefined,white,no,Mozilla,Netscape,"5.0 (Windows NT 10.0; Win64; x64) AppleWebKit/537.36 (KHTML, like Gecko) Chrome/99.0.4844.51 Safari/537.36",xpyriment,legacy,legacy,0,uniform,0,0,0,0,24,24,24,0,0,74,74,74,74,74,0,74,0,11,11,11,11,11,0,11,16-02-22,16-02-22,10:42:34,Wed Mar 16 2022 10:42:34 GMT+0100 (közép-európai téli idő),The main experiment item,yes,0,0,C:/Users/rrics/Documents/!!ResearchBMECOGSCI/gnet,0,0,0,prototype2.png,no,mono,no,18,no,black,no,no,768,1200,3.5.6,legacy,xpyriment,osweb,1.3.13,0,space,space,space,space,624026,12201,28823,624026,2,legacy,860,1600,24,900,24,0,0,1600,1647423772614,1024,2,48000,-16,experiment,p1sarr2.png,0,even,Win32,252,124155,121140,252,252,642494,644006,637490,125673,637490,252,1320939,1322444,1317936,644013,1317936,visual_patterns,0,0,0,yes,1366
undefined,undefined,undefined,undefined,white,no,Mozilla,Netscape,"5.0 (Windows NT 10.0; Win64; x64) AppleWebKit/537.36 (KHTML, like Gecko) Chrome/99.0.4844.51 Safari/537.36",xpyriment,legacy,legacy,0,uniform,0,0,0,0,24,24,24,0,0,74,74,74,74,74,0,74,0,12,12,12,12,12,0,12,16-02-22,16-02-22,10:42:34,Wed Mar 16 2022 10:42:34 GMT+0100 (közép-európai téli idő),The main experiment item,yes,0,0,C:/Users/rrics/Documents/!!ResearchBMECOGSCI/gnet,0,0,0,prototype2.png,no,mono,no,18,no,black,no,no,768,1200,3.5.6,legacy,xpyriment,osweb,1.3.13,0,space,space,space,space,624026,12201,28823,624026,2,legacy,860,1600,24,900,24,0,0,1600,1647423772614,1024,2,48000,-16,experiment,p3sarrcol4.png,0,even,Win32,252,124155,121140,252,252,642494,644006,637490,125673,637490,252,1325463,1326967,1322466,644013,1322466,visual_patterns,0,0,0,yes,1366
undefined,undefined,undefined,undefined,white,no,Mozilla,Netscape,"5.0 (Windows NT 10.0; Win64; x64) AppleWebKit/537.36 (KHTML, like Gecko) Chrome/99.0.4844.51 Safari/537.36",xpyriment,legacy,legacy,0,uniform,0,0,0,0,24,24,24,0,0,74,74,74,74,74,0,74,0,13,13,13,13,13,0,13,16-02-22,16-02-22,10:42:34,Wed Mar 16 2022 10:42:34 GMT+0100 (közép-európai téli idő),The main experiment item,yes,0,0,C:/Users/rrics/Documents/!!ResearchBMECOGSCI/gnet,0,0,0,prototype2.png,no,mono,no,18,no,black,no,no,768,1200,3.5.6,legacy,xpyriment,osweb,1.3.13,0,space,space,space,space,624026,12201,28823,624026,2,legacy,860,1600,24,900,24,0,0,1600,1647423772614,1024,2,48000,-16,experiment,p2sarrshacol2.png,0,even,Win32,252,124155,121140,252,252,642494,644006,637490,125673,637490,252,1329986,1331494,1326988,644013,1326988,visual_patterns,0,0,0,yes,1366
undefined,undefined,undefined,undefined,white,no,Mozilla,Netscape,"5.0 (Windows NT 10.0; Win64; x64) AppleWebKit/537.36 (KHTML, like Gecko) Chrome/99.0.4844.51 Safari/537.36",xpyriment,legacy,legacy,0,uniform,0,0,0,0,24,24,24,0,0,74,74,74,74,74,0,74,0,14,14,14,14,14,0,14,16-02-22,16-02-22,10:42:34,Wed Mar 16 2022 10:42:34 GMT+0100 (közép-európai téli idő),The main experiment item,yes,0,0,C:/Users/rrics/Documents/!!ResearchBMECOGSCI/gnet,0,0,0,prototype2.png,no,mono,no,18,no,black,no,no,768,1200,3.5.6,legacy,xpyriment,osweb,1.3.13,0,space,space,space,space,624026,12201,28823,624026,2,legacy,860,1600,24,900,24,0,0,1600,1647423772614,1024,2,48000,-16,experiment,p6sarr1.png,0,even,Win32,252,124155,121140,252,252,642494,644006,637490,125673,637490,252,1334515,1336030,1331513,644013,1331513,visual_patterns,0,0,0,yes,1366
undefined,undefined,undefined,undefined,white,no,Mozilla,Netscape,"5.0 (Windows NT 10.0; Win64; x64) AppleWebKit/537.36 (KHTML, like Gecko) Chrome/99.0.4844.51 Safari/537.36",xpyriment,legacy,legacy,0,uniform,0,0,0,0,24,24,24,0,0,74,74,74,74,74,0,74,0,15,15,15,15,15,0,15,16-02-22,16-02-22,10:42:34,Wed Mar 16 2022 10:42:34 GMT+0100 (közép-európai téli idő),The main experiment item,yes,0,0,C:/Users/rrics/Documents/!!ResearchBMECOGSCI/gnet,0,0,0,prototype2.png,no,mono,no,18,no,black,no,no,768,1200,3.5.6,legacy,xpyriment,osweb,1.3.13,0,space,space,space,space,624026,12201,28823,624026,2,legacy,860,1600,24,900,24,0,0,1600,1647423772614,1024,2,48000,-16,experiment,p4sarrshacol3.png,0,even,Win32,252,124155,121140,252,252,642494,644006,637490,125673,637490,252,1339051,1340555,1336053,644013,1336053,visual_patterns,0,0,0,yes,1366
undefined,undefined,undefined,undefined,white,no,Mozilla,Netscape,"5.0 (Windows NT 10.0; Win64; x64) AppleWebKit/537.36 (KHTML, like Gecko) Chrome/99.0.4844.51 Safari/537.36",xpyriment,legacy,legacy,0,uniform,0,0,0,0,24,24,24,0,0,74,74,74,74,74,0,74,0,16,16,16,16,16,0,16,16-02-22,16-02-22,10:42:34,Wed Mar 16 2022 10:42:34 GMT+0100 (közép-európai téli idő),The main experiment item,yes,0,0,C:/Users/rrics/Documents/!!ResearchBMECOGSCI/gnet,0,0,0,prototype2.png,no,mono,no,18,no,black,no,no,768,1200,3.5.6,legacy,xpyriment,osweb,1.3.13,0,space,space,space,space,624026,12201,28823,624026,2,legacy,860,1600,24,900,24,0,0,1600,1647423772614,1024,2,48000,-16,experiment,p4sarrshacol4.png,0,even,Win32,252,124155,121140,252,252,642494,644006,637490,125673,637490,252,1343574,1345090,1340578,644013,1340578,visual_patterns,0,0,0,yes,1366
undefined,undefined,undefined,undefined,white,no,Mozilla,Netscape,"5.0 (Windows NT 10.0; Win64; x64) AppleWebKit/537.36 (KHTML, like Gecko) Chrome/99.0.4844.51 Safari/537.36",xpyriment,legacy,legacy,0,uniform,0,0,0,0,24,24,24,0,0,74,74,74,74,74,0,74,0,17,17,17,17,17,0,17,16-02-22,16-02-22,10:42:34,Wed Mar 16 2022 10:42:34 GMT+0100 (közép-európai téli idő),The main experiment item,yes,0,0,C:/Users/rrics/Documents/!!ResearchBMECOGSCI/gnet,0,0,0,prototype2.png,no,mono,no,18,no,black,no,no,768,1200,3.5.6,legacy,xpyriment,osweb,1.3.13,0,space,space,space,space,624026,12201,28823,624026,2,legacy,860,1600,24,900,24,0,0,1600,1647423772614,1024,2,48000,-16,experiment,p2sarrcol1.png,0,even,Win32,252,124155,121140,252,252,642494,644006,637490,125673,637490,252,1348108,1349621,1345109,644013,1345109,visual_patterns,0,0,0,yes,1366
undefined,undefined,undefined,undefined,white,no,Mozilla,Netscape,"5.0 (Windows NT 10.0; Win64; x64) AppleWebKit/537.36 (KHTML, like Gecko) Chrome/99.0.4844.51 Safari/537.36",xpyriment,legacy,legacy,0,uniform,0,0,0,0,24,24,24,0,0,74,74,74,74,74,0,74,0,18,18,18,18,18,0,18,16-02-22,16-02-22,10:42:34,Wed Mar 16 2022 10:42:34 GMT+0100 (közép-európai téli idő),The main experiment item,yes,0,0,C:/Users/rrics/Documents/!!ResearchBMECOGSCI/gnet,0,0,0,prototype2.png,no,mono,no,18,no,black,no,no,768,1200,3.5.6,legacy,xpyriment,osweb,1.3.13,0,space,space,space,space,624026,12201,28823,624026,2,legacy,860,1600,24,900,24,0,0,1600,1647423772614,1024,2,48000,-16,experiment,p1sarr4.png,0,even,Win32,252,124155,121140,252,252,642494,644006,637490,125673,637490,252,1352638,1354148,1349643,644013,1349643,visual_patterns,0,0,0,yes,1366
undefined,undefined,undefined,undefined,white,no,Mozilla,Netscape,"5.0 (Windows NT 10.0; Win64; x64) AppleWebKit/537.36 (KHTML, like Gecko) Chrome/99.0.4844.51 Safari/537.36",xpyriment,legacy,legacy,0,uniform,0,0,0,0,24,24,24,0,0,74,74,74,74,74,0,74,0,19,19,19,19,19,0,19,16-02-22,16-02-22,10:42:34,Wed Mar 16 2022 10:42:34 GMT+0100 (közép-európai téli idő),The main experiment item,yes,0,0,C:/Users/rrics/Documents/!!ResearchBMECOGSCI/gnet,0,0,0,prototype2.png,no,mono,no,18,no,black,no,no,768,1200,3.5.6,legacy,xpyriment,osweb,1.3.13,0,space,space,space,space,624026,12201,28823,624026,2,legacy,860,1600,24,900,24,0,0,1600,1647423772614,1024,2,48000,-16,experiment,p10sarr1.png,0,even,Win32,252,124155,121140,252,252,642494,644006,637490,125673,637490,252,1357171,1358682,1354168,644013,1354167,visual_patterns,0,0,0,yes,1366
undefined,undefined,undefined,undefined,white,no,Mozilla,Netscape,"5.0 (Windows NT 10.0; Win64; x64) AppleWebKit/537.36 (KHTML, like Gecko) Chrome/99.0.4844.51 Safari/537.36",xpyriment,legacy,legacy,0,uniform,0,0,0,0,24,24,24,0,0,74,74,74,74,74,0,74,0,20,20,20,20,20,0,20,16-02-22,16-02-22,10:42:34,Wed Mar 16 2022 10:42:34 GMT+0100 (közép-európai téli idő),The main experiment item,yes,0,0,C:/Users/rrics/Documents/!!ResearchBMECOGSCI/gnet,0,0,0,prototype2.png,no,mono,no,18,no,black,no,no,768,1200,3.5.6,legacy,xpyriment,osweb,1.3.13,0,space,space,space,space,624026,12201,28823,624026,2,legacy,860,1600,24,900,24,0,0,1600,1647423772614,1024,2,48000,-16,experiment,p8sarr3.png,0,even,Win32,252,124155,121140,252,252,642494,644006,637490,125673,637490,252,1361704,1363209,1358706,644013,1358706,visual_patterns,0,0,0,yes,1366
undefined,undefined,undefined,undefined,white,no,Mozilla,Netscape,"5.0 (Windows NT 10.0; Win64; x64) AppleWebKit/537.36 (KHTML, like Gecko) Chrome/99.0.4844.51 Safari/537.36",xpyriment,legacy,legacy,0,uniform,0,0,0,0,24,24,24,0,0,74,74,74,74,74,0,74,0,21,21,21,21,21,0,21,16-02-22,16-02-22,10:42:34,Wed Mar 16 2022 10:42:34 GMT+0100 (közép-európai téli idő),The main experiment item,yes,0,0,C:/Users/rrics/Documents/!!ResearchBMECOGSCI/gnet,0,0,0,prototype2.png,no,mono,no,18,no,black,no,no,768,1200,3.5.6,legacy,xpyriment,osweb,1.3.13,0,space,space,space,space,624026,12201,28823,624026,2,legacy,860,1600,24,900,24,0,0,1600,1647423772614,1024,2,48000,-16,experiment,p9sarr4.png,0,even,Win32,252,124155,121140,252,252,642494,644006,637490,125673,637490,252,1366231,1367743,1363248,644013,1363248,visual_patterns,0,0,0,yes,1366
undefined,undefined,undefined,undefined,white,no,Mozilla,Netscape,"5.0 (Windows NT 10.0; Win64; x64) AppleWebKit/537.36 (KHTML, like Gecko) Chrome/99.0.4844.51 Safari/537.36",xpyriment,legacy,legacy,0,uniform,0,0,0,0,24,24,24,0,0,74,74,74,74,74,0,74,0,22,22,22,22,22,0,22,16-02-22,16-02-22,10:42:34,Wed Mar 16 2022 10:42:34 GMT+0100 (közép-európai téli idő),The main experiment item,yes,0,0,C:/Users/rrics/Documents/!!ResearchBMECOGSCI/gnet,0,0,0,prototype2.png,no,mono,no,18,no,black,no,no,768,1200,3.5.6,legacy,xpyriment,osweb,1.3.13,0,space,space,space,space,624026,12201,28823,624026,2,legacy,860,1600,24,900,24,0,0,1600,1647423772614,1024,2,48000,-16,experiment,p5sarrcol2.png,0,even,Win32,252,124155,121140,252,252,642494,644006,637490,125673,637490,252,1370768,1372272,1367768,644013,1367768,visual_patterns,0,0,0,yes,1366
undefined,undefined,undefined,undefined,white,no,Mozilla,Netscape,"5.0 (Windows NT 10.0; Win64; x64) AppleWebKit/537.36 (KHTML, like Gecko) Chrome/99.0.4844.51 Safari/537.36",xpyriment,legacy,legacy,0,uniform,0,0,0,0,24,24,24,0,0,74,74,74,74,74,0,74,0,23,23,23,23,23,0,23,16-02-22,16-02-22,10:42:34,Wed Mar 16 2022 10:42:34 GMT+0100 (közép-európai téli idő),The main experiment item,yes,0,0,C:/Users/rrics/Documents/!!ResearchBMECOGSCI/gnet,0,0,0,prototype2.png,no,mono,no,18,no,black,no,no,768,1200,3.5.6,legacy,xpyriment,osweb,1.3.13,0,space,space,space,space,624026,12201,28823,624026,2,legacy,860,1600,24,900,24,0,0,1600,1647423772614,1024,2,48000,-16,experiment,p7sarr4.png,0,even,Win32,252,124155,121140,252,252,642494,644006,637490,125673,637490,252,1375290,1376804,1372294,644013,1372294,visual_patterns,0,0,0,yes,1366
undefined,undefined,undefined,undefined,white,no,Mozilla,Netscape,"5.0 (Windows NT 10.0; Win64; x64) AppleWebKit/537.36 (KHTML, like Gecko) Chrome/99.0.4844.51 Safari/537.36",xpyriment,legacy,legacy,0,uniform,0,0,0,0,24,24,24,0,0,74,74,74,74,74,0,74,0,24,24,24,24,24,0,24,16-02-22,16-02-22,10:42:34,Wed Mar 16 2022 10:42:34 GMT+0100 (közép-európai téli idő),The main experiment item,yes,0,0,C:/Users/rrics/Documents/!!ResearchBMECOGSCI/gnet,0,0,0,prototype2.png,no,mono,no,18,no,black,no,no,768,1200,3.5.6,legacy,xpyriment,osweb,1.3.13,0,space,space,space,space,624026,12201,28823,624026,2,legacy,860,1600,24,900,24,0,0,1600,1647423772614,1024,2,48000,-16,experiment,p3sarrsha3.png,0,even,Win32,252,124155,121140,252,252,642494,644006,637490,125673,637490,252,1379825,1381338,1376827,644013,1376827,visual_patterns,0,0,0,yes,1366
undefined,undefined,undefined,undefined,white,no,Mozilla,Netscape,"5.0 (Windows NT 10.0; Win64; x64) AppleWebKit/537.36 (KHTML, like Gecko) Chrome/99.0.4844.51 Safari/537.36",xpyriment,legacy,legacy,0,uniform,0,0,0,0,24,24,24,0,0,74,74,74,74,74,0,74,0,25,25,25,25,25,0,25,16-02-22,16-02-22,10:42:34,Wed Mar 16 2022 10:42:34 GMT+0100 (közép-európai téli idő),The main experiment item,yes,0,0,C:/Users/rrics/Documents/!!ResearchBMECOGSCI/gnet,0,0,0,prototype2.png,no,mono,no,18,no,black,no,no,768,1200,3.5.6,legacy,xpyriment,osweb,1.3.13,0,space,space,space,space,624026,12201,28823,624026,2,legacy,860,1600,24,900,24,0,0,1600,1647423772614,1024,2,48000,-16,experiment,p8sarr4.png,0,even,Win32,252,124155,121140,252,252,642494,644006,637490,125673,637490,252,1384359,1385871,1381361,644013,1381361,visual_patterns,0,0,0,yes,1366
undefined,undefined,undefined,undefined,white,no,Mozilla,Netscape,"5.0 (Windows NT 10.0; Win64; x64) AppleWebKit/537.36 (KHTML, like Gecko) Chrome/99.0.4844.51 Safari/537.36",xpyriment,legacy,legacy,0,uniform,0,0,0,0,24,24,24,0,0,74,74,74,74,74,0,74,0,26,26,26,26,26,0,26,16-02-22,16-02-22,10:42:34,Wed Mar 16 2022 10:42:34 GMT+0100 (közép-európai téli idő),The main experiment item,yes,0,0,C:/Users/rrics/Documents/!!ResearchBMECOGSCI/gnet,0,0,0,prototype2.png,no,mono,no,18,no,black,no,no,768,1200,3.5.6,legacy,xpyriment,osweb,1.3.13,0,space,space,space,space,624026,12201,28823,624026,2,legacy,860,1600,24,900,24,0,0,1600,1647423772614,1024,2,48000,-16,experiment,p2sarrshacol4.png,0,even,Win32,252,124155,121140,252,252,642494,644006,637490,125673,637490,252,1388888,1390396,1385892,644013,1385892,visual_patterns,0,0,0,yes,1366
undefined,undefined,undefined,undefined,white,no,Mozilla,Netscape,"5.0 (Windows NT 10.0; Win64; x64) AppleWebKit/537.36 (KHTML, like Gecko) Chrome/99.0.4844.51 Safari/537.36",xpyriment,legacy,legacy,0,uniform,0,0,0,0,24,24,24,0,0,74,74,74,74,74,0,74,0,27,27,27,27,27,0,27,16-02-22,16-02-22,10:42:34,Wed Mar 16 2022 10:42:34 GMT+0100 (közép-európai téli idő),The main experiment item,yes,0,0,C:/Users/rrics/Documents/!!ResearchBMECOGSCI/gnet,0,0,0,prototype2.png,no,mono,no,18,no,black,no,no,768,1200,3.5.6,legacy,xpyriment,osweb,1.3.13,0,space,space,space,space,624026,12201,28823,624026,2,legacy,860,1600,24,900,24,0,0,1600,1647423772614,1024,2,48000,-16,experiment,p4sarrshacol1.png,0,even,Win32,252,124155,121140,252,252,642494,644006,637490,125673,637490,252,1393416,1394931,1390416,644013,1390416,visual_patterns,0,0,0,yes,1366
undefined,undefined,undefined,undefined,white,no,Mozilla,Netscape,"5.0 (Windows NT 10.0; Win64; x64) AppleWebKit/537.36 (KHTML, like Gecko) Chrome/99.0.4844.51 Safari/537.36",xpyriment,legacy,legacy,0,uniform,0,0,0,0,24,24,24,0,0,74,74,74,74,74,0,74,0,28,28,28,28,28,0,28,16-02-22,16-02-22,10:42:34,Wed Mar 16 2022 10:42:34 GMT+0100 (közép-európai téli idő),The main experiment item,yes,0,0,C:/Users/rrics/Documents/!!ResearchBMECOGSCI/gnet,0,0,0,prototype2.png,no,mono,no,18,no,black,no,no,768,1200,3.5.6,legacy,xpyriment,osweb,1.3.13,0,space,space,space,space,624026,12201,28823,624026,2,legacy,860,1600,24,900,24,0,0,1600,1647423772614,1024,2,48000,-16,experiment,p1sarrshacol3.png,0,even,Win32,252,124155,121140,252,252,642494,644006,637490,125673,637490,252,1397950,1399465,1394952,644013,1394952,visual_patterns,0,0,0,yes,1366
undefined,undefined,undefined,undefined,white,no,Mozilla,Netscape,"5.0 (Windows NT 10.0; Win64; x64) AppleWebKit/537.36 (KHTML, like Gecko) Chrome/99.0.4844.51 Safari/537.36",xpyriment,legacy,legacy,0,uniform,0,0,0,0,24,24,24,0,0,74,74,74,74,74,0,74,0,29,29,29,29,29,0,29,16-02-22,16-02-22,10:42:34,Wed Mar 16 2022 10:42:34 GMT+0100 (közép-európai téli idő),The main experiment item,yes,0,0,C:/Users/rrics/Documents/!!ResearchBMECOGSCI/gnet,0,0,0,prototype2.png,no,mono,no,18,no,black,no,no,768,1200,3.5.6,legacy,xpyriment,osweb,1.3.13,0,space,space,space,space,624026,12201,28823,624026,2,legacy,860,1600,24,900,24,0,0,1600,1647423772614,1024,2,48000,-16,experiment,p2sarrsha1.png,0,even,Win32,252,124155,121140,252,252,642494,644006,637490,125673,637490,252,1402486,1403995,1399485,644013,1399485,visual_patterns,0,0,0,yes,1366
undefined,undefined,undefined,undefined,white,no,Mozilla,Netscape,"5.0 (Windows NT 10.0; Win64; x64) AppleWebKit/537.36 (KHTML, like Gecko) Chrome/99.0.4844.51 Safari/537.36",xpyriment,legacy,legacy,0,uniform,0,0,0,0,24,24,24,0,0,74,74,74,74,74,0,74,0,30,30,30,30,30,0,30,16-02-22,16-02-22,10:42:34,Wed Mar 16 2022 10:42:34 GMT+0100 (közép-európai téli idő),The main experiment item,yes,0,0,C:/Users/rrics/Documents/!!ResearchBMECOGSCI/gnet,0,0,0,prototype2.png,no,mono,no,18,no,black,no,no,768,1200,3.5.6,legacy,xpyriment,osweb,1.3.13,0,space,space,space,space,624026,12201,28823,624026,2,legacy,860,1600,24,900,24,0,0,1600,1647423772614,1024,2,48000,-16,experiment,p3sarr2.png,0,even,Win32,252,124155,121140,252,252,642494,644006,637490,125673,637490,252,1407016,1408532,1404015,644013,1404014,visual_patterns,0,0,0,yes,1366
undefined,undefined,undefined,undefined,white,no,Mozilla,Netscape,"5.0 (Windows NT 10.0; Win64; x64) AppleWebKit/537.36 (KHTML, like Gecko) Chrome/99.0.4844.51 Safari/537.36",xpyriment,legacy,legacy,0,uniform,0,0,0,0,24,24,24,0,0,74,74,74,74,74,0,74,0,31,31,31,31,31,0,31,16-02-22,16-02-22,10:42:34,Wed Mar 16 2022 10:42:34 GMT+0100 (közép-európai téli idő),The main experiment item,yes,0,0,C:/Users/rrics/Documents/!!ResearchBMECOGSCI/gnet,0,0,0,prototype2.png,no,mono,no,18,no,black,no,no,768,1200,3.5.6,legacy,xpyriment,osweb,1.3.13,0,space,space,space,space,624026,12201,28823,624026,2,legacy,860,1600,24,900,24,0,0,1600,1647423772614,1024,2,48000,-16,experiment,p3sarrshacol3.png,0,even,Win32,252,124155,121140,252,252,642494,644006,637490,125673,637490,252,1411549,1413051,1408556,644013,1408555,visual_patterns,0,0,0,yes,1366
undefined,undefined,undefined,undefined,white,no,Mozilla,Netscape,"5.0 (Windows NT 10.0; Win64; x64) AppleWebKit/537.36 (KHTML, like Gecko) Chrome/99.0.4844.51 Safari/537.36",xpyriment,legacy,legacy,0,uniform,0,0,0,0,24,24,24,0,0,74,74,74,74,74,0,74,0,32,32,32,32,32,0,32,16-02-22,16-02-22,10:42:34,Wed Mar 16 2022 10:42:34 GMT+0100 (közép-európai téli idő),The main experiment item,yes,0,0,C:/Users/rrics/Documents/!!ResearchBMECOGSCI/gnet,0,0,0,prototype2.png,no,mono,no,18,no,black,no,no,768,1200,3.5.6,legacy,xpyriment,osweb,1.3.13,0,space,space,space,space,624026,12201,28823,624026,2,legacy,860,1600,24,900,24,0,0,1600,1647423772614,1024,2,48000,-16,experiment,p2sarrcol4.png,0,even,Win32,252,124155,121140,252,252,642494,644006,637490,125673,637490,252,1416074,1417584,1413074,644013,1413074,visual_patterns,0,0,0,yes,1366
undefined,undefined,undefined,undefined,white,no,Mozilla,Netscape,"5.0 (Windows NT 10.0; Win64; x64) AppleWebKit/537.36 (KHTML, like Gecko) Chrome/99.0.4844.51 Safari/537.36",xpyriment,legacy,legacy,0,uniform,0,0,0,0,24,24,24,0,0,74,74,74,74,74,0,74,0,33,33,33,33,33,0,33,16-02-22,16-02-22,10:42:34,Wed Mar 16 2022 10:42:34 GMT+0100 (közép-európai téli idő),The main experiment item,yes,0,0,C:/Users/rrics/Documents/!!ResearchBMECOGSCI/gnet,0,0,0,prototype2.png,no,mono,no,18,no,black,no,no,768,1200,3.5.6,legacy,xpyriment,osweb,1.3.13,0,space,space,space,space,624026,12201,28823,624026,2,legacy,860,1600,24,900,24,0,0,1600,1647423772614,1024,2,48000,-16,experiment,p5sarrcol1.png,0,even,Win32,252,124155,121140,252,252,642494,644006,637490,125673,637490,252,1420605,1422118,1417606,644013,1417606,visual_patterns,0,0,0,yes,1366
undefined,undefined,undefined,undefined,white,no,Mozilla,Netscape,"5.0 (Windows NT 10.0; Win64; x64) AppleWebKit/537.36 (KHTML, like Gecko) Chrome/99.0.4844.51 Safari/537.36",xpyriment,legacy,legacy,0,uniform,0,0,0,0,24,24,24,0,0,74,74,74,74,74,0,74,0,34,34,34,34,34,0,34,16-02-22,16-02-22,10:42:34,Wed Mar 16 2022 10:42:34 GMT+0100 (közép-európai téli idő),The main experiment item,yes,0,0,C:/Users/rrics/Documents/!!ResearchBMECOGSCI/gnet,0,0,0,prototype2.png,no,mono,no,18,no,black,no,no,768,1200,3.5.6,legacy,xpyriment,osweb,1.3.13,0,space,space,space,space,624026,12201,28823,624026,2,legacy,860,1600,24,900,24,0,0,1600,1647423772614,1024,2,48000,-16,experiment,p8sarr2.png,0,even,Win32,252,124155,121140,252,252,642494,644006,637490,125673,637490,252,1425140,1426653,1422137,644013,1422137,visual_patterns,0,0,0,yes,1366
undefined,undefined,undefined,undefined,white,no,Mozilla,Netscape,"5.0 (Windows NT 10.0; Win64; x64) AppleWebKit/537.36 (KHTML, like Gecko) Chrome/99.0.4844.51 Safari/537.36",xpyriment,legacy,legacy,0,uniform,0,0,0,0,24,24,24,0,0,74,74,74,74,74,0,74,0,35,35,35,35,35,0,35,16-02-22,16-02-22,10:42:34,Wed Mar 16 2022 10:42:34 GMT+0100 (közép-európai téli idő),The main experiment item,yes,0,0,C:/Users/rrics/Documents/!!ResearchBMECOGSCI/gnet,0,0,0,prototype2.png,no,mono,no,18,no,black,no,no,768,1200,3.5.6,legacy,xpyriment,osweb,1.3.13,0,space,space,space,space,624026,12201,28823,624026,2,legacy,860,1600,24,900,24,0,0,1600,1647423772614,1024,2,48000,-16,experiment,p5sarr3.png,0,even,Win32,252,124155,121140,252,252,642494,644006,637490,125673,637490,252,1429674,1431179,1426676,644013,1426675,visual_patterns,0,0,0,yes,1366
undefined,undefined,undefined,undefined,white,no,Mozilla,Netscape,"5.0 (Windows NT 10.0; Win64; x64) AppleWebKit/537.36 (KHTML, like Gecko) Chrome/99.0.4844.51 Safari/537.36",xpyriment,legacy,legacy,0,uniform,0,0,0,0,24,24,24,0,0,74,74,74,74,74,0,74,0,36,36,36,36,36,0,36,16-02-22,16-02-22,10:42:34,Wed Mar 16 2022 10:42:34 GMT+0100 (közép-európai téli idő),The main experiment item,yes,0,0,C:/Users/rrics/Documents/!!ResearchBMECOGSCI/gnet,0,0,0,prototype2.png,no,mono,no,18,no,black,no,no,768,1200,3.5.6,legacy,xpyriment,osweb,1.3.13,0,space,space,space,space,624026,12201,28823,624026,2,legacy,860,1600,24,900,24,0,0,1600,1647423772614,1024,2,48000,-16,experiment,p7sarr1.png,0,even,Win32,252,124155,121140,252,252,642494,644006,637490,125673,637490,252,1434199,1435714,1431198,644013,1431198,visual_patterns,0,0,0,yes,1366
undefined,undefined,undefined,undefined,white,no,Mozilla,Netscape,"5.0 (Windows NT 10.0; Win64; x64) AppleWebKit/537.36 (KHTML, like Gecko) Chrome/99.0.4844.51 Safari/537.36",xpyriment,legacy,legacy,0,uniform,0,0,0,0,24,24,24,0,0,74,74,74,74,74,0,74,0,37,37,37,37,37,0,37,16-02-22,16-02-22,10:42:34,Wed Mar 16 2022 10:42:34 GMT+0100 (közép-európai téli idő),The main experiment item,yes,0,0,C:/Users/rrics/Documents/!!ResearchBMECOGSCI/gnet,0,0,0,prototype2.png,no,mono,no,18,no,black,no,no,768,1200,3.5.6,legacy,xpyriment,osweb,1.3.13,0,space,space,space,space,624026,12201,28823,624026,2,legacy,860,1600,24,900,24,0,0,1600,1647423772614,1024,2,48000,-16,experiment,p1sarrcol4.png,0,even,Win32,252,124155,121140,252,252,642494,644006,637490,125673,637490,252,1438734,1440238,1435738,644013,1435738,visual_patterns,0,0,0,yes,1366
undefined,undefined,undefined,undefined,white,no,Mozilla,Netscape,"5.0 (Windows NT 10.0; Win64; x64) AppleWebKit/537.36 (KHTML, like Gecko) Chrome/99.0.4844.51 Safari/537.36",xpyriment,legacy,legacy,0,uniform,0,0,0,0,24,24,24,0,0,74,74,74,74,74,0,74,0,38,38,38,38,38,0,38,16-02-22,16-02-22,10:42:34,Wed Mar 16 2022 10:42:34 GMT+0100 (közép-európai téli idő),The main experiment item,yes,0,0,C:/Users/rrics/Documents/!!ResearchBMECOGSCI/gnet,0,0,0,prototype2.png,no,mono,no,18,no,black,no,no,768,1200,3.5.6,legacy,xpyriment,osweb,1.3.13,0,space,space,space,space,624026,12201,28823,624026,2,legacy,860,1600,24,900,24,0,0,1600,1647423772614,1024,2,48000,-16,experiment,p3sarrsha4.png,0,even,Win32,252,124155,121140,252,252,642494,644006,637490,125673,637490,252,1443256,1444763,1440260,644013,1440260,visual_patterns,0,0,0,yes,1366
undefined,undefined,undefined,undefined,white,no,Mozilla,Netscape,"5.0 (Windows NT 10.0; Win64; x64) AppleWebKit/537.36 (KHTML, like Gecko) Chrome/99.0.4844.51 Safari/537.36",xpyriment,legacy,legacy,0,uniform,0,0,0,0,24,24,24,0,0,74,74,74,74,74,0,74,0,39,39,39,39,39,0,39,16-02-22,16-02-22,10:42:34,Wed Mar 16 2022 10:42:34 GMT+0100 (közép-európai téli idő),The main experiment item,yes,0,0,C:/Users/rrics/Documents/!!ResearchBMECOGSCI/gnet,0,0,0,prototype2.png,no,mono,no,18,no,black,no,no,768,1200,3.5.6,legacy,xpyriment,osweb,1.3.13,0,space,space,space,space,624026,12201,28823,624026,2,legacy,860,1600,24,900,24,0,0,1600,1647423772614,1024,2,48000,-16,experiment,p3sarr1.png,0,even,Win32,252,124155,121140,252,252,642494,644006,637490,125673,637490,252,1447782,1449285,1444782,644013,1444782,visual_patterns,0,0,0,yes,1366
undefined,undefined,undefined,undefined,white,no,Mozilla,Netscape,"5.0 (Windows NT 10.0; Win64; x64) AppleWebKit/537.36 (KHTML, like Gecko) Chrome/99.0.4844.51 Safari/537.36",xpyriment,legacy,legacy,0,uniform,0,0,0,0,24,24,24,0,0,74,74,74,74,74,0,74,0,40,40,40,40,40,0,40,16-02-22,16-02-22,10:42:34,Wed Mar 16 2022 10:42:34 GMT+0100 (közép-európai téli idő),The main experiment item,yes,0,0,C:/Users/rrics/Documents/!!ResearchBMECOGSCI/gnet,0,0,0,prototype2.png,no,mono,no,18,no,black,no,no,768,1200,3.5.6,legacy,xpyriment,osweb,1.3.13,0,space,space,space,space,624026,12201,28823,624026,2,legacy,860,1600,24,900,24,0,0,1600,1647423772614,1024,2,48000,-16,experiment,p2sarrsha3.png,0,even,Win32,252,124155,121140,252,252,642494,644006,637490,125673,637490,252,1452304,1453819,1449308,644013,1449308,visual_patterns,0,0,0,yes,1366
undefined,undefined,undefined,undefined,white,no,Mozilla,Netscape,"5.0 (Windows NT 10.0; Win64; x64) AppleWebKit/537.36 (KHTML, like Gecko) Chrome/99.0.4844.51 Safari/537.36",xpyriment,legacy,legacy,0,uniform,0,0,0,0,24,24,24,0,0,74,74,74,74,74,0,74,0,41,41,41,41,41,0,41,16-02-22,16-02-22,10:42:34,Wed Mar 16 2022 10:42:34 GMT+0100 (közép-európai téli idő),The main experiment item,yes,0,0,C:/Users/rrics/Documents/!!ResearchBMECOGSCI/gnet,0,0,0,prototype2.png,no,mono,no,18,no,black,no,no,768,1200,3.5.6,legacy,xpyriment,osweb,1.3.13,0,space,space,space,space,624026,12201,28823,624026,2,legacy,860,1600,24,900,24,0,0,1600,1647423772614,1024,2,48000,-16,experiment,p9sarr3.png,0,even,Win32,252,124155,121140,252,252,642494,644006,637490,125673,637490,252,1456846,1458358,1453865,644013,1453865,visual_patterns,0,0,0,yes,1366
undefined,undefined,undefined,undefined,white,no,Mozilla,Netscape,"5.0 (Windows NT 10.0; Win64; x64) AppleWebKit/537.36 (KHTML, like Gecko) Chrome/99.0.4844.51 Safari/537.36",xpyriment,legacy,legacy,0,uniform,0,0,0,0,24,24,24,0,0,74,74,74,74,74,0,74,0,42,42,42,42,42,0,42,16-02-22,16-02-22,10:42:34,Wed Mar 16 2022 10:42:34 GMT+0100 (közép-európai téli idő),The main experiment item,yes,0,0,C:/Users/rrics/Documents/!!ResearchBMECOGSCI/gnet,0,0,0,prototype2.png,no,mono,no,18,no,black,no,no,768,1200,3.5.6,legacy,xpyriment,osweb,1.3.13,0,space,space,space,space,624026,12201,28823,624026,2,legacy,860,1600,24,900,24,0,0,1600,1647423772614,1024,2,48000,-16,experiment,p10sarr4.png,0,even,Win32,252,124155,121140,252,252,642494,644006,637490,125673,637490,252,1461380,1462891,1458380,644013,1458380,visual_patterns,0,0,0,yes,1366
undefined,undefined,undefined,undefined,white,no,Mozilla,Netscape,"5.0 (Windows NT 10.0; Win64; x64) AppleWebKit/537.36 (KHTML, like Gecko) Chrome/99.0.4844.51 Safari/537.36",xpyriment,legacy,legacy,0,uniform,0,0,0,0,24,24,24,0,0,74,74,74,74,74,0,74,0,43,43,43,43,43,0,43,16-02-22,16-02-22,10:42:34,Wed Mar 16 2022 10:42:34 GMT+0100 (közép-európai téli idő),The main experiment item,yes,0,0,C:/Users/rrics/Documents/!!ResearchBMECOGSCI/gnet,0,0,0,prototype2.png,no,mono,no,18,no,black,no,no,768,1200,3.5.6,legacy,xpyriment,osweb,1.3.13,0,space,space,space,space,624026,12201,28823,624026,2,legacy,860,1600,24,900,24,0,0,1600,1647423772614,1024,2,48000,-16,experiment,p4sarrcol1.png,0,even,Win32,252,124155,121140,252,252,642494,644006,637490,125673,637490,252,1465913,1467427,1462911,644013,1462911,visual_patterns,0,0,0,yes,1366
undefined,undefined,undefined,undefined,white,no,Mozilla,Netscape,"5.0 (Windows NT 10.0; Win64; x64) AppleWebKit/537.36 (KHTML, like Gecko) Chrome/99.0.4844.51 Safari/537.36",xpyriment,legacy,legacy,0,uniform,0,0,0,0,24,24,24,0,0,74,74,74,74,74,0,74,0,44,44,44,44,44,0,44,16-02-22,16-02-22,10:42:34,Wed Mar 16 2022 10:42:34 GMT+0100 (közép-európai téli idő),The main experiment item,yes,0,0,C:/Users/rrics/Documents/!!ResearchBMECOGSCI/gnet,0,0,0,prototype2.png,no,mono,no,18,no,black,no,no,768,1200,3.5.6,legacy,xpyriment,osweb,1.3.13,0,space,space,space,space,624026,12201,28823,624026,2,legacy,860,1600,24,900,24,0,0,1600,1647423772614,1024,2,48000,-16,experiment,p5sarrshacol4.png,0,even,Win32,252,124155,121140,252,252,642494,644006,637490,125673,637490,252,1470449,1471960,1467450,644013,1467450,visual_patterns,0,0,0,yes,1366
undefined,undefined,undefined,undefined,white,no,Mozilla,Netscape,"5.0 (Windows NT 10.0; Win64; x64) AppleWebKit/537.36 (KHTML, like Gecko) Chrome/99.0.4844.51 Safari/537.36",xpyriment,legacy,legacy,0,uniform,0,0,0,0,24,24,24,0,0,74,74,74,74,74,0,74,0,45,45,45,45,45,0,45,16-02-22,16-02-22,10:42:34,Wed Mar 16 2022 10:42:34 GMT+0100 (közép-európai téli idő),The main experiment item,yes,0,0,C:/Users/rrics/Documents/!!ResearchBMECOGSCI/gnet,0,0,0,prototype2.png,no,mono,no,18,no,black,no,no,768,1200,3.5.6,legacy,xpyriment,osweb,1.3.13,0,space,space,space,space,624026,12201,28823,624026,2,legacy,860,1600,24,900,24,0,0,1600,1647423772614,1024,2,48000,-16,experiment,p3sarr3.png,0,even,Win32,252,124155,121140,252,252,642494,644006,637490,125673,637490,252,1474981,1476494,1471985,644013,1471985,visual_patterns,0,0,0,yes,1366
undefined,undefined,undefined,undefined,white,no,Mozilla,Netscape,"5.0 (Windows NT 10.0; Win64; x64) AppleWebKit/537.36 (KHTML, like Gecko) Chrome/99.0.4844.51 Safari/537.36",xpyriment,legacy,legacy,0,uniform,0,0,0,0,24,24,24,0,0,74,74,74,74,74,0,74,0,46,46,46,46,46,0,46,16-02-22,16-02-22,10:42:34,Wed Mar 16 2022 10:42:34 GMT+0100 (közép-európai téli idő),The main experiment item,yes,0,0,C:/Users/rrics/Documents/!!ResearchBMECOGSCI/gnet,0,0,0,prototype2.png,no,mono,no,18,no,black,no,no,768,1200,3.5.6,legacy,xpyriment,osweb,1.3.13,0,space,space,space,space,624026,12201,28823,624026,2,legacy,860,1600,24,900,24,0,0,1600,1647423772614,1024,2,48000,-16,experiment,p2sarr3.png,0,even,Win32,252,124155,121140,252,252,642494,644006,637490,125673,637490,252,1479514,1481029,1476517,644013,1476517,visual_patterns,0,0,0,yes,1366
undefined,undefined,undefined,undefined,white,no,Mozilla,Netscape,"5.0 (Windows NT 10.0; Win64; x64) AppleWebKit/537.36 (KHTML, like Gecko) Chrome/99.0.4844.51 Safari/537.36",xpyriment,legacy,legacy,0,uniform,0,0,0,0,24,24,24,0,0,74,74,74,74,74,0,74,0,47,47,47,47,47,0,47,16-02-22,16-02-22,10:42:34,Wed Mar 16 2022 10:42:34 GMT+0100 (közép-európai téli idő),The main experiment item,yes,0,0,C:/Users/rrics/Documents/!!ResearchBMECOGSCI/gnet,0,0,0,prototype2.png,no,mono,no,18,no,black,no,no,768,1200,3.5.6,legacy,xpyriment,osweb,1.3.13,0,space,space,space,space,624026,12201,28823,624026,2,legacy,860,1600,24,900,24,0,0,1600,1647423772614,1024,2,48000,-16,experiment,p4sarr2.png,0,even,Win32,252,124155,121140,252,252,642494,644006,637490,125673,637490,252,1484049,1485563,1481048,644013,1481048,visual_patterns,0,0,0,yes,1366
