acc,accuracy,average_response_time,avg_rt,background,bidi,browser_codename,browser_name,browser_version,canvas_backend,clock_backend,color_backend,compensation,coordinates,count_end,count_experiment,count_osweb,count_prestudy,count_prestudy_isi,count_prestudy_sequence,count_prestudy_stimpres,count_start,count_study,count_study_coroutines,count_study_isi,count_study_logger,count_study_response,count_study_sequence,count_study_start,count_study_stimpres,count_test,count_test_coroutines,count_test_isi,count_test_logger,count_test_response,count_test_sequence,count_test_start,count_test_stimpres,date_startdate,date_startdateUTC,date_starttime,datetime,description,disable_garbage_collection,experiment_debug,experiment_parameters,experiment_path,experiment_pilot,experiment_taskname,experiment_taskversion,fampict,font_bold,font_family,font_italic,font_size,font_underline,foreground,form_clicks,fullscreen,height,jatosStudyResultId,jatosVersion,keyboard_backend,mouse_backend,opensesame_codename,opensesame_version,repeat_cycle,response,response_start,response_study_start,response_test_start,response_time,response_time_start,response_time_study_start,response_time_test_start,round_decimals,sampler_backend,screen_availableHeight,screen_availableWidth,screen_colorDepth,screen_height,screen_pixelDepth,screen_screenX,screen_screenY,screen_width,sessionid,sound_buf_size,sound_channels,sound_freq,sound_sample_size,start,stim,subject_nr,subject_parity,system_os,time_prestudy,time_prestudy_isi,time_prestudy_stimpres,time_start,time_study,time_study_isi,time_study_logger,time_study_response,time_study_start,time_study_stimpres,time_test,time_test_isi,time_test_logger,time_test_response,time_test_start,time_test_stimpres,title,total_correct,total_response_time,total_responses,uniform_coordinates,width
undefined,undefined,undefined,undefined,white,no,Mozilla,Netscape,"5.0 (Windows NT 10.0; Win64; x64) AppleWebKit/537.36 (KHTML, like Gecko) Chrome/99.0.4844.74 Safari/537.36",xpyriment,legacy,legacy,0,uniform,0,0,0,0,24,24,24,0,0,0,0,0,0,0,0,0,0,,,,,,0,,17-02-22,17-02-22,09:32:27,Thu Mar 17 2022 09:32:27 GMT+0100 (közép-európai téli idő),The main experiment item,yes,0,0,C:/Users/rrics/Documents/!!ResearchBMECOGSCI/gnet,0,0,0,prototype2.png,no,mono,no,18,no,black,no,no,768,1201,3.5.6,legacy,xpyriment,osweb,1.3.13,0,left,space,left,,34566,20774,34566,,2,legacy,824,1536,24,864,24,0,0,1536,1647505950225,1024,2,48000,-16,experiment,p6sarr1.png,1,odd,Win32,186,132651,129641,185,186,173767,175283,168770,134168,168770,186,,,,,,visual_patterns,0,0,0,yes,1366
undefined,undefined,undefined,undefined,white,no,Mozilla,Netscape,"5.0 (Windows NT 10.0; Win64; x64) AppleWebKit/537.36 (KHTML, like Gecko) Chrome/99.0.4844.74 Safari/537.36",xpyriment,legacy,legacy,0,uniform,0,0,0,0,24,24,24,0,0,1,1,1,1,1,0,1,0,,,,,,0,,17-02-22,17-02-22,09:32:27,Thu Mar 17 2022 09:32:27 GMT+0100 (közép-európai téli idő),The main experiment item,yes,0,0,C:/Users/rrics/Documents/!!ResearchBMECOGSCI/gnet,0,0,0,prototype2.png,no,mono,no,18,no,black,no,no,768,1201,3.5.6,legacy,xpyriment,osweb,1.3.13,0,left,space,left,,34566,20774,34566,,2,legacy,824,1536,24,864,24,0,0,1536,1647505950225,1024,2,48000,-16,experiment,prototype3.png,1,odd,Win32,186,132651,129641,185,186,180305,181821,175299,134168,175299,186,,,,,,visual_patterns,0,0,0,yes,1366
undefined,undefined,undefined,undefined,white,no,Mozilla,Netscape,"5.0 (Windows NT 10.0; Win64; x64) AppleWebKit/537.36 (KHTML, like Gecko) Chrome/99.0.4844.74 Safari/537.36",xpyriment,legacy,legacy,0,uniform,0,0,0,0,24,24,24,0,0,2,2,2,2,2,0,2,0,,,,,,0,,17-02-22,17-02-22,09:32:27,Thu Mar 17 2022 09:32:27 GMT+0100 (közép-európai téli idő),The main experiment item,yes,0,0,C:/Users/rrics/Documents/!!ResearchBMECOGSCI/gnet,0,0,0,prototype2.png,no,mono,no,18,no,black,no,no,768,1201,3.5.6,legacy,xpyriment,osweb,1.3.13,0,left,space,left,,34566,20774,34566,,2,legacy,824,1536,24,864,24,0,0,1536,1647505950225,1024,2,48000,-16,experiment,p3sarr1.png,1,odd,Win32,186,132651,129641,185,186,186841,188344,181839,134168,181839,186,,,,,,visual_patterns,0,0,0,yes,1366
undefined,undefined,undefined,undefined,white,no,Mozilla,Netscape,"5.0 (Windows NT 10.0; Win64; x64) AppleWebKit/537.36 (KHTML, like Gecko) Chrome/99.0.4844.74 Safari/537.36",xpyriment,legacy,legacy,0,uniform,0,0,0,0,24,24,24,0,0,3,3,3,3,3,0,3,0,,,,,,0,,17-02-22,17-02-22,09:32:27,Thu Mar 17 2022 09:32:27 GMT+0100 (közép-európai téli idő),The main experiment item,yes,0,0,C:/Users/rrics/Documents/!!ResearchBMECOGSCI/gnet,0,0,0,prototype2.png,no,mono,no,18,no,black,no,no,768,1201,3.5.6,legacy,xpyriment,osweb,1.3.13,0,left,space,left,,34566,20774,34566,,2,legacy,824,1536,24,864,24,0,0,1536,1647505950225,1024,2,48000,-16,experiment,p9sarr2.png,1,odd,Win32,186,132651,129641,185,186,193364,194867,188360,134168,188359,186,,,,,,visual_patterns,0,0,0,yes,1366
undefined,undefined,undefined,undefined,white,no,Mozilla,Netscape,"5.0 (Windows NT 10.0; Win64; x64) AppleWebKit/537.36 (KHTML, like Gecko) Chrome/99.0.4844.74 Safari/537.36",xpyriment,legacy,legacy,0,uniform,0,0,0,0,24,24,24,0,0,4,4,4,4,4,0,4,0,,,,,,0,,17-02-22,17-02-22,09:32:27,Thu Mar 17 2022 09:32:27 GMT+0100 (közép-európai téli idő),The main experiment item,yes,0,0,C:/Users/rrics/Documents/!!ResearchBMECOGSCI/gnet,0,0,0,prototype2.png,no,mono,no,18,no,black,no,no,768,1201,3.5.6,legacy,xpyriment,osweb,1.3.13,0,left,space,left,,34566,20774,34566,,2,legacy,824,1536,24,864,24,0,0,1536,1647505950225,1024,2,48000,-16,experiment,p4sarr2.png,1,odd,Win32,186,132651,129641,185,186,199887,201397,194885,134168,194885,186,,,,,,visual_patterns,0,0,0,yes,1366
undefined,undefined,undefined,undefined,white,no,Mozilla,Netscape,"5.0 (Windows NT 10.0; Win64; x64) AppleWebKit/537.36 (KHTML, like Gecko) Chrome/99.0.4844.74 Safari/537.36",xpyriment,legacy,legacy,0,uniform,0,0,0,0,24,24,24,0,0,5,5,5,5,5,0,5,0,,,,,,0,,17-02-22,17-02-22,09:32:27,Thu Mar 17 2022 09:32:27 GMT+0100 (közép-európai téli idő),The main experiment item,yes,0,0,C:/Users/rrics/Documents/!!ResearchBMECOGSCI/gnet,0,0,0,prototype2.png,no,mono,no,18,no,black,no,no,768,1201,3.5.6,legacy,xpyriment,osweb,1.3.13,0,left,space,left,,34566,20774,34566,,2,legacy,824,1536,24,864,24,0,0,1536,1647505950225,1024,2,48000,-16,experiment,p4sarrshacol2.png,1,odd,Win32,186,132651,129641,185,186,206413,207929,201416,134168,201416,186,,,,,,visual_patterns,0,0,0,yes,1366
undefined,undefined,undefined,undefined,white,no,Mozilla,Netscape,"5.0 (Windows NT 10.0; Win64; x64) AppleWebKit/537.36 (KHTML, like Gecko) Chrome/99.0.4844.74 Safari/537.36",xpyriment,legacy,legacy,0,uniform,0,0,0,0,24,24,24,0,0,6,6,6,6,6,0,6,0,,,,,,0,,17-02-22,17-02-22,09:32:27,Thu Mar 17 2022 09:32:27 GMT+0100 (közép-európai téli idő),The main experiment item,yes,0,0,C:/Users/rrics/Documents/!!ResearchBMECOGSCI/gnet,0,0,0,prototype2.png,no,mono,no,18,no,black,no,no,768,1201,3.5.6,legacy,xpyriment,osweb,1.3.13,0,left,space,left,,34566,20774,34566,,2,legacy,824,1536,24,864,24,0,0,1536,1647505950225,1024,2,48000,-16,experiment,p5sarrsha2.png,1,odd,Win32,186,132651,129641,185,186,212956,214469,207946,134168,207946,186,,,,,,visual_patterns,0,0,0,yes,1366
undefined,undefined,undefined,undefined,white,no,Mozilla,Netscape,"5.0 (Windows NT 10.0; Win64; x64) AppleWebKit/537.36 (KHTML, like Gecko) Chrome/99.0.4844.74 Safari/537.36",xpyriment,legacy,legacy,0,uniform,0,0,0,0,24,24,24,0,0,7,7,7,7,7,0,7,0,,,,,,0,,17-02-22,17-02-22,09:32:27,Thu Mar 17 2022 09:32:27 GMT+0100 (közép-európai téli idő),The main experiment item,yes,0,0,C:/Users/rrics/Documents/!!ResearchBMECOGSCI/gnet,0,0,0,prototype2.png,no,mono,no,18,no,black,no,no,768,1201,3.5.6,legacy,xpyriment,osweb,1.3.13,0,left,space,left,,34566,20774,34566,,2,legacy,824,1536,24,864,24,0,0,1536,1647505950225,1024,2,48000,-16,experiment,p2sarr1.png,1,odd,Win32,186,132651,129641,185,186,219483,220991,214487,134168,214487,186,,,,,,visual_patterns,0,0,0,yes,1366
undefined,undefined,undefined,undefined,white,no,Mozilla,Netscape,"5.0 (Windows NT 10.0; Win64; x64) AppleWebKit/537.36 (KHTML, like Gecko) Chrome/99.0.4844.74 Safari/537.36",xpyriment,legacy,legacy,0,uniform,0,0,0,0,24,24,24,0,0,8,8,8,8,8,0,8,0,,,,,,0,,17-02-22,17-02-22,09:32:27,Thu Mar 17 2022 09:32:27 GMT+0100 (közép-európai téli idő),The main experiment item,yes,0,0,C:/Users/rrics/Documents/!!ResearchBMECOGSCI/gnet,0,0,0,prototype2.png,no,mono,no,18,no,black,no,no,768,1201,3.5.6,legacy,xpyriment,osweb,1.3.13,0,left,space,left,,34566,20774,34566,,2,legacy,824,1536,24,864,24,0,0,1536,1647505950225,1024,2,48000,-16,experiment,prototype4.png,1,odd,Win32,186,132651,129641,185,186,226006,227521,221004,134168,221004,186,,,,,,visual_patterns,0,0,0,yes,1366
undefined,undefined,undefined,undefined,white,no,Mozilla,Netscape,"5.0 (Windows NT 10.0; Win64; x64) AppleWebKit/537.36 (KHTML, like Gecko) Chrome/99.0.4844.74 Safari/537.36",xpyriment,legacy,legacy,0,uniform,0,0,0,0,24,24,24,0,0,9,9,9,9,9,0,9,0,,,,,,0,,17-02-22,17-02-22,09:32:27,Thu Mar 17 2022 09:32:27 GMT+0100 (közép-európai téli idő),The main experiment item,yes,0,0,C:/Users/rrics/Documents/!!ResearchBMECOGSCI/gnet,0,0,0,prototype2.png,no,mono,no,18,no,black,no,no,768,1201,3.5.6,legacy,xpyriment,osweb,1.3.13,0,left,space,left,,34566,20774,34566,,2,legacy,824,1536,24,864,24,0,0,1536,1647505950225,1024,2,48000,-16,experiment,p5sarrsha1.png,1,odd,Win32,186,132651,129641,185,186,232539,234054,227542,134168,227542,186,,,,,,visual_patterns,0,0,0,yes,1366
undefined,undefined,undefined,undefined,white,no,Mozilla,Netscape,"5.0 (Windows NT 10.0; Win64; x64) AppleWebKit/537.36 (KHTML, like Gecko) Chrome/99.0.4844.74 Safari/537.36",xpyriment,legacy,legacy,0,uniform,0,0,0,0,24,24,24,0,0,10,10,10,10,10,0,10,0,,,,,,0,,17-02-22,17-02-22,09:32:27,Thu Mar 17 2022 09:32:27 GMT+0100 (közép-európai téli idő),The main experiment item,yes,0,0,C:/Users/rrics/Documents/!!ResearchBMECOGSCI/gnet,0,0,0,prototype2.png,no,mono,no,18,no,black,no,no,768,1201,3.5.6,legacy,xpyriment,osweb,1.3.13,0,left,space,left,,34566,20774,34566,,2,legacy,824,1536,24,864,24,0,0,1536,1647505950225,1024,2,48000,-16,experiment,p5sarrcol1.png,1,odd,Win32,186,132651,129641,185,186,239069,240577,234070,134168,234070,186,,,,,,visual_patterns,0,0,0,yes,1366
undefined,undefined,undefined,undefined,white,no,Mozilla,Netscape,"5.0 (Windows NT 10.0; Win64; x64) AppleWebKit/537.36 (KHTML, like Gecko) Chrome/99.0.4844.74 Safari/537.36",xpyriment,legacy,legacy,0,uniform,0,0,0,0,24,24,24,0,0,11,11,11,11,11,0,11,0,,,,,,0,,17-02-22,17-02-22,09:32:27,Thu Mar 17 2022 09:32:27 GMT+0100 (közép-európai téli idő),The main experiment item,yes,0,0,C:/Users/rrics/Documents/!!ResearchBMECOGSCI/gnet,0,0,0,prototype2.png,no,mono,no,18,no,black,no,no,768,1201,3.5.6,legacy,xpyriment,osweb,1.3.13,0,left,space,left,,34566,20774,34566,,2,legacy,824,1536,24,864,24,0,0,1536,1647505950225,1024,2,48000,-16,experiment,p8sarr2.png,1,odd,Win32,186,132651,129641,185,186,245594,247099,240594,134168,240594,186,,,,,,visual_patterns,0,0,0,yes,1366
undefined,undefined,undefined,undefined,white,no,Mozilla,Netscape,"5.0 (Windows NT 10.0; Win64; x64) AppleWebKit/537.36 (KHTML, like Gecko) Chrome/99.0.4844.74 Safari/537.36",xpyriment,legacy,legacy,0,uniform,0,0,0,0,24,24,24,0,0,12,12,12,12,12,0,12,0,,,,,,0,,17-02-22,17-02-22,09:32:27,Thu Mar 17 2022 09:32:27 GMT+0100 (közép-európai téli idő),The main experiment item,yes,0,0,C:/Users/rrics/Documents/!!ResearchBMECOGSCI/gnet,0,0,0,prototype2.png,no,mono,no,18,no,black,no,no,768,1201,3.5.6,legacy,xpyriment,osweb,1.3.13,0,left,space,left,,34566,20774,34566,,2,legacy,824,1536,24,864,24,0,0,1536,1647505950225,1024,2,48000,-16,experiment,p5sarrshacol2.png,1,odd,Win32,186,132651,129641,185,186,252113,253622,247115,134168,247115,186,,,,,,visual_patterns,0,0,0,yes,1366
undefined,undefined,undefined,undefined,white,no,Mozilla,Netscape,"5.0 (Windows NT 10.0; Win64; x64) AppleWebKit/537.36 (KHTML, like Gecko) Chrome/99.0.4844.74 Safari/537.36",xpyriment,legacy,legacy,0,uniform,0,0,0,0,24,24,24,0,0,13,13,13,13,13,0,13,0,,,,,,0,,17-02-22,17-02-22,09:32:27,Thu Mar 17 2022 09:32:27 GMT+0100 (közép-európai téli idő),The main experiment item,yes,0,0,C:/Users/rrics/Documents/!!ResearchBMECOGSCI/gnet,0,0,0,prototype2.png,no,mono,no,18,no,black,no,no,768,1201,3.5.6,legacy,xpyriment,osweb,1.3.13,0,left,space,left,,34566,20774,34566,,2,legacy,824,1536,24,864,24,0,0,1536,1647505950225,1024,2,48000,-16,experiment,p8sarr1.png,1,odd,Win32,186,132651,129641,185,186,258642,260145,253642,134168,253642,186,,,,,,visual_patterns,0,0,0,yes,1366
undefined,undefined,undefined,undefined,white,no,Mozilla,Netscape,"5.0 (Windows NT 10.0; Win64; x64) AppleWebKit/537.36 (KHTML, like Gecko) Chrome/99.0.4844.74 Safari/537.36",xpyriment,legacy,legacy,0,uniform,0,0,0,0,24,24,24,0,0,14,14,14,14,14,0,14,0,,,,,,0,,17-02-22,17-02-22,09:32:27,Thu Mar 17 2022 09:32:27 GMT+0100 (közép-európai téli idő),The main experiment item,yes,0,0,C:/Users/rrics/Documents/!!ResearchBMECOGSCI/gnet,0,0,0,prototype2.png,no,mono,no,18,no,black,no,no,768,1201,3.5.6,legacy,xpyriment,osweb,1.3.13,0,left,space,left,,34566,20774,34566,,2,legacy,824,1536,24,864,24,0,0,1536,1647505950225,1024,2,48000,-16,experiment,p3sarrcol1.png,1,odd,Win32,186,132651,129641,185,186,265163,266668,260160,134168,260160,186,,,,,,visual_patterns,0,0,0,yes,1366
undefined,undefined,undefined,undefined,white,no,Mozilla,Netscape,"5.0 (Windows NT 10.0; Win64; x64) AppleWebKit/537.36 (KHTML, like Gecko) Chrome/99.0.4844.74 Safari/537.36",xpyriment,legacy,legacy,0,uniform,0,0,0,0,24,24,24,0,0,15,15,15,15,15,0,15,0,,,,,,0,,17-02-22,17-02-22,09:32:27,Thu Mar 17 2022 09:32:27 GMT+0100 (közép-európai téli idő),The main experiment item,yes,0,0,C:/Users/rrics/Documents/!!ResearchBMECOGSCI/gnet,0,0,0,prototype2.png,no,mono,no,18,no,black,no,no,768,1201,3.5.6,legacy,xpyriment,osweb,1.3.13,0,left,space,left,,34566,20774,34566,,2,legacy,824,1536,24,864,24,0,0,1536,1647505950225,1024,2,48000,-16,experiment,prototype1.png,1,odd,Win32,186,132651,129641,185,186,271681,273191,266680,134168,266680,186,,,,,,visual_patterns,0,0,0,yes,1366
undefined,undefined,undefined,undefined,white,no,Mozilla,Netscape,"5.0 (Windows NT 10.0; Win64; x64) AppleWebKit/537.36 (KHTML, like Gecko) Chrome/99.0.4844.74 Safari/537.36",xpyriment,legacy,legacy,0,uniform,0,0,0,0,24,24,24,0,0,16,16,16,16,16,0,16,0,,,,,,0,,17-02-22,17-02-22,09:32:27,Thu Mar 17 2022 09:32:27 GMT+0100 (közép-európai téli idő),The main experiment item,yes,0,0,C:/Users/rrics/Documents/!!ResearchBMECOGSCI/gnet,0,0,0,prototype2.png,no,mono,no,18,no,black,no,no,768,1201,3.5.6,legacy,xpyriment,osweb,1.3.13,0,left,space,left,,34566,20774,34566,,2,legacy,824,1536,24,864,24,0,0,1536,1647505950225,1024,2,48000,-16,experiment,p2sarr2.png,1,odd,Win32,186,132651,129641,185,186,278213,279720,273210,134168,273210,186,,,,,,visual_patterns,0,0,0,yes,1366
undefined,undefined,undefined,undefined,white,no,Mozilla,Netscape,"5.0 (Windows NT 10.0; Win64; x64) AppleWebKit/537.36 (KHTML, like Gecko) Chrome/99.0.4844.74 Safari/537.36",xpyriment,legacy,legacy,0,uniform,0,0,0,0,24,24,24,0,0,17,17,17,17,17,0,17,0,,,,,,0,,17-02-22,17-02-22,09:32:27,Thu Mar 17 2022 09:32:27 GMT+0100 (közép-európai téli idő),The main experiment item,yes,0,0,C:/Users/rrics/Documents/!!ResearchBMECOGSCI/gnet,0,0,0,prototype2.png,no,mono,no,18,no,black,no,no,768,1201,3.5.6,legacy,xpyriment,osweb,1.3.13,0,left,space,left,,34566,20774,34566,,2,legacy,824,1536,24,864,24,0,0,1536,1647505950225,1024,2,48000,-16,experiment,p3sarrsha2.png,1,odd,Win32,186,132651,129641,185,186,284738,286253,279739,134168,279739,186,,,,,,visual_patterns,0,0,0,yes,1366
undefined,undefined,undefined,undefined,white,no,Mozilla,Netscape,"5.0 (Windows NT 10.0; Win64; x64) AppleWebKit/537.36 (KHTML, like Gecko) Chrome/99.0.4844.74 Safari/537.36",xpyriment,legacy,legacy,0,uniform,0,0,0,0,24,24,24,0,0,18,18,18,18,18,0,18,0,,,,,,0,,17-02-22,17-02-22,09:32:27,Thu Mar 17 2022 09:32:27 GMT+0100 (közép-európai téli idő),The main experiment item,yes,0,0,C:/Users/rrics/Documents/!!ResearchBMECOGSCI/gnet,0,0,0,prototype2.png,no,mono,no,18,no,black,no,no,768,1201,3.5.6,legacy,xpyriment,osweb,1.3.13,0,left,space,left,,34566,20774,34566,,2,legacy,824,1536,24,864,24,0,0,1536,1647505950225,1024,2,48000,-16,experiment,prototype4.png,1,odd,Win32,186,132651,129641,185,186,291269,292784,286264,134168,286264,186,,,,,,visual_patterns,0,0,0,yes,1366
undefined,undefined,undefined,undefined,white,no,Mozilla,Netscape,"5.0 (Windows NT 10.0; Win64; x64) AppleWebKit/537.36 (KHTML, like Gecko) Chrome/99.0.4844.74 Safari/537.36",xpyriment,legacy,legacy,0,uniform,0,0,0,0,24,24,24,0,0,19,19,19,19,19,0,19,0,,,,,,0,,17-02-22,17-02-22,09:32:27,Thu Mar 17 2022 09:32:27 GMT+0100 (közép-európai téli idő),The main experiment item,yes,0,0,C:/Users/rrics/Documents/!!ResearchBMECOGSCI/gnet,0,0,0,prototype2.png,no,mono,no,18,no,black,no,no,768,1201,3.5.6,legacy,xpyriment,osweb,1.3.13,0,left,space,left,,34566,20774,34566,,2,legacy,824,1536,24,864,24,0,0,1536,1647505950225,1024,2,48000,-16,experiment,p3sarrsha1.png,1,odd,Win32,186,132651,129641,185,186,297795,299299,292796,134168,292796,186,,,,,,visual_patterns,0,0,0,yes,1366
undefined,undefined,undefined,undefined,white,no,Mozilla,Netscape,"5.0 (Windows NT 10.0; Win64; x64) AppleWebKit/537.36 (KHTML, like Gecko) Chrome/99.0.4844.74 Safari/537.36",xpyriment,legacy,legacy,0,uniform,0,0,0,0,24,24,24,0,0,20,20,20,20,20,0,20,0,,,,,,0,,17-02-22,17-02-22,09:32:27,Thu Mar 17 2022 09:32:27 GMT+0100 (közép-európai téli idő),The main experiment item,yes,0,0,C:/Users/rrics/Documents/!!ResearchBMECOGSCI/gnet,0,0,0,prototype2.png,no,mono,no,18,no,black,no,no,768,1201,3.5.6,legacy,xpyriment,osweb,1.3.13,0,left,space,left,,34566,20774,34566,,2,legacy,824,1536,24,864,24,0,0,1536,1647505950225,1024,2,48000,-16,experiment,prototype2.png,1,odd,Win32,186,132651,129641,185,186,304318,305829,299315,134168,299315,186,,,,,,visual_patterns,0,0,0,yes,1366
undefined,undefined,undefined,undefined,white,no,Mozilla,Netscape,"5.0 (Windows NT 10.0; Win64; x64) AppleWebKit/537.36 (KHTML, like Gecko) Chrome/99.0.4844.74 Safari/537.36",xpyriment,legacy,legacy,0,uniform,0,0,0,0,24,24,24,0,0,21,21,21,21,21,0,21,0,,,,,,0,,17-02-22,17-02-22,09:32:27,Thu Mar 17 2022 09:32:27 GMT+0100 (közép-európai téli idő),The main experiment item,yes,0,0,C:/Users/rrics/Documents/!!ResearchBMECOGSCI/gnet,0,0,0,prototype2.png,no,mono,no,18,no,black,no,no,768,1201,3.5.6,legacy,xpyriment,osweb,1.3.13,0,left,space,left,,34566,20774,34566,,2,legacy,824,1536,24,864,24,0,0,1536,1647505950225,1024,2,48000,-16,experiment,p4sarrcol2.png,1,odd,Win32,186,132651,129641,185,186,310845,312361,305846,134168,305846,186,,,,,,visual_patterns,0,0,0,yes,1366
undefined,undefined,undefined,undefined,white,no,Mozilla,Netscape,"5.0 (Windows NT 10.0; Win64; x64) AppleWebKit/537.36 (KHTML, like Gecko) Chrome/99.0.4844.74 Safari/537.36",xpyriment,legacy,legacy,0,uniform,0,0,0,0,24,24,24,0,0,22,22,22,22,22,0,22,0,,,,,,0,,17-02-22,17-02-22,09:32:27,Thu Mar 17 2022 09:32:27 GMT+0100 (közép-európai téli idő),The main experiment item,yes,0,0,C:/Users/rrics/Documents/!!ResearchBMECOGSCI/gnet,0,0,0,prototype2.png,no,mono,no,18,no,black,no,no,768,1201,3.5.6,legacy,xpyriment,osweb,1.3.13,0,left,space,left,,34566,20774,34566,,2,legacy,824,1536,24,864,24,0,0,1536,1647505950225,1024,2,48000,-16,experiment,p5sarrshacol1.png,1,odd,Win32,186,132651,129641,185,186,317381,318883,312378,134168,312378,186,,,,,,visual_patterns,0,0,0,yes,1366
undefined,undefined,undefined,undefined,white,no,Mozilla,Netscape,"5.0 (Windows NT 10.0; Win64; x64) AppleWebKit/537.36 (KHTML, like Gecko) Chrome/99.0.4844.74 Safari/537.36",xpyriment,legacy,legacy,0,uniform,0,0,0,0,24,24,24,0,0,23,23,23,23,23,0,23,0,,,,,,0,,17-02-22,17-02-22,09:32:27,Thu Mar 17 2022 09:32:27 GMT+0100 (közép-európai téli idő),The main experiment item,yes,0,0,C:/Users/rrics/Documents/!!ResearchBMECOGSCI/gnet,0,0,0,prototype2.png,no,mono,no,18,no,black,no,no,768,1201,3.5.6,legacy,xpyriment,osweb,1.3.13,0,left,space,left,,34566,20774,34566,,2,legacy,824,1536,24,864,24,0,0,1536,1647505950225,1024,2,48000,-16,experiment,prototype2.png,1,odd,Win32,186,132651,129641,185,186,323914,325423,318908,134168,318908,186,,,,,,visual_patterns,0,0,0,yes,1366
undefined,undefined,undefined,undefined,white,no,Mozilla,Netscape,"5.0 (Windows NT 10.0; Win64; x64) AppleWebKit/537.36 (KHTML, like Gecko) Chrome/99.0.4844.74 Safari/537.36",xpyriment,legacy,legacy,0,uniform,0,0,0,0,24,24,24,0,0,24,24,24,24,24,0,24,0,,,,,,0,,17-02-22,17-02-22,09:32:27,Thu Mar 17 2022 09:32:27 GMT+0100 (közép-európai téli idő),The main experiment item,yes,0,0,C:/Users/rrics/Documents/!!ResearchBMECOGSCI/gnet,0,0,0,prototype2.png,no,mono,no,18,no,black,no,no,768,1201,3.5.6,legacy,xpyriment,osweb,1.3.13,0,left,space,left,,34566,20774,34566,,2,legacy,824,1536,24,864,24,0,0,1536,1647505950225,1024,2,48000,-16,experiment,p4sarrsha2.png,1,odd,Win32,186,132651,129641,185,186,330441,331946,325440,134168,325440,186,,,,,,visual_patterns,0,0,0,yes,1366
undefined,undefined,undefined,undefined,white,no,Mozilla,Netscape,"5.0 (Windows NT 10.0; Win64; x64) AppleWebKit/537.36 (KHTML, like Gecko) Chrome/99.0.4844.74 Safari/537.36",xpyriment,legacy,legacy,0,uniform,0,0,0,0,24,24,24,0,0,25,25,25,25,25,0,25,0,,,,,,0,,17-02-22,17-02-22,09:32:27,Thu Mar 17 2022 09:32:27 GMT+0100 (közép-európai téli idő),The main experiment item,yes,0,0,C:/Users/rrics/Documents/!!ResearchBMECOGSCI/gnet,0,0,0,prototype2.png,no,mono,no,18,no,black,no,no,768,1201,3.5.6,legacy,xpyriment,osweb,1.3.13,0,left,space,left,,34566,20774,34566,,2,legacy,824,1536,24,864,24,0,0,1536,1647505950225,1024,2,48000,-16,experiment,p9sarr1.png,1,odd,Win32,186,132651,129641,185,186,336962,338469,331964,134168,331964,186,,,,,,visual_patterns,0,0,0,yes,1366
undefined,undefined,undefined,undefined,white,no,Mozilla,Netscape,"5.0 (Windows NT 10.0; Win64; x64) AppleWebKit/537.36 (KHTML, like Gecko) Chrome/99.0.4844.74 Safari/537.36",xpyriment,legacy,legacy,0,uniform,0,0,0,0,24,24,24,0,0,26,26,26,26,26,0,26,0,,,,,,0,,17-02-22,17-02-22,09:32:27,Thu Mar 17 2022 09:32:27 GMT+0100 (közép-európai téli idő),The main experiment item,yes,0,0,C:/Users/rrics/Documents/!!ResearchBMECOGSCI/gnet,0,0,0,prototype2.png,no,mono,no,18,no,black,no,no,768,1201,3.5.6,legacy,xpyriment,osweb,1.3.13,0,left,space,left,,34566,20774,34566,,2,legacy,824,1536,24,864,24,0,0,1536,1647505950225,1024,2,48000,-16,experiment,prototype1.png,1,odd,Win32,186,132651,129641,185,186,343482,344992,338483,134168,338483,186,,,,,,visual_patterns,0,0,0,yes,1366
undefined,undefined,undefined,undefined,white,no,Mozilla,Netscape,"5.0 (Windows NT 10.0; Win64; x64) AppleWebKit/537.36 (KHTML, like Gecko) Chrome/99.0.4844.74 Safari/537.36",xpyriment,legacy,legacy,0,uniform,0,0,0,0,24,24,24,0,0,27,27,27,27,27,0,27,0,,,,,,0,,17-02-22,17-02-22,09:32:27,Thu Mar 17 2022 09:32:27 GMT+0100 (közép-európai téli idő),The main experiment item,yes,0,0,C:/Users/rrics/Documents/!!ResearchBMECOGSCI/gnet,0,0,0,prototype2.png,no,mono,no,18,no,black,no,no,768,1201,3.5.6,legacy,xpyriment,osweb,1.3.13,0,left,space,left,,34566,20774,34566,,2,legacy,824,1536,24,864,24,0,0,1536,1647505950225,1024,2,48000,-16,experiment,p4sarrcol1.png,1,odd,Win32,186,132651,129641,185,186,350010,351515,345009,134168,345009,186,,,,,,visual_patterns,0,0,0,yes,1366
undefined,undefined,undefined,undefined,white,no,Mozilla,Netscape,"5.0 (Windows NT 10.0; Win64; x64) AppleWebKit/537.36 (KHTML, like Gecko) Chrome/99.0.4844.74 Safari/537.36",xpyriment,legacy,legacy,0,uniform,0,0,0,0,24,24,24,0,0,28,28,28,28,28,0,28,0,,,,,,0,,17-02-22,17-02-22,09:32:27,Thu Mar 17 2022 09:32:27 GMT+0100 (közép-európai téli idő),The main experiment item,yes,0,0,C:/Users/rrics/Documents/!!ResearchBMECOGSCI/gnet,0,0,0,prototype2.png,no,mono,no,18,no,black,no,no,768,1201,3.5.6,legacy,xpyriment,osweb,1.3.13,0,left,space,left,,34566,20774,34566,,2,legacy,824,1536,24,864,24,0,0,1536,1647505950225,1024,2,48000,-16,experiment,prototype4.png,1,odd,Win32,186,132651,129641,185,186,356550,358054,351544,134168,351544,186,,,,,,visual_patterns,0,0,0,yes,1366
undefined,undefined,undefined,undefined,white,no,Mozilla,Netscape,"5.0 (Windows NT 10.0; Win64; x64) AppleWebKit/537.36 (KHTML, like Gecko) Chrome/99.0.4844.74 Safari/537.36",xpyriment,legacy,legacy,0,uniform,0,0,0,0,24,24,24,0,0,29,29,29,29,29,0,29,0,,,,,,0,,17-02-22,17-02-22,09:32:27,Thu Mar 17 2022 09:32:27 GMT+0100 (közép-európai téli idő),The main experiment item,yes,0,0,C:/Users/rrics/Documents/!!ResearchBMECOGSCI/gnet,0,0,0,prototype2.png,no,mono,no,18,no,black,no,no,768,1201,3.5.6,legacy,xpyriment,osweb,1.3.13,0,left,space,left,,34566,20774,34566,,2,legacy,824,1536,24,864,24,0,0,1536,1647505950225,1024,2,48000,-16,experiment,prototype5.png,1,odd,Win32,186,132651,129641,185,186,363071,364577,358066,134168,358066,186,,,,,,visual_patterns,0,0,0,yes,1366
undefined,undefined,undefined,undefined,white,no,Mozilla,Netscape,"5.0 (Windows NT 10.0; Win64; x64) AppleWebKit/537.36 (KHTML, like Gecko) Chrome/99.0.4844.74 Safari/537.36",xpyriment,legacy,legacy,0,uniform,0,0,0,0,24,24,24,0,0,30,30,30,30,30,0,30,0,,,,,,0,,17-02-22,17-02-22,09:32:27,Thu Mar 17 2022 09:32:27 GMT+0100 (közép-európai téli idő),The main experiment item,yes,0,0,C:/Users/rrics/Documents/!!ResearchBMECOGSCI/gnet,0,0,0,prototype2.png,no,mono,no,18,no,black,no,no,768,1201,3.5.6,legacy,xpyriment,osweb,1.3.13,0,left,space,left,,34566,20774,34566,,2,legacy,824,1536,24,864,24,0,0,1536,1647505950225,1024,2,48000,-16,experiment,p5sarrcol2.png,1,odd,Win32,186,132651,129641,185,186,369594,371105,364595,134168,364595,186,,,,,,visual_patterns,0,0,0,yes,1366
undefined,undefined,undefined,undefined,white,no,Mozilla,Netscape,"5.0 (Windows NT 10.0; Win64; x64) AppleWebKit/537.36 (KHTML, like Gecko) Chrome/99.0.4844.74 Safari/537.36",xpyriment,legacy,legacy,0,uniform,0,0,0,0,24,24,24,0,0,31,31,31,31,31,0,31,0,,,,,,0,,17-02-22,17-02-22,09:32:27,Thu Mar 17 2022 09:32:27 GMT+0100 (közép-európai téli idő),The main experiment item,yes,0,0,C:/Users/rrics/Documents/!!ResearchBMECOGSCI/gnet,0,0,0,prototype2.png,no,mono,no,18,no,black,no,no,768,1201,3.5.6,legacy,xpyriment,osweb,1.3.13,0,left,space,left,,34566,20774,34566,,2,legacy,824,1536,24,864,24,0,0,1536,1647505950225,1024,2,48000,-16,experiment,p2sarrsha2.png,1,odd,Win32,186,132651,129641,185,186,376122,377623,371122,134168,371122,186,,,,,,visual_patterns,0,0,0,yes,1366
undefined,undefined,undefined,undefined,white,no,Mozilla,Netscape,"5.0 (Windows NT 10.0; Win64; x64) AppleWebKit/537.36 (KHTML, like Gecko) Chrome/99.0.4844.74 Safari/537.36",xpyriment,legacy,legacy,0,uniform,0,0,0,0,24,24,24,0,0,32,32,32,32,32,0,32,0,,,,,,0,,17-02-22,17-02-22,09:32:27,Thu Mar 17 2022 09:32:27 GMT+0100 (közép-európai téli idő),The main experiment item,yes,0,0,C:/Users/rrics/Documents/!!ResearchBMECOGSCI/gnet,0,0,0,prototype2.png,no,mono,no,18,no,black,no,no,768,1201,3.5.6,legacy,xpyriment,osweb,1.3.13,0,left,space,left,,34566,20774,34566,,2,legacy,824,1536,24,864,24,0,0,1536,1647505950225,1024,2,48000,-16,experiment,p5sarr1.png,1,odd,Win32,186,132651,129641,185,186,382643,384145,377640,134168,377640,186,,,,,,visual_patterns,0,0,0,yes,1366
undefined,undefined,undefined,undefined,white,no,Mozilla,Netscape,"5.0 (Windows NT 10.0; Win64; x64) AppleWebKit/537.36 (KHTML, like Gecko) Chrome/99.0.4844.74 Safari/537.36",xpyriment,legacy,legacy,0,uniform,0,0,0,0,24,24,24,0,0,33,33,33,33,33,0,33,0,,,,,,0,,17-02-22,17-02-22,09:32:27,Thu Mar 17 2022 09:32:27 GMT+0100 (közép-európai téli idő),The main experiment item,yes,0,0,C:/Users/rrics/Documents/!!ResearchBMECOGSCI/gnet,0,0,0,prototype2.png,no,mono,no,18,no,black,no,no,768,1201,3.5.6,legacy,xpyriment,osweb,1.3.13,0,left,space,left,,34566,20774,34566,,2,legacy,824,1536,24,864,24,0,0,1536,1647505950225,1024,2,48000,-16,experiment,p3sarrshacol1.png,1,odd,Win32,186,132651,129641,185,186,389160,390668,384162,134168,384162,186,,,,,,visual_patterns,0,0,0,yes,1366
undefined,undefined,undefined,undefined,white,no,Mozilla,Netscape,"5.0 (Windows NT 10.0; Win64; x64) AppleWebKit/537.36 (KHTML, like Gecko) Chrome/99.0.4844.74 Safari/537.36",xpyriment,legacy,legacy,0,uniform,0,0,0,0,24,24,24,0,0,34,34,34,34,34,0,34,0,,,,,,0,,17-02-22,17-02-22,09:32:27,Thu Mar 17 2022 09:32:27 GMT+0100 (közép-európai téli idő),The main experiment item,yes,0,0,C:/Users/rrics/Documents/!!ResearchBMECOGSCI/gnet,0,0,0,prototype2.png,no,mono,no,18,no,black,no,no,768,1201,3.5.6,legacy,xpyriment,osweb,1.3.13,0,left,space,left,,34566,20774,34566,,2,legacy,824,1536,24,864,24,0,0,1536,1647505950225,1024,2,48000,-16,experiment,prototype1.png,1,odd,Win32,186,132651,129641,185,186,395683,397191,390683,134168,390683,186,,,,,,visual_patterns,0,0,0,yes,1366
undefined,undefined,undefined,undefined,white,no,Mozilla,Netscape,"5.0 (Windows NT 10.0; Win64; x64) AppleWebKit/537.36 (KHTML, like Gecko) Chrome/99.0.4844.74 Safari/537.36",xpyriment,legacy,legacy,0,uniform,0,0,0,0,24,24,24,0,0,35,35,35,35,35,0,35,0,,,,,,0,,17-02-22,17-02-22,09:32:27,Thu Mar 17 2022 09:32:27 GMT+0100 (közép-európai téli idő),The main experiment item,yes,0,0,C:/Users/rrics/Documents/!!ResearchBMECOGSCI/gnet,0,0,0,prototype2.png,no,mono,no,18,no,black,no,no,768,1201,3.5.6,legacy,xpyriment,osweb,1.3.13,0,left,space,left,,34566,20774,34566,,2,legacy,824,1536,24,864,24,0,0,1536,1647505950225,1024,2,48000,-16,experiment,p4sarrshacol1.png,1,odd,Win32,186,132651,129641,185,186,402210,403721,397209,134168,397208,186,,,,,,visual_patterns,0,0,0,yes,1366
undefined,undefined,undefined,undefined,white,no,Mozilla,Netscape,"5.0 (Windows NT 10.0; Win64; x64) AppleWebKit/537.36 (KHTML, like Gecko) Chrome/99.0.4844.74 Safari/537.36",xpyriment,legacy,legacy,0,uniform,0,0,0,0,24,24,24,0,0,36,36,36,36,36,0,36,0,,,,,,0,,17-02-22,17-02-22,09:32:27,Thu Mar 17 2022 09:32:27 GMT+0100 (közép-európai téli idő),The main experiment item,yes,0,0,C:/Users/rrics/Documents/!!ResearchBMECOGSCI/gnet,0,0,0,prototype2.png,no,mono,no,18,no,black,no,no,768,1201,3.5.6,legacy,xpyriment,osweb,1.3.13,0,left,space,left,,34566,20774,34566,,2,legacy,824,1536,24,864,24,0,0,1536,1647505950225,1024,2,48000,-16,experiment,prototype3.png,1,odd,Win32,186,132651,129641,185,186,408739,410253,403735,134168,403735,186,,,,,,visual_patterns,0,0,0,yes,1366
undefined,undefined,undefined,undefined,white,no,Mozilla,Netscape,"5.0 (Windows NT 10.0; Win64; x64) AppleWebKit/537.36 (KHTML, like Gecko) Chrome/99.0.4844.74 Safari/537.36",xpyriment,legacy,legacy,0,uniform,0,0,0,0,24,24,24,0,0,37,37,37,37,37,0,37,0,,,,,,0,,17-02-22,17-02-22,09:32:27,Thu Mar 17 2022 09:32:27 GMT+0100 (közép-európai téli idő),The main experiment item,yes,0,0,C:/Users/rrics/Documents/!!ResearchBMECOGSCI/gnet,0,0,0,prototype2.png,no,mono,no,18,no,black,no,no,768,1201,3.5.6,legacy,xpyriment,osweb,1.3.13,0,left,space,left,,34566,20774,34566,,2,legacy,824,1536,24,864,24,0,0,1536,1647505950225,1024,2,48000,-16,experiment,prototype3.png,1,odd,Win32,186,132651,129641,185,186,415270,416776,410267,134168,410267,186,,,,,,visual_patterns,0,0,0,yes,1366
undefined,undefined,undefined,undefined,white,no,Mozilla,Netscape,"5.0 (Windows NT 10.0; Win64; x64) AppleWebKit/537.36 (KHTML, like Gecko) Chrome/99.0.4844.74 Safari/537.36",xpyriment,legacy,legacy,0,uniform,0,0,0,0,24,24,24,0,0,38,38,38,38,38,0,38,0,,,,,,0,,17-02-22,17-02-22,09:32:27,Thu Mar 17 2022 09:32:27 GMT+0100 (közép-európai téli idő),The main experiment item,yes,0,0,C:/Users/rrics/Documents/!!ResearchBMECOGSCI/gnet,0,0,0,prototype2.png,no,mono,no,18,no,black,no,no,768,1201,3.5.6,legacy,xpyriment,osweb,1.3.13,0,left,space,left,,34566,20774,34566,,2,legacy,824,1536,24,864,24,0,0,1536,1647505950225,1024,2,48000,-16,experiment,p7sarr1.png,1,odd,Win32,186,132651,129641,185,186,421816,423332,416812,134168,416812,186,,,,,,visual_patterns,0,0,0,yes,1366
undefined,undefined,undefined,undefined,white,no,Mozilla,Netscape,"5.0 (Windows NT 10.0; Win64; x64) AppleWebKit/537.36 (KHTML, like Gecko) Chrome/99.0.4844.74 Safari/537.36",xpyriment,legacy,legacy,0,uniform,0,0,0,0,24,24,24,0,0,39,39,39,39,39,0,39,0,,,,,,0,,17-02-22,17-02-22,09:32:27,Thu Mar 17 2022 09:32:27 GMT+0100 (közép-európai téli idő),The main experiment item,yes,0,0,C:/Users/rrics/Documents/!!ResearchBMECOGSCI/gnet,0,0,0,prototype2.png,no,mono,no,18,no,black,no,no,768,1201,3.5.6,legacy,xpyriment,osweb,1.3.13,0,left,space,left,,34566,20774,34566,,2,legacy,824,1536,24,864,24,0,0,1536,1647505950225,1024,2,48000,-16,experiment,p1sarrsha1.png,1,odd,Win32,186,132651,129641,185,186,428353,429863,423350,134168,423350,186,,,,,,visual_patterns,0,0,0,yes,1366
undefined,undefined,undefined,undefined,white,no,Mozilla,Netscape,"5.0 (Windows NT 10.0; Win64; x64) AppleWebKit/537.36 (KHTML, like Gecko) Chrome/99.0.4844.74 Safari/537.36",xpyriment,legacy,legacy,0,uniform,0,0,0,0,24,24,24,0,0,40,40,40,40,40,0,40,0,,,,,,0,,17-02-22,17-02-22,09:32:27,Thu Mar 17 2022 09:32:27 GMT+0100 (közép-európai téli idő),The main experiment item,yes,0,0,C:/Users/rrics/Documents/!!ResearchBMECOGSCI/gnet,0,0,0,prototype2.png,no,mono,no,18,no,black,no,no,768,1201,3.5.6,legacy,xpyriment,osweb,1.3.13,0,left,space,left,,34566,20774,34566,,2,legacy,824,1536,24,864,24,0,0,1536,1647505950225,1024,2,48000,-16,experiment,prototype5.png,1,odd,Win32,186,132651,129641,185,186,434880,436402,429876,134168,429876,186,,,,,,visual_patterns,0,0,0,yes,1366
undefined,undefined,undefined,undefined,white,no,Mozilla,Netscape,"5.0 (Windows NT 10.0; Win64; x64) AppleWebKit/537.36 (KHTML, like Gecko) Chrome/99.0.4844.74 Safari/537.36",xpyriment,legacy,legacy,0,uniform,0,0,0,0,24,24,24,0,0,41,41,41,41,41,0,41,0,,,,,,0,,17-02-22,17-02-22,09:32:27,Thu Mar 17 2022 09:32:27 GMT+0100 (közép-európai téli idő),The main experiment item,yes,0,0,C:/Users/rrics/Documents/!!ResearchBMECOGSCI/gnet,0,0,0,prototype2.png,no,mono,no,18,no,black,no,no,768,1201,3.5.6,legacy,xpyriment,osweb,1.3.13,0,left,space,left,,34566,20774,34566,,2,legacy,824,1536,24,864,24,0,0,1536,1647505950225,1024,2,48000,-16,experiment,p3sarrshacol2.png,1,odd,Win32,186,132651,129641,185,186,441417,442922,436420,134168,436420,186,,,,,,visual_patterns,0,0,0,yes,1366
undefined,undefined,undefined,undefined,white,no,Mozilla,Netscape,"5.0 (Windows NT 10.0; Win64; x64) AppleWebKit/537.36 (KHTML, like Gecko) Chrome/99.0.4844.74 Safari/537.36",xpyriment,legacy,legacy,0,uniform,0,0,0,0,24,24,24,0,0,42,42,42,42,42,0,42,0,,,,,,0,,17-02-22,17-02-22,09:32:27,Thu Mar 17 2022 09:32:27 GMT+0100 (közép-európai téli idő),The main experiment item,yes,0,0,C:/Users/rrics/Documents/!!ResearchBMECOGSCI/gnet,0,0,0,prototype2.png,no,mono,no,18,no,black,no,no,768,1201,3.5.6,legacy,xpyriment,osweb,1.3.13,0,left,space,left,,34566,20774,34566,,2,legacy,824,1536,24,864,24,0,0,1536,1647505950225,1024,2,48000,-16,experiment,p3sarrcol2.png,1,odd,Win32,186,132651,129641,185,186,447937,449440,442940,134168,442940,186,,,,,,visual_patterns,0,0,0,yes,1366
undefined,undefined,undefined,undefined,white,no,Mozilla,Netscape,"5.0 (Windows NT 10.0; Win64; x64) AppleWebKit/537.36 (KHTML, like Gecko) Chrome/99.0.4844.74 Safari/537.36",xpyriment,legacy,legacy,0,uniform,0,0,0,0,24,24,24,0,0,43,43,43,43,43,0,43,0,,,,,,0,,17-02-22,17-02-22,09:32:27,Thu Mar 17 2022 09:32:27 GMT+0100 (közép-európai téli idő),The main experiment item,yes,0,0,C:/Users/rrics/Documents/!!ResearchBMECOGSCI/gnet,0,0,0,prototype2.png,no,mono,no,18,no,black,no,no,768,1201,3.5.6,legacy,xpyriment,osweb,1.3.13,0,left,space,left,,34566,20774,34566,,2,legacy,824,1536,24,864,24,0,0,1536,1647505950225,1024,2,48000,-16,experiment,p3sarr2.png,1,odd,Win32,186,132651,129641,185,186,454455,455963,449458,134168,449458,186,,,,,,visual_patterns,0,0,0,yes,1366
undefined,undefined,undefined,undefined,white,no,Mozilla,Netscape,"5.0 (Windows NT 10.0; Win64; x64) AppleWebKit/537.36 (KHTML, like Gecko) Chrome/99.0.4844.74 Safari/537.36",xpyriment,legacy,legacy,0,uniform,0,0,0,0,24,24,24,0,0,44,44,44,44,44,0,44,0,,,,,,0,,17-02-22,17-02-22,09:32:27,Thu Mar 17 2022 09:32:27 GMT+0100 (közép-európai téli idő),The main experiment item,yes,0,0,C:/Users/rrics/Documents/!!ResearchBMECOGSCI/gnet,0,0,0,prototype2.png,no,mono,no,18,no,black,no,no,768,1201,3.5.6,legacy,xpyriment,osweb,1.3.13,0,left,space,left,,34566,20774,34566,,2,legacy,824,1536,24,864,24,0,0,1536,1647505950225,1024,2,48000,-16,experiment,p2sarrsha1.png,1,odd,Win32,186,132651,129641,185,186,460984,462486,455984,134168,455984,186,,,,,,visual_patterns,0,0,0,yes,1366
undefined,undefined,undefined,undefined,white,no,Mozilla,Netscape,"5.0 (Windows NT 10.0; Win64; x64) AppleWebKit/537.36 (KHTML, like Gecko) Chrome/99.0.4844.74 Safari/537.36",xpyriment,legacy,legacy,0,uniform,0,0,0,0,24,24,24,0,0,45,45,45,45,45,0,45,0,,,,,,0,,17-02-22,17-02-22,09:32:27,Thu Mar 17 2022 09:32:27 GMT+0100 (közép-európai téli idő),The main experiment item,yes,0,0,C:/Users/rrics/Documents/!!ResearchBMECOGSCI/gnet,0,0,0,prototype2.png,no,mono,no,18,no,black,no,no,768,1201,3.5.6,legacy,xpyriment,osweb,1.3.13,0,left,space,left,,34566,20774,34566,,2,legacy,824,1536,24,864,24,0,0,1536,1647505950225,1024,2,48000,-16,experiment,p4sarrsha1.png,1,odd,Win32,186,132651,129641,185,186,467501,469009,462504,134168,462504,186,,,,,,visual_patterns,0,0,0,yes,1366
undefined,undefined,undefined,undefined,white,no,Mozilla,Netscape,"5.0 (Windows NT 10.0; Win64; x64) AppleWebKit/537.36 (KHTML, like Gecko) Chrome/99.0.4844.74 Safari/537.36",xpyriment,legacy,legacy,0,uniform,0,0,0,0,24,24,24,0,0,46,46,46,46,46,0,46,0,,,,,,0,,17-02-22,17-02-22,09:32:27,Thu Mar 17 2022 09:32:27 GMT+0100 (közép-európai téli idő),The main experiment item,yes,0,0,C:/Users/rrics/Documents/!!ResearchBMECOGSCI/gnet,0,0,0,prototype2.png,no,mono,no,18,no,black,no,no,768,1201,3.5.6,legacy,xpyriment,osweb,1.3.13,0,left,space,left,,34566,20774,34566,,2,legacy,824,1536,24,864,24,0,0,1536,1647505950225,1024,2,48000,-16,experiment,p1sarrcol1.png,1,odd,Win32,186,132651,129641,185,186,474027,475531,469029,134168,469029,186,,,,,,visual_patterns,0,0,0,yes,1366
undefined,undefined,undefined,undefined,white,no,Mozilla,Netscape,"5.0 (Windows NT 10.0; Win64; x64) AppleWebKit/537.36 (KHTML, like Gecko) Chrome/99.0.4844.74 Safari/537.36",xpyriment,legacy,legacy,0,uniform,0,0,0,0,24,24,24,0,0,47,47,47,47,47,0,47,0,,,,,,0,,17-02-22,17-02-22,09:32:27,Thu Mar 17 2022 09:32:27 GMT+0100 (közép-európai téli idő),The main experiment item,yes,0,0,C:/Users/rrics/Documents/!!ResearchBMECOGSCI/gnet,0,0,0,prototype2.png,no,mono,no,18,no,black,no,no,768,1201,3.5.6,legacy,xpyriment,osweb,1.3.13,0,left,space,left,,34566,20774,34566,,2,legacy,824,1536,24,864,24,0,0,1536,1647505950225,1024,2,48000,-16,experiment,p1sarrsha2.png,1,odd,Win32,186,132651,129641,185,186,480552,482055,475544,134168,475544,186,,,,,,visual_patterns,0,0,0,yes,1366
undefined,undefined,undefined,undefined,white,no,Mozilla,Netscape,"5.0 (Windows NT 10.0; Win64; x64) AppleWebKit/537.36 (KHTML, like Gecko) Chrome/99.0.4844.74 Safari/537.36",xpyriment,legacy,legacy,0,uniform,0,0,0,0,24,24,24,0,0,48,48,48,48,48,0,48,0,,,,,,0,,17-02-22,17-02-22,09:32:27,Thu Mar 17 2022 09:32:27 GMT+0100 (közép-európai téli idő),The main experiment item,yes,0,0,C:/Users/rrics/Documents/!!ResearchBMECOGSCI/gnet,0,0,0,prototype2.png,no,mono,no,18,no,black,no,no,768,1201,3.5.6,legacy,xpyriment,osweb,1.3.13,0,left,space,left,,34566,20774,34566,,2,legacy,824,1536,24,864,24,0,0,1536,1647505950225,1024,2,48000,-16,experiment,p7sarr2.png,1,odd,Win32,186,132651,129641,185,186,487077,488594,482074,134168,482074,186,,,,,,visual_patterns,0,0,0,yes,1366
undefined,undefined,undefined,undefined,white,no,Mozilla,Netscape,"5.0 (Windows NT 10.0; Win64; x64) AppleWebKit/537.36 (KHTML, like Gecko) Chrome/99.0.4844.74 Safari/537.36",xpyriment,legacy,legacy,0,uniform,0,0,0,0,24,24,24,0,0,49,49,49,49,49,0,49,0,,,,,,0,,17-02-22,17-02-22,09:32:27,Thu Mar 17 2022 09:32:27 GMT+0100 (közép-európai téli idő),The main experiment item,yes,0,0,C:/Users/rrics/Documents/!!ResearchBMECOGSCI/gnet,0,0,0,prototype2.png,no,mono,no,18,no,black,no,no,768,1201,3.5.6,legacy,xpyriment,osweb,1.3.13,0,left,space,left,,34566,20774,34566,,2,legacy,824,1536,24,864,24,0,0,1536,1647505950225,1024,2,48000,-16,experiment,p4sarr1.png,1,odd,Win32,186,132651,129641,185,186,493608,495117,488614,134168,488614,186,,,,,,visual_patterns,0,0,0,yes,1366
undefined,undefined,undefined,undefined,white,no,Mozilla,Netscape,"5.0 (Windows NT 10.0; Win64; x64) AppleWebKit/537.36 (KHTML, like Gecko) Chrome/99.0.4844.74 Safari/537.36",xpyriment,legacy,legacy,0,uniform,0,0,0,0,24,24,24,0,0,50,50,50,50,50,0,50,0,,,,,,0,,17-02-22,17-02-22,09:32:27,Thu Mar 17 2022 09:32:27 GMT+0100 (közép-európai téli idő),The main experiment item,yes,0,0,C:/Users/rrics/Documents/!!ResearchBMECOGSCI/gnet,0,0,0,prototype2.png,no,mono,no,18,no,black,no,no,768,1201,3.5.6,legacy,xpyriment,osweb,1.3.13,0,left,space,left,,34566,20774,34566,,2,legacy,824,1536,24,864,24,0,0,1536,1647505950225,1024,2,48000,-16,experiment,p10sarr1.png,1,odd,Win32,186,132651,129641,185,186,500131,501640,495135,134168,495135,186,,,,,,visual_patterns,0,0,0,yes,1366
undefined,undefined,undefined,undefined,white,no,Mozilla,Netscape,"5.0 (Windows NT 10.0; Win64; x64) AppleWebKit/537.36 (KHTML, like Gecko) Chrome/99.0.4844.74 Safari/537.36",xpyriment,legacy,legacy,0,uniform,0,0,0,0,24,24,24,0,0,51,51,51,51,51,0,51,0,,,,,,0,,17-02-22,17-02-22,09:32:27,Thu Mar 17 2022 09:32:27 GMT+0100 (közép-európai téli idő),The main experiment item,yes,0,0,C:/Users/rrics/Documents/!!ResearchBMECOGSCI/gnet,0,0,0,prototype2.png,no,mono,no,18,no,black,no,no,768,1201,3.5.6,legacy,xpyriment,osweb,1.3.13,0,left,space,left,,34566,20774,34566,,2,legacy,824,1536,24,864,24,0,0,1536,1647505950225,1024,2,48000,-16,experiment,prototype3.png,1,odd,Win32,186,132651,129641,185,186,506659,508162,501653,134168,501653,186,,,,,,visual_patterns,0,0,0,yes,1366
undefined,undefined,undefined,undefined,white,no,Mozilla,Netscape,"5.0 (Windows NT 10.0; Win64; x64) AppleWebKit/537.36 (KHTML, like Gecko) Chrome/99.0.4844.74 Safari/537.36",xpyriment,legacy,legacy,0,uniform,0,0,0,0,24,24,24,0,0,52,52,52,52,52,0,52,0,,,,,,0,,17-02-22,17-02-22,09:32:27,Thu Mar 17 2022 09:32:27 GMT+0100 (közép-európai téli idő),The main experiment item,yes,0,0,C:/Users/rrics/Documents/!!ResearchBMECOGSCI/gnet,0,0,0,prototype2.png,no,mono,no,18,no,black,no,no,768,1201,3.5.6,legacy,xpyriment,osweb,1.3.13,0,left,space,left,,34566,20774,34566,,2,legacy,824,1536,24,864,24,0,0,1536,1647505950225,1024,2,48000,-16,experiment,p1sarr1.png,1,odd,Win32,186,132651,129641,185,186,513177,514685,508183,134168,508183,186,,,,,,visual_patterns,0,0,0,yes,1366
undefined,undefined,undefined,undefined,white,no,Mozilla,Netscape,"5.0 (Windows NT 10.0; Win64; x64) AppleWebKit/537.36 (KHTML, like Gecko) Chrome/99.0.4844.74 Safari/537.36",xpyriment,legacy,legacy,0,uniform,0,0,0,0,24,24,24,0,0,53,53,53,53,53,0,53,0,,,,,,0,,17-02-22,17-02-22,09:32:27,Thu Mar 17 2022 09:32:27 GMT+0100 (közép-európai téli idő),The main experiment item,yes,0,0,C:/Users/rrics/Documents/!!ResearchBMECOGSCI/gnet,0,0,0,prototype2.png,no,mono,no,18,no,black,no,no,768,1201,3.5.6,legacy,xpyriment,osweb,1.3.13,0,left,space,left,,34566,20774,34566,,2,legacy,824,1536,24,864,24,0,0,1536,1647505950225,1024,2,48000,-16,experiment,p1sarrcol2.png,1,odd,Win32,186,132651,129641,185,186,519710,521225,514713,134168,514713,186,,,,,,visual_patterns,0,0,0,yes,1366
undefined,undefined,undefined,undefined,white,no,Mozilla,Netscape,"5.0 (Windows NT 10.0; Win64; x64) AppleWebKit/537.36 (KHTML, like Gecko) Chrome/99.0.4844.74 Safari/537.36",xpyriment,legacy,legacy,0,uniform,0,0,0,0,24,24,24,0,0,54,54,54,54,54,0,54,0,,,,,,0,,17-02-22,17-02-22,09:32:27,Thu Mar 17 2022 09:32:27 GMT+0100 (közép-európai téli idő),The main experiment item,yes,0,0,C:/Users/rrics/Documents/!!ResearchBMECOGSCI/gnet,0,0,0,prototype2.png,no,mono,no,18,no,black,no,no,768,1201,3.5.6,legacy,xpyriment,osweb,1.3.13,0,left,space,left,,34566,20774,34566,,2,legacy,824,1536,24,864,24,0,0,1536,1647505950225,1024,2,48000,-16,experiment,p2sarrcol2.png,1,odd,Win32,186,132651,129641,185,186,526244,527748,521243,134168,521243,186,,,,,,visual_patterns,0,0,0,yes,1366
undefined,undefined,undefined,undefined,white,no,Mozilla,Netscape,"5.0 (Windows NT 10.0; Win64; x64) AppleWebKit/537.36 (KHTML, like Gecko) Chrome/99.0.4844.74 Safari/537.36",xpyriment,legacy,legacy,0,uniform,0,0,0,0,24,24,24,0,0,55,55,55,55,55,0,55,0,,,,,,0,,17-02-22,17-02-22,09:32:27,Thu Mar 17 2022 09:32:27 GMT+0100 (közép-európai téli idő),The main experiment item,yes,0,0,C:/Users/rrics/Documents/!!ResearchBMECOGSCI/gnet,0,0,0,prototype2.png,no,mono,no,18,no,black,no,no,768,1201,3.5.6,legacy,xpyriment,osweb,1.3.13,0,left,space,left,,34566,20774,34566,,2,legacy,824,1536,24,864,24,0,0,1536,1647505950225,1024,2,48000,-16,experiment,prototype4.png,1,odd,Win32,186,132651,129641,185,186,532767,534270,527763,134168,527763,186,,,,,,visual_patterns,0,0,0,yes,1366
undefined,undefined,undefined,undefined,white,no,Mozilla,Netscape,"5.0 (Windows NT 10.0; Win64; x64) AppleWebKit/537.36 (KHTML, like Gecko) Chrome/99.0.4844.74 Safari/537.36",xpyriment,legacy,legacy,0,uniform,0,0,0,0,24,24,24,0,0,56,56,56,56,56,0,56,0,,,,,,0,,17-02-22,17-02-22,09:32:27,Thu Mar 17 2022 09:32:27 GMT+0100 (közép-európai téli idő),The main experiment item,yes,0,0,C:/Users/rrics/Documents/!!ResearchBMECOGSCI/gnet,0,0,0,prototype2.png,no,mono,no,18,no,black,no,no,768,1201,3.5.6,legacy,xpyriment,osweb,1.3.13,0,left,space,left,,34566,20774,34566,,2,legacy,824,1536,24,864,24,0,0,1536,1647505950225,1024,2,48000,-16,experiment,p2sarrshacol1.png,1,odd,Win32,186,132651,129641,185,186,539286,540793,534289,134168,534289,186,,,,,,visual_patterns,0,0,0,yes,1366
undefined,undefined,undefined,undefined,white,no,Mozilla,Netscape,"5.0 (Windows NT 10.0; Win64; x64) AppleWebKit/537.36 (KHTML, like Gecko) Chrome/99.0.4844.74 Safari/537.36",xpyriment,legacy,legacy,0,uniform,0,0,0,0,24,24,24,0,0,57,57,57,57,57,0,57,0,,,,,,0,,17-02-22,17-02-22,09:32:27,Thu Mar 17 2022 09:32:27 GMT+0100 (közép-európai téli idő),The main experiment item,yes,0,0,C:/Users/rrics/Documents/!!ResearchBMECOGSCI/gnet,0,0,0,prototype2.png,no,mono,no,18,no,black,no,no,768,1201,3.5.6,legacy,xpyriment,osweb,1.3.13,0,left,space,left,,34566,20774,34566,,2,legacy,824,1536,24,864,24,0,0,1536,1647505950225,1024,2,48000,-16,experiment,prototype5.png,1,odd,Win32,186,132651,129641,185,186,545811,547316,540806,134168,540806,186,,,,,,visual_patterns,0,0,0,yes,1366
undefined,undefined,undefined,undefined,white,no,Mozilla,Netscape,"5.0 (Windows NT 10.0; Win64; x64) AppleWebKit/537.36 (KHTML, like Gecko) Chrome/99.0.4844.74 Safari/537.36",xpyriment,legacy,legacy,0,uniform,0,0,0,0,24,24,24,0,0,58,58,58,58,58,0,58,0,,,,,,0,,17-02-22,17-02-22,09:32:27,Thu Mar 17 2022 09:32:27 GMT+0100 (közép-európai téli idő),The main experiment item,yes,0,0,C:/Users/rrics/Documents/!!ResearchBMECOGSCI/gnet,0,0,0,prototype2.png,no,mono,no,18,no,black,no,no,768,1201,3.5.6,legacy,xpyriment,osweb,1.3.13,0,left,space,left,,34566,20774,34566,,2,legacy,824,1536,24,864,24,0,0,1536,1647505950225,1024,2,48000,-16,experiment,prototype2.png,1,odd,Win32,186,132651,129641,185,186,552330,553846,547329,134168,547329,186,,,,,,visual_patterns,0,0,0,yes,1366
undefined,undefined,undefined,undefined,white,no,Mozilla,Netscape,"5.0 (Windows NT 10.0; Win64; x64) AppleWebKit/537.36 (KHTML, like Gecko) Chrome/99.0.4844.74 Safari/537.36",xpyriment,legacy,legacy,0,uniform,0,0,0,0,24,24,24,0,0,59,59,59,59,59,0,59,0,,,,,,0,,17-02-22,17-02-22,09:32:27,Thu Mar 17 2022 09:32:27 GMT+0100 (közép-európai téli idő),The main experiment item,yes,0,0,C:/Users/rrics/Documents/!!ResearchBMECOGSCI/gnet,0,0,0,prototype2.png,no,mono,no,18,no,black,no,no,768,1201,3.5.6,legacy,xpyriment,osweb,1.3.13,0,left,space,left,,34566,20774,34566,,2,legacy,824,1536,24,864,24,0,0,1536,1647505950225,1024,2,48000,-16,experiment,prototype5.png,1,odd,Win32,186,132651,129641,185,186,558864,560378,553859,134168,553859,186,,,,,,visual_patterns,0,0,0,yes,1366
undefined,undefined,undefined,undefined,white,no,Mozilla,Netscape,"5.0 (Windows NT 10.0; Win64; x64) AppleWebKit/537.36 (KHTML, like Gecko) Chrome/99.0.4844.74 Safari/537.36",xpyriment,legacy,legacy,0,uniform,0,0,0,0,24,24,24,0,0,60,60,60,60,60,0,60,0,,,,,,0,,17-02-22,17-02-22,09:32:27,Thu Mar 17 2022 09:32:27 GMT+0100 (közép-európai téli idő),The main experiment item,yes,0,0,C:/Users/rrics/Documents/!!ResearchBMECOGSCI/gnet,0,0,0,prototype2.png,no,mono,no,18,no,black,no,no,768,1201,3.5.6,legacy,xpyriment,osweb,1.3.13,0,left,space,left,,34566,20774,34566,,2,legacy,824,1536,24,864,24,0,0,1536,1647505950225,1024,2,48000,-16,experiment,p1sarrshacol2.png,1,odd,Win32,186,132651,129641,185,186,565394,566901,560397,134168,560397,186,,,,,,visual_patterns,0,0,0,yes,1366
undefined,undefined,undefined,undefined,white,no,Mozilla,Netscape,"5.0 (Windows NT 10.0; Win64; x64) AppleWebKit/537.36 (KHTML, like Gecko) Chrome/99.0.4844.74 Safari/537.36",xpyriment,legacy,legacy,0,uniform,0,0,0,0,24,24,24,0,0,61,61,61,61,61,0,61,0,,,,,,0,,17-02-22,17-02-22,09:32:27,Thu Mar 17 2022 09:32:27 GMT+0100 (közép-európai téli idő),The main experiment item,yes,0,0,C:/Users/rrics/Documents/!!ResearchBMECOGSCI/gnet,0,0,0,prototype2.png,no,mono,no,18,no,black,no,no,768,1201,3.5.6,legacy,xpyriment,osweb,1.3.13,0,left,space,left,,34566,20774,34566,,2,legacy,824,1536,24,864,24,0,0,1536,1647505950225,1024,2,48000,-16,experiment,p2sarrcol1.png,1,odd,Win32,186,132651,129641,185,186,571920,573424,566920,134168,566920,186,,,,,,visual_patterns,0,0,0,yes,1366
undefined,undefined,undefined,undefined,white,no,Mozilla,Netscape,"5.0 (Windows NT 10.0; Win64; x64) AppleWebKit/537.36 (KHTML, like Gecko) Chrome/99.0.4844.74 Safari/537.36",xpyriment,legacy,legacy,0,uniform,0,0,0,0,24,24,24,0,0,62,62,62,62,62,0,62,0,,,,,,0,,17-02-22,17-02-22,09:32:27,Thu Mar 17 2022 09:32:27 GMT+0100 (közép-európai téli idő),The main experiment item,yes,0,0,C:/Users/rrics/Documents/!!ResearchBMECOGSCI/gnet,0,0,0,prototype2.png,no,mono,no,18,no,black,no,no,768,1201,3.5.6,legacy,xpyriment,osweb,1.3.13,0,left,space,left,,34566,20774,34566,,2,legacy,824,1536,24,864,24,0,0,1536,1647505950225,1024,2,48000,-16,experiment,p5sarr2.png,1,odd,Win32,186,132651,129641,185,186,578440,579947,573445,134168,573444,186,,,,,,visual_patterns,0,0,0,yes,1366
undefined,undefined,undefined,undefined,white,no,Mozilla,Netscape,"5.0 (Windows NT 10.0; Win64; x64) AppleWebKit/537.36 (KHTML, like Gecko) Chrome/99.0.4844.74 Safari/537.36",xpyriment,legacy,legacy,0,uniform,0,0,0,0,24,24,24,0,0,63,63,63,63,63,0,63,0,,,,,,0,,17-02-22,17-02-22,09:32:27,Thu Mar 17 2022 09:32:27 GMT+0100 (közép-európai téli idő),The main experiment item,yes,0,0,C:/Users/rrics/Documents/!!ResearchBMECOGSCI/gnet,0,0,0,prototype2.png,no,mono,no,18,no,black,no,no,768,1201,3.5.6,legacy,xpyriment,osweb,1.3.13,0,left,space,left,,34566,20774,34566,,2,legacy,824,1536,24,864,24,0,0,1536,1647505950225,1024,2,48000,-16,experiment,p10sarr2.png,1,odd,Win32,186,132651,129641,185,186,584962,586470,579963,134168,579963,186,,,,,,visual_patterns,0,0,0,yes,1366
undefined,undefined,undefined,undefined,white,no,Mozilla,Netscape,"5.0 (Windows NT 10.0; Win64; x64) AppleWebKit/537.36 (KHTML, like Gecko) Chrome/99.0.4844.74 Safari/537.36",xpyriment,legacy,legacy,0,uniform,0,0,0,0,24,24,24,0,0,64,64,64,64,64,0,64,0,,,,,,0,,17-02-22,17-02-22,09:32:27,Thu Mar 17 2022 09:32:27 GMT+0100 (közép-európai téli idő),The main experiment item,yes,0,0,C:/Users/rrics/Documents/!!ResearchBMECOGSCI/gnet,0,0,0,prototype2.png,no,mono,no,18,no,black,no,no,768,1201,3.5.6,legacy,xpyriment,osweb,1.3.13,0,left,space,left,,34566,20774,34566,,2,legacy,824,1536,24,864,24,0,0,1536,1647505950225,1024,2,48000,-16,experiment,prototype1.png,1,odd,Win32,186,132651,129641,185,186,591488,592992,586482,134168,586482,186,,,,,,visual_patterns,0,0,0,yes,1366
undefined,undefined,undefined,undefined,white,no,Mozilla,Netscape,"5.0 (Windows NT 10.0; Win64; x64) AppleWebKit/537.36 (KHTML, like Gecko) Chrome/99.0.4844.74 Safari/537.36",xpyriment,legacy,legacy,0,uniform,0,0,0,0,24,24,24,0,0,65,65,65,65,65,0,65,0,,,,,,0,,17-02-22,17-02-22,09:32:27,Thu Mar 17 2022 09:32:27 GMT+0100 (közép-európai téli idő),The main experiment item,yes,0,0,C:/Users/rrics/Documents/!!ResearchBMECOGSCI/gnet,0,0,0,prototype2.png,no,mono,no,18,no,black,no,no,768,1201,3.5.6,legacy,xpyriment,osweb,1.3.13,0,left,space,left,,34566,20774,34566,,2,legacy,824,1536,24,864,24,0,0,1536,1647505950225,1024,2,48000,-16,experiment,prototype4.png,1,odd,Win32,186,132651,129641,185,186,598012,599515,593008,134168,593007,186,,,,,,visual_patterns,0,0,0,yes,1366
undefined,undefined,undefined,undefined,white,no,Mozilla,Netscape,"5.0 (Windows NT 10.0; Win64; x64) AppleWebKit/537.36 (KHTML, like Gecko) Chrome/99.0.4844.74 Safari/537.36",xpyriment,legacy,legacy,0,uniform,0,0,0,0,24,24,24,0,0,66,66,66,66,66,0,66,0,,,,,,0,,17-02-22,17-02-22,09:32:27,Thu Mar 17 2022 09:32:27 GMT+0100 (közép-európai téli idő),The main experiment item,yes,0,0,C:/Users/rrics/Documents/!!ResearchBMECOGSCI/gnet,0,0,0,prototype2.png,no,mono,no,18,no,black,no,no,768,1201,3.5.6,legacy,xpyriment,osweb,1.3.13,0,left,space,left,,34566,20774,34566,,2,legacy,824,1536,24,864,24,0,0,1536,1647505950225,1024,2,48000,-16,experiment,p2sarrshacol2.png,1,odd,Win32,186,132651,129641,185,186,604529,606044,599534,134168,599534,186,,,,,,visual_patterns,0,0,0,yes,1366
undefined,undefined,undefined,undefined,white,no,Mozilla,Netscape,"5.0 (Windows NT 10.0; Win64; x64) AppleWebKit/537.36 (KHTML, like Gecko) Chrome/99.0.4844.74 Safari/537.36",xpyriment,legacy,legacy,0,uniform,0,0,0,0,24,24,24,0,0,67,67,67,67,67,0,67,0,,,,,,0,,17-02-22,17-02-22,09:32:27,Thu Mar 17 2022 09:32:27 GMT+0100 (közép-európai téli idő),The main experiment item,yes,0,0,C:/Users/rrics/Documents/!!ResearchBMECOGSCI/gnet,0,0,0,prototype2.png,no,mono,no,18,no,black,no,no,768,1201,3.5.6,legacy,xpyriment,osweb,1.3.13,0,left,space,left,,34566,20774,34566,,2,legacy,824,1536,24,864,24,0,0,1536,1647505950225,1024,2,48000,-16,experiment,p1sarr2.png,1,odd,Win32,186,132651,129641,185,186,611052,612561,606055,134168,606055,186,,,,,,visual_patterns,0,0,0,yes,1366
undefined,undefined,undefined,undefined,white,no,Mozilla,Netscape,"5.0 (Windows NT 10.0; Win64; x64) AppleWebKit/537.36 (KHTML, like Gecko) Chrome/99.0.4844.74 Safari/537.36",xpyriment,legacy,legacy,0,uniform,0,0,0,0,24,24,24,0,0,68,68,68,68,68,0,68,0,,,,,,0,,17-02-22,17-02-22,09:32:27,Thu Mar 17 2022 09:32:27 GMT+0100 (közép-európai téli idő),The main experiment item,yes,0,0,C:/Users/rrics/Documents/!!ResearchBMECOGSCI/gnet,0,0,0,prototype2.png,no,mono,no,18,no,black,no,no,768,1201,3.5.6,legacy,xpyriment,osweb,1.3.13,0,left,space,left,,34566,20774,34566,,2,legacy,824,1536,24,864,24,0,0,1536,1647505950225,1024,2,48000,-16,experiment,p6sarr2.png,1,odd,Win32,186,132651,129641,185,186,617581,619084,612578,134168,612578,186,,,,,,visual_patterns,0,0,0,yes,1366
undefined,undefined,undefined,undefined,white,no,Mozilla,Netscape,"5.0 (Windows NT 10.0; Win64; x64) AppleWebKit/537.36 (KHTML, like Gecko) Chrome/99.0.4844.74 Safari/537.36",xpyriment,legacy,legacy,0,uniform,0,0,0,0,24,24,24,0,0,69,69,69,69,69,0,69,0,,,,,,0,,17-02-22,17-02-22,09:32:27,Thu Mar 17 2022 09:32:27 GMT+0100 (közép-európai téli idő),The main experiment item,yes,0,0,C:/Users/rrics/Documents/!!ResearchBMECOGSCI/gnet,0,0,0,prototype2.png,no,mono,no,18,no,black,no,no,768,1201,3.5.6,legacy,xpyriment,osweb,1.3.13,0,left,space,left,,34566,20774,34566,,2,legacy,824,1536,24,864,24,0,0,1536,1647505950225,1024,2,48000,-16,experiment,prototype2.png,1,odd,Win32,186,132651,129641,185,186,624101,625607,619099,134168,619099,186,,,,,,visual_patterns,0,0,0,yes,1366
undefined,undefined,undefined,undefined,white,no,Mozilla,Netscape,"5.0 (Windows NT 10.0; Win64; x64) AppleWebKit/537.36 (KHTML, like Gecko) Chrome/99.0.4844.74 Safari/537.36",xpyriment,legacy,legacy,0,uniform,0,0,0,0,24,24,24,0,0,70,70,70,70,70,0,70,0,,,,,,0,,17-02-22,17-02-22,09:32:27,Thu Mar 17 2022 09:32:27 GMT+0100 (közép-európai téli idő),The main experiment item,yes,0,0,C:/Users/rrics/Documents/!!ResearchBMECOGSCI/gnet,0,0,0,prototype2.png,no,mono,no,18,no,black,no,no,768,1201,3.5.6,legacy,xpyriment,osweb,1.3.13,0,left,space,left,,34566,20774,34566,,2,legacy,824,1536,24,864,24,0,0,1536,1647505950225,1024,2,48000,-16,experiment,p1sarrshacol1.png,1,odd,Win32,186,132651,129641,185,186,630626,632129,625625,134168,625625,186,,,,,,visual_patterns,0,0,0,yes,1366
undefined,undefined,undefined,undefined,white,no,Mozilla,Netscape,"5.0 (Windows NT 10.0; Win64; x64) AppleWebKit/537.36 (KHTML, like Gecko) Chrome/99.0.4844.74 Safari/537.36",xpyriment,legacy,legacy,0,uniform,0,0,0,0,24,24,24,0,0,71,71,71,71,71,0,71,0,,,,,,0,,17-02-22,17-02-22,09:32:27,Thu Mar 17 2022 09:32:27 GMT+0100 (közép-európai téli idő),The main experiment item,yes,0,0,C:/Users/rrics/Documents/!!ResearchBMECOGSCI/gnet,0,0,0,prototype2.png,no,mono,no,18,no,black,no,no,768,1201,3.5.6,legacy,xpyriment,osweb,1.3.13,0,left,space,left,,34566,20774,34566,,2,legacy,824,1536,24,864,24,0,0,1536,1647505950225,1024,2,48000,-16,experiment,prototype1.png,1,odd,Win32,186,132651,129641,185,186,637149,638652,632141,134168,632141,186,,,,,,visual_patterns,0,0,0,yes,1366
undefined,undefined,undefined,undefined,white,no,Mozilla,Netscape,"5.0 (Windows NT 10.0; Win64; x64) AppleWebKit/537.36 (KHTML, like Gecko) Chrome/99.0.4844.74 Safari/537.36",xpyriment,legacy,legacy,0,uniform,0,0,0,0,24,24,24,0,0,72,72,72,72,72,0,72,0,,,,,,0,,17-02-22,17-02-22,09:32:27,Thu Mar 17 2022 09:32:27 GMT+0100 (közép-európai téli idő),The main experiment item,yes,0,0,C:/Users/rrics/Documents/!!ResearchBMECOGSCI/gnet,0,0,0,prototype2.png,no,mono,no,18,no,black,no,no,768,1201,3.5.6,legacy,xpyriment,osweb,1.3.13,0,left,space,left,,34566,20774,34566,,2,legacy,824,1536,24,864,24,0,0,1536,1647505950225,1024,2,48000,-16,experiment,prototype5.png,1,odd,Win32,186,132651,129641,185,186,643672,645175,638667,134168,638667,186,,,,,,visual_patterns,0,0,0,yes,1366
undefined,undefined,undefined,undefined,white,no,Mozilla,Netscape,"5.0 (Windows NT 10.0; Win64; x64) AppleWebKit/537.36 (KHTML, like Gecko) Chrome/99.0.4844.74 Safari/537.36",xpyriment,legacy,legacy,0,uniform,0,0,0,0,24,24,24,0,0,73,73,73,73,73,0,73,0,,,,,,0,,17-02-22,17-02-22,09:32:27,Thu Mar 17 2022 09:32:27 GMT+0100 (közép-európai téli idő),The main experiment item,yes,0,0,C:/Users/rrics/Documents/!!ResearchBMECOGSCI/gnet,0,0,0,prototype2.png,no,mono,no,18,no,black,no,no,768,1201,3.5.6,legacy,xpyriment,osweb,1.3.13,0,left,space,left,,34566,20774,34566,,2,legacy,824,1536,24,864,24,0,0,1536,1647505950225,1024,2,48000,-16,experiment,prototype3.png,1,odd,Win32,186,132651,129641,185,186,650207,651719,645206,134168,645206,186,,,,,,visual_patterns,0,0,0,yes,1366
undefined,undefined,undefined,undefined,white,no,Mozilla,Netscape,"5.0 (Windows NT 10.0; Win64; x64) AppleWebKit/537.36 (KHTML, like Gecko) Chrome/99.0.4844.74 Safari/537.36",xpyriment,legacy,legacy,0,uniform,0,0,0,0,24,24,24,0,0,74,74,74,74,74,0,74,0,,,,,,0,,17-02-22,17-02-22,09:32:27,Thu Mar 17 2022 09:32:27 GMT+0100 (közép-európai téli idő),The main experiment item,yes,0,0,C:/Users/rrics/Documents/!!ResearchBMECOGSCI/gnet,0,0,0,prototype2.png,no,mono,no,18,no,black,no,no,768,1201,3.5.6,legacy,xpyriment,osweb,1.3.13,0,left,space,left,,34566,20774,34566,,2,legacy,824,1536,24,864,24,0,0,1536,1647505950225,1024,2,48000,-16,experiment,prototype2.png,1,odd,Win32,186,132651,129641,185,186,656737,658254,651734,134168,651734,186,,,,,,visual_patterns,0,0,0,yes,1366
undefined,undefined,undefined,undefined,white,no,Mozilla,Netscape,"5.0 (Windows NT 10.0; Win64; x64) AppleWebKit/537.36 (KHTML, like Gecko) Chrome/99.0.4844.74 Safari/537.36",xpyriment,legacy,legacy,0,uniform,0,0,0,0,24,24,24,0,0,74,74,74,74,74,0,74,0,0,0,0,0,0,0,0,17-02-22,17-02-22,09:32:27,Thu Mar 17 2022 09:32:27 GMT+0100 (közép-európai téli idő),The main experiment item,yes,0,0,C:/Users/rrics/Documents/!!ResearchBMECOGSCI/gnet,0,0,0,prototype2.png,no,mono,no,18,no,black,no,no,768,1201,3.5.6,legacy,xpyriment,osweb,1.3.13,0,space,space,left,space,49939,20774,34566,49939,2,legacy,824,1536,24,864,24,0,0,1536,1647505950225,1024,2,48000,-16,experiment,p5sarrsha3.png,1,odd,Win32,186,132651,129641,185,186,656737,658254,651734,134168,651734,186,711241,712749,708246,658264,708246,visual_patterns,0,0,0,yes,1366
undefined,undefined,undefined,undefined,white,no,Mozilla,Netscape,"5.0 (Windows NT 10.0; Win64; x64) AppleWebKit/537.36 (KHTML, like Gecko) Chrome/99.0.4844.74 Safari/537.36",xpyriment,legacy,legacy,0,uniform,0,0,0,0,24,24,24,0,0,74,74,74,74,74,0,74,0,1,1,1,1,1,0,1,17-02-22,17-02-22,09:32:27,Thu Mar 17 2022 09:32:27 GMT+0100 (közép-európai téli idő),The main experiment item,yes,0,0,C:/Users/rrics/Documents/!!ResearchBMECOGSCI/gnet,0,0,0,prototype2.png,no,mono,no,18,no,black,no,no,768,1201,3.5.6,legacy,xpyriment,osweb,1.3.13,0,space,space,left,space,49939,20774,34566,49939,2,legacy,824,1536,24,864,24,0,0,1536,1647505950225,1024,2,48000,-16,experiment,p2sarrshacol1.png,1,odd,Win32,186,132651,129641,185,186,656737,658254,651734,134168,651734,186,715770,717276,712770,658264,712770,visual_patterns,0,0,0,yes,1366
undefined,undefined,undefined,undefined,white,no,Mozilla,Netscape,"5.0 (Windows NT 10.0; Win64; x64) AppleWebKit/537.36 (KHTML, like Gecko) Chrome/99.0.4844.74 Safari/537.36",xpyriment,legacy,legacy,0,uniform,0,0,0,0,24,24,24,0,0,74,74,74,74,74,0,74,0,2,2,2,2,2,0,2,17-02-22,17-02-22,09:32:27,Thu Mar 17 2022 09:32:27 GMT+0100 (közép-európai téli idő),The main experiment item,yes,0,0,C:/Users/rrics/Documents/!!ResearchBMECOGSCI/gnet,0,0,0,prototype2.png,no,mono,no,18,no,black,no,no,768,1201,3.5.6,legacy,xpyriment,osweb,1.3.13,0,space,space,left,space,49939,20774,34566,49939,2,legacy,824,1536,24,864,24,0,0,1536,1647505950225,1024,2,48000,-16,experiment,p4sarr4.png,1,odd,Win32,186,132651,129641,185,186,656737,658254,651734,134168,651734,186,720294,721802,717297,658264,717297,visual_patterns,0,0,0,yes,1366
undefined,undefined,undefined,undefined,white,no,Mozilla,Netscape,"5.0 (Windows NT 10.0; Win64; x64) AppleWebKit/537.36 (KHTML, like Gecko) Chrome/99.0.4844.74 Safari/537.36",xpyriment,legacy,legacy,0,uniform,0,0,0,0,24,24,24,0,0,74,74,74,74,74,0,74,0,3,3,3,3,3,0,3,17-02-22,17-02-22,09:32:27,Thu Mar 17 2022 09:32:27 GMT+0100 (közép-európai téli idő),The main experiment item,yes,0,0,C:/Users/rrics/Documents/!!ResearchBMECOGSCI/gnet,0,0,0,prototype2.png,no,mono,no,18,no,black,no,no,768,1201,3.5.6,legacy,xpyriment,osweb,1.3.13,0,space,space,left,space,49939,20774,34566,49939,2,legacy,824,1536,24,864,24,0,0,1536,1647505950225,1024,2,48000,-16,experiment,p5sarrsha2.png,1,odd,Win32,186,132651,129641,185,186,656737,658254,651734,134168,651734,186,724843,726351,721838,658264,721838,visual_patterns,0,0,0,yes,1366
undefined,undefined,undefined,undefined,white,no,Mozilla,Netscape,"5.0 (Windows NT 10.0; Win64; x64) AppleWebKit/537.36 (KHTML, like Gecko) Chrome/99.0.4844.74 Safari/537.36",xpyriment,legacy,legacy,0,uniform,0,0,0,0,24,24,24,0,0,74,74,74,74,74,0,74,0,4,4,4,4,4,0,4,17-02-22,17-02-22,09:32:27,Thu Mar 17 2022 09:32:27 GMT+0100 (közép-európai téli idő),The main experiment item,yes,0,0,C:/Users/rrics/Documents/!!ResearchBMECOGSCI/gnet,0,0,0,prototype2.png,no,mono,no,18,no,black,no,no,768,1201,3.5.6,legacy,xpyriment,osweb,1.3.13,0,space,space,left,space,49939,20774,34566,49939,2,legacy,824,1536,24,864,24,0,0,1536,1647505950225,1024,2,48000,-16,experiment,p7sarr2.png,1,odd,Win32,186,132651,129641,185,186,656737,658254,651734,134168,651734,186,729370,730887,726367,658264,726367,visual_patterns,0,0,0,yes,1366
undefined,undefined,undefined,undefined,white,no,Mozilla,Netscape,"5.0 (Windows NT 10.0; Win64; x64) AppleWebKit/537.36 (KHTML, like Gecko) Chrome/99.0.4844.74 Safari/537.36",xpyriment,legacy,legacy,0,uniform,0,0,0,0,24,24,24,0,0,74,74,74,74,74,0,74,0,5,5,5,5,5,0,5,17-02-22,17-02-22,09:32:27,Thu Mar 17 2022 09:32:27 GMT+0100 (közép-európai téli idő),The main experiment item,yes,0,0,C:/Users/rrics/Documents/!!ResearchBMECOGSCI/gnet,0,0,0,prototype2.png,no,mono,no,18,no,black,no,no,768,1201,3.5.6,legacy,xpyriment,osweb,1.3.13,0,space,space,left,space,49939,20774,34566,49939,2,legacy,824,1536,24,864,24,0,0,1536,1647505950225,1024,2,48000,-16,experiment,p1sarrsha4.png,1,odd,Win32,186,132651,129641,185,186,656737,658254,651734,134168,651734,186,733910,735412,730909,658264,730909,visual_patterns,0,0,0,yes,1366
undefined,undefined,undefined,undefined,white,no,Mozilla,Netscape,"5.0 (Windows NT 10.0; Win64; x64) AppleWebKit/537.36 (KHTML, like Gecko) Chrome/99.0.4844.74 Safari/537.36",xpyriment,legacy,legacy,0,uniform,0,0,0,0,24,24,24,0,0,74,74,74,74,74,0,74,0,6,6,6,6,6,0,6,17-02-22,17-02-22,09:32:27,Thu Mar 17 2022 09:32:27 GMT+0100 (közép-európai téli idő),The main experiment item,yes,0,0,C:/Users/rrics/Documents/!!ResearchBMECOGSCI/gnet,0,0,0,prototype2.png,no,mono,no,18,no,black,no,no,768,1201,3.5.6,legacy,xpyriment,osweb,1.3.13,0,space,space,left,space,49939,20774,34566,49939,2,legacy,824,1536,24,864,24,0,0,1536,1647505950225,1024,2,48000,-16,experiment,p3sarrcol2.png,1,odd,Win32,186,132651,129641,185,186,656737,658254,651734,134168,651734,186,738425,739930,735426,658264,735426,visual_patterns,0,0,0,yes,1366
undefined,undefined,undefined,undefined,white,no,Mozilla,Netscape,"5.0 (Windows NT 10.0; Win64; x64) AppleWebKit/537.36 (KHTML, like Gecko) Chrome/99.0.4844.74 Safari/537.36",xpyriment,legacy,legacy,0,uniform,0,0,0,0,24,24,24,0,0,74,74,74,74,74,0,74,0,7,7,7,7,7,0,7,17-02-22,17-02-22,09:32:27,Thu Mar 17 2022 09:32:27 GMT+0100 (közép-európai téli idő),The main experiment item,yes,0,0,C:/Users/rrics/Documents/!!ResearchBMECOGSCI/gnet,0,0,0,prototype2.png,no,mono,no,18,no,black,no,no,768,1201,3.5.6,legacy,xpyriment,osweb,1.3.13,0,space,space,left,space,49939,20774,34566,49939,2,legacy,824,1536,24,864,24,0,0,1536,1647505950225,1024,2,48000,-16,experiment,p3sarrcol3.png,1,odd,Win32,186,132651,129641,185,186,656737,658254,651734,134168,651734,186,742951,744465,739953,658264,739953,visual_patterns,0,0,0,yes,1366
undefined,undefined,undefined,undefined,white,no,Mozilla,Netscape,"5.0 (Windows NT 10.0; Win64; x64) AppleWebKit/537.36 (KHTML, like Gecko) Chrome/99.0.4844.74 Safari/537.36",xpyriment,legacy,legacy,0,uniform,0,0,0,0,24,24,24,0,0,74,74,74,74,74,0,74,0,8,8,8,8,8,0,8,17-02-22,17-02-22,09:32:27,Thu Mar 17 2022 09:32:27 GMT+0100 (közép-európai téli idő),The main experiment item,yes,0,0,C:/Users/rrics/Documents/!!ResearchBMECOGSCI/gnet,0,0,0,prototype2.png,no,mono,no,18,no,black,no,no,768,1201,3.5.6,legacy,xpyriment,osweb,1.3.13,0,space,space,left,space,49939,20774,34566,49939,2,legacy,824,1536,24,864,24,0,0,1536,1647505950225,1024,2,48000,-16,experiment,p1sarrsha1.png,1,odd,Win32,186,132651,129641,185,186,656737,658254,651734,134168,651734,186,747495,749008,744493,658264,744493,visual_patterns,0,0,0,yes,1366
undefined,undefined,undefined,undefined,white,no,Mozilla,Netscape,"5.0 (Windows NT 10.0; Win64; x64) AppleWebKit/537.36 (KHTML, like Gecko) Chrome/99.0.4844.74 Safari/537.36",xpyriment,legacy,legacy,0,uniform,0,0,0,0,24,24,24,0,0,74,74,74,74,74,0,74,0,9,9,9,9,9,0,9,17-02-22,17-02-22,09:32:27,Thu Mar 17 2022 09:32:27 GMT+0100 (közép-európai téli idő),The main experiment item,yes,0,0,C:/Users/rrics/Documents/!!ResearchBMECOGSCI/gnet,0,0,0,prototype2.png,no,mono,no,18,no,black,no,no,768,1201,3.5.6,legacy,xpyriment,osweb,1.3.13,0,space,space,left,space,49939,20774,34566,49939,2,legacy,824,1536,24,864,24,0,0,1536,1647505950225,1024,2,48000,-16,experiment,p4sarr1.png,1,odd,Win32,186,132651,129641,185,186,656737,658254,651734,134168,651734,186,752025,753538,749023,658264,749023,visual_patterns,0,0,0,yes,1366
undefined,undefined,undefined,undefined,white,no,Mozilla,Netscape,"5.0 (Windows NT 10.0; Win64; x64) AppleWebKit/537.36 (KHTML, like Gecko) Chrome/99.0.4844.74 Safari/537.36",xpyriment,legacy,legacy,0,uniform,0,0,0,0,24,24,24,0,0,74,74,74,74,74,0,74,0,10,10,10,10,10,0,10,17-02-22,17-02-22,09:32:27,Thu Mar 17 2022 09:32:27 GMT+0100 (közép-európai téli idő),The main experiment item,yes,0,0,C:/Users/rrics/Documents/!!ResearchBMECOGSCI/gnet,0,0,0,prototype2.png,no,mono,no,18,no,black,no,no,768,1201,3.5.6,legacy,xpyriment,osweb,1.3.13,0,space,space,left,space,49939,20774,34566,49939,2,legacy,824,1536,24,864,24,0,0,1536,1647505950225,1024,2,48000,-16,experiment,p9sarr2.png,1,odd,Win32,186,132651,129641,185,186,656737,658254,651734,134168,651734,186,756561,758076,753560,658264,753560,visual_patterns,0,0,0,yes,1366
undefined,undefined,undefined,undefined,white,no,Mozilla,Netscape,"5.0 (Windows NT 10.0; Win64; x64) AppleWebKit/537.36 (KHTML, like Gecko) Chrome/99.0.4844.74 Safari/537.36",xpyriment,legacy,legacy,0,uniform,0,0,0,0,24,24,24,0,0,74,74,74,74,74,0,74,0,11,11,11,11,11,0,11,17-02-22,17-02-22,09:32:27,Thu Mar 17 2022 09:32:27 GMT+0100 (közép-európai téli idő),The main experiment item,yes,0,0,C:/Users/rrics/Documents/!!ResearchBMECOGSCI/gnet,0,0,0,prototype2.png,no,mono,no,18,no,black,no,no,768,1201,3.5.6,legacy,xpyriment,osweb,1.3.13,0,space,space,left,space,49939,20774,34566,49939,2,legacy,824,1536,24,864,24,0,0,1536,1647505950225,1024,2,48000,-16,experiment,p1sarr2.png,1,odd,Win32,186,132651,129641,185,186,656737,658254,651734,134168,651734,186,761098,762602,758092,658264,758092,visual_patterns,0,0,0,yes,1366
undefined,undefined,undefined,undefined,white,no,Mozilla,Netscape,"5.0 (Windows NT 10.0; Win64; x64) AppleWebKit/537.36 (KHTML, like Gecko) Chrome/99.0.4844.74 Safari/537.36",xpyriment,legacy,legacy,0,uniform,0,0,0,0,24,24,24,0,0,74,74,74,74,74,0,74,0,12,12,12,12,12,0,12,17-02-22,17-02-22,09:32:27,Thu Mar 17 2022 09:32:27 GMT+0100 (közép-európai téli idő),The main experiment item,yes,0,0,C:/Users/rrics/Documents/!!ResearchBMECOGSCI/gnet,0,0,0,prototype2.png,no,mono,no,18,no,black,no,no,768,1201,3.5.6,legacy,xpyriment,osweb,1.3.13,0,space,space,left,space,49939,20774,34566,49939,2,legacy,824,1536,24,864,24,0,0,1536,1647505950225,1024,2,48000,-16,experiment,p3sarrcol4.png,1,odd,Win32,186,132651,129641,185,186,656737,658254,651734,134168,651734,186,765620,767129,762621,658264,762621,visual_patterns,0,0,0,yes,1366
undefined,undefined,undefined,undefined,white,no,Mozilla,Netscape,"5.0 (Windows NT 10.0; Win64; x64) AppleWebKit/537.36 (KHTML, like Gecko) Chrome/99.0.4844.74 Safari/537.36",xpyriment,legacy,legacy,0,uniform,0,0,0,0,24,24,24,0,0,74,74,74,74,74,0,74,0,13,13,13,13,13,0,13,17-02-22,17-02-22,09:32:27,Thu Mar 17 2022 09:32:27 GMT+0100 (közép-európai téli idő),The main experiment item,yes,0,0,C:/Users/rrics/Documents/!!ResearchBMECOGSCI/gnet,0,0,0,prototype2.png,no,mono,no,18,no,black,no,no,768,1201,3.5.6,legacy,xpyriment,osweb,1.3.13,0,space,space,left,space,49939,20774,34566,49939,2,legacy,824,1536,24,864,24,0,0,1536,1647505950225,1024,2,48000,-16,experiment,p2sarrshacol2.png,1,odd,Win32,186,132651,129641,185,186,656737,658254,651734,134168,651734,186,770149,771654,767150,658264,767150,visual_patterns,0,0,0,yes,1366
undefined,undefined,undefined,undefined,white,no,Mozilla,Netscape,"5.0 (Windows NT 10.0; Win64; x64) AppleWebKit/537.36 (KHTML, like Gecko) Chrome/99.0.4844.74 Safari/537.36",xpyriment,legacy,legacy,0,uniform,0,0,0,0,24,24,24,0,0,74,74,74,74,74,0,74,0,14,14,14,14,14,0,14,17-02-22,17-02-22,09:32:27,Thu Mar 17 2022 09:32:27 GMT+0100 (közép-európai téli idő),The main experiment item,yes,0,0,C:/Users/rrics/Documents/!!ResearchBMECOGSCI/gnet,0,0,0,prototype2.png,no,mono,no,18,no,black,no,no,768,1201,3.5.6,legacy,xpyriment,osweb,1.3.13,0,space,space,left,space,49939,20774,34566,49939,2,legacy,824,1536,24,864,24,0,0,1536,1647505950225,1024,2,48000,-16,experiment,p6sarr1.png,1,odd,Win32,186,132651,129641,185,186,656737,658254,651734,134168,651734,186,774677,776181,771669,658264,771669,visual_patterns,0,0,0,yes,1366
undefined,undefined,undefined,undefined,white,no,Mozilla,Netscape,"5.0 (Windows NT 10.0; Win64; x64) AppleWebKit/537.36 (KHTML, like Gecko) Chrome/99.0.4844.74 Safari/537.36",xpyriment,legacy,legacy,0,uniform,0,0,0,0,24,24,24,0,0,74,74,74,74,74,0,74,0,15,15,15,15,15,0,15,17-02-22,17-02-22,09:32:27,Thu Mar 17 2022 09:32:27 GMT+0100 (közép-európai téli idő),The main experiment item,yes,0,0,C:/Users/rrics/Documents/!!ResearchBMECOGSCI/gnet,0,0,0,prototype2.png,no,mono,no,18,no,black,no,no,768,1201,3.5.6,legacy,xpyriment,osweb,1.3.13,0,space,space,left,space,49939,20774,34566,49939,2,legacy,824,1536,24,864,24,0,0,1536,1647505950225,1024,2,48000,-16,experiment,p4sarrshacol3.png,1,odd,Win32,186,132651,129641,185,186,656737,658254,651734,134168,651734,186,779204,780707,776202,658264,776201,visual_patterns,0,0,0,yes,1366
undefined,undefined,undefined,undefined,white,no,Mozilla,Netscape,"5.0 (Windows NT 10.0; Win64; x64) AppleWebKit/537.36 (KHTML, like Gecko) Chrome/99.0.4844.74 Safari/537.36",xpyriment,legacy,legacy,0,uniform,0,0,0,0,24,24,24,0,0,74,74,74,74,74,0,74,0,16,16,16,16,16,0,16,17-02-22,17-02-22,09:32:27,Thu Mar 17 2022 09:32:27 GMT+0100 (közép-európai téli idő),The main experiment item,yes,0,0,C:/Users/rrics/Documents/!!ResearchBMECOGSCI/gnet,0,0,0,prototype2.png,no,mono,no,18,no,black,no,no,768,1201,3.5.6,legacy,xpyriment,osweb,1.3.13,0,space,space,left,space,49939,20774,34566,49939,2,legacy,824,1536,24,864,24,0,0,1536,1647505950225,1024,2,48000,-16,experiment,p4sarrshacol4.png,1,odd,Win32,186,132651,129641,185,186,656737,658254,651734,134168,651734,186,783730,785233,780728,658264,780728,visual_patterns,0,0,0,yes,1366
undefined,undefined,undefined,undefined,white,no,Mozilla,Netscape,"5.0 (Windows NT 10.0; Win64; x64) AppleWebKit/537.36 (KHTML, like Gecko) Chrome/99.0.4844.74 Safari/537.36",xpyriment,legacy,legacy,0,uniform,0,0,0,0,24,24,24,0,0,74,74,74,74,74,0,74,0,17,17,17,17,17,0,17,17-02-22,17-02-22,09:32:27,Thu Mar 17 2022 09:32:27 GMT+0100 (közép-európai téli idő),The main experiment item,yes,0,0,C:/Users/rrics/Documents/!!ResearchBMECOGSCI/gnet,0,0,0,prototype2.png,no,mono,no,18,no,black,no,no,768,1201,3.5.6,legacy,xpyriment,osweb,1.3.13,0,space,space,left,space,49939,20774,34566,49939,2,legacy,824,1536,24,864,24,0,0,1536,1647505950225,1024,2,48000,-16,experiment,p2sarrcol1.png,1,odd,Win32,186,132651,129641,185,186,656737,658254,651734,134168,651734,186,788253,789759,785251,658264,785251,visual_patterns,0,0,0,yes,1366
undefined,undefined,undefined,undefined,white,no,Mozilla,Netscape,"5.0 (Windows NT 10.0; Win64; x64) AppleWebKit/537.36 (KHTML, like Gecko) Chrome/99.0.4844.74 Safari/537.36",xpyriment,legacy,legacy,0,uniform,0,0,0,0,24,24,24,0,0,74,74,74,74,74,0,74,0,18,18,18,18,18,0,18,17-02-22,17-02-22,09:32:27,Thu Mar 17 2022 09:32:27 GMT+0100 (közép-európai téli idő),The main experiment item,yes,0,0,C:/Users/rrics/Documents/!!ResearchBMECOGSCI/gnet,0,0,0,prototype2.png,no,mono,no,18,no,black,no,no,768,1201,3.5.6,legacy,xpyriment,osweb,1.3.13,0,space,space,left,space,49939,20774,34566,49939,2,legacy,824,1536,24,864,24,0,0,1536,1647505950225,1024,2,48000,-16,experiment,p1sarr4.png,1,odd,Win32,186,132651,129641,185,186,656737,658254,651734,134168,651734,186,792804,794318,789801,658264,789801,visual_patterns,0,0,0,yes,1366
undefined,undefined,undefined,undefined,white,no,Mozilla,Netscape,"5.0 (Windows NT 10.0; Win64; x64) AppleWebKit/537.36 (KHTML, like Gecko) Chrome/99.0.4844.74 Safari/537.36",xpyriment,legacy,legacy,0,uniform,0,0,0,0,24,24,24,0,0,74,74,74,74,74,0,74,0,19,19,19,19,19,0,19,17-02-22,17-02-22,09:32:27,Thu Mar 17 2022 09:32:27 GMT+0100 (közép-európai téli idő),The main experiment item,yes,0,0,C:/Users/rrics/Documents/!!ResearchBMECOGSCI/gnet,0,0,0,prototype2.png,no,mono,no,18,no,black,no,no,768,1201,3.5.6,legacy,xpyriment,osweb,1.3.13,0,space,space,left,space,49939,20774,34566,49939,2,legacy,824,1536,24,864,24,0,0,1536,1647505950225,1024,2,48000,-16,experiment,p10sarr1.png,1,odd,Win32,186,132651,129641,185,186,656737,658254,651734,134168,651734,186,797337,798843,794336,658264,794336,visual_patterns,0,0,0,yes,1366
undefined,undefined,undefined,undefined,white,no,Mozilla,Netscape,"5.0 (Windows NT 10.0; Win64; x64) AppleWebKit/537.36 (KHTML, like Gecko) Chrome/99.0.4844.74 Safari/537.36",xpyriment,legacy,legacy,0,uniform,0,0,0,0,24,24,24,0,0,74,74,74,74,74,0,74,0,20,20,20,20,20,0,20,17-02-22,17-02-22,09:32:27,Thu Mar 17 2022 09:32:27 GMT+0100 (közép-európai téli idő),The main experiment item,yes,0,0,C:/Users/rrics/Documents/!!ResearchBMECOGSCI/gnet,0,0,0,prototype2.png,no,mono,no,18,no,black,no,no,768,1201,3.5.6,legacy,xpyriment,osweb,1.3.13,0,space,space,left,space,49939,20774,34566,49939,2,legacy,824,1536,24,864,24,0,0,1536,1647505950225,1024,2,48000,-16,experiment,p8sarr3.png,1,odd,Win32,186,132651,129641,185,186,656737,658254,651734,134168,651734,186,801864,803379,798864,658264,798864,visual_patterns,0,0,0,yes,1366
undefined,undefined,undefined,undefined,white,no,Mozilla,Netscape,"5.0 (Windows NT 10.0; Win64; x64) AppleWebKit/537.36 (KHTML, like Gecko) Chrome/99.0.4844.74 Safari/537.36",xpyriment,legacy,legacy,0,uniform,0,0,0,0,24,24,24,0,0,74,74,74,74,74,0,74,0,21,21,21,21,21,0,21,17-02-22,17-02-22,09:32:27,Thu Mar 17 2022 09:32:27 GMT+0100 (közép-európai téli idő),The main experiment item,yes,0,0,C:/Users/rrics/Documents/!!ResearchBMECOGSCI/gnet,0,0,0,prototype2.png,no,mono,no,18,no,black,no,no,768,1201,3.5.6,legacy,xpyriment,osweb,1.3.13,0,space,space,left,space,49939,20774,34566,49939,2,legacy,824,1536,24,864,24,0,0,1536,1647505950225,1024,2,48000,-16,experiment,p9sarr4.png,1,odd,Win32,186,132651,129641,185,186,656737,658254,651734,134168,651734,186,806399,807912,803402,658264,803402,visual_patterns,0,0,0,yes,1366
undefined,undefined,undefined,undefined,white,no,Mozilla,Netscape,"5.0 (Windows NT 10.0; Win64; x64) AppleWebKit/537.36 (KHTML, like Gecko) Chrome/99.0.4844.74 Safari/537.36",xpyriment,legacy,legacy,0,uniform,0,0,0,0,24,24,24,0,0,74,74,74,74,74,0,74,0,22,22,22,22,22,0,22,17-02-22,17-02-22,09:32:27,Thu Mar 17 2022 09:32:27 GMT+0100 (közép-európai téli idő),The main experiment item,yes,0,0,C:/Users/rrics/Documents/!!ResearchBMECOGSCI/gnet,0,0,0,prototype2.png,no,mono,no,18,no,black,no,no,768,1201,3.5.6,legacy,xpyriment,osweb,1.3.13,0,space,space,left,space,49939,20774,34566,49939,2,legacy,824,1536,24,864,24,0,0,1536,1647505950225,1024,2,48000,-16,experiment,p5sarrcol2.png,1,odd,Win32,186,132651,129641,185,186,656737,658254,651734,134168,651734,186,810934,812447,807927,658264,807927,visual_patterns,0,0,0,yes,1366
undefined,undefined,undefined,undefined,white,no,Mozilla,Netscape,"5.0 (Windows NT 10.0; Win64; x64) AppleWebKit/537.36 (KHTML, like Gecko) Chrome/99.0.4844.74 Safari/537.36",xpyriment,legacy,legacy,0,uniform,0,0,0,0,24,24,24,0,0,74,74,74,74,74,0,74,0,23,23,23,23,23,0,23,17-02-22,17-02-22,09:32:27,Thu Mar 17 2022 09:32:27 GMT+0100 (közép-európai téli idő),The main experiment item,yes,0,0,C:/Users/rrics/Documents/!!ResearchBMECOGSCI/gnet,0,0,0,prototype2.png,no,mono,no,18,no,black,no,no,768,1201,3.5.6,legacy,xpyriment,osweb,1.3.13,0,space,space,left,space,49939,20774,34566,49939,2,legacy,824,1536,24,864,24,0,0,1536,1647505950225,1024,2,48000,-16,experiment,p7sarr4.png,1,odd,Win32,186,132651,129641,185,186,656737,658254,651734,134168,651734,186,815496,816998,812496,658264,812496,visual_patterns,0,0,0,yes,1366
undefined,undefined,undefined,undefined,white,no,Mozilla,Netscape,"5.0 (Windows NT 10.0; Win64; x64) AppleWebKit/537.36 (KHTML, like Gecko) Chrome/99.0.4844.74 Safari/537.36",xpyriment,legacy,legacy,0,uniform,0,0,0,0,24,24,24,0,0,74,74,74,74,74,0,74,0,24,24,24,24,24,0,24,17-02-22,17-02-22,09:32:27,Thu Mar 17 2022 09:32:27 GMT+0100 (közép-európai téli idő),The main experiment item,yes,0,0,C:/Users/rrics/Documents/!!ResearchBMECOGSCI/gnet,0,0,0,prototype2.png,no,mono,no,18,no,black,no,no,768,1201,3.5.6,legacy,xpyriment,osweb,1.3.13,0,space,space,left,space,49939,20774,34566,49939,2,legacy,824,1536,24,864,24,0,0,1536,1647505950225,1024,2,48000,-16,experiment,p3sarrsha3.png,1,odd,Win32,186,132651,129641,185,186,656737,658254,651734,134168,651734,186,820022,821525,817019,658264,817019,visual_patterns,0,0,0,yes,1366
undefined,undefined,undefined,undefined,white,no,Mozilla,Netscape,"5.0 (Windows NT 10.0; Win64; x64) AppleWebKit/537.36 (KHTML, like Gecko) Chrome/99.0.4844.74 Safari/537.36",xpyriment,legacy,legacy,0,uniform,0,0,0,0,24,24,24,0,0,74,74,74,74,74,0,74,0,25,25,25,25,25,0,25,17-02-22,17-02-22,09:32:27,Thu Mar 17 2022 09:32:27 GMT+0100 (közép-európai téli idő),The main experiment item,yes,0,0,C:/Users/rrics/Documents/!!ResearchBMECOGSCI/gnet,0,0,0,prototype2.png,no,mono,no,18,no,black,no,no,768,1201,3.5.6,legacy,xpyriment,osweb,1.3.13,0,space,space,left,space,49939,20774,34566,49939,2,legacy,824,1536,24,864,24,0,0,1536,1647505950225,1024,2,48000,-16,experiment,p8sarr4.png,1,odd,Win32,186,132651,129641,185,186,656737,658254,651734,134168,651734,186,824544,826057,821542,658264,821542,visual_patterns,0,0,0,yes,1366
undefined,undefined,undefined,undefined,white,no,Mozilla,Netscape,"5.0 (Windows NT 10.0; Win64; x64) AppleWebKit/537.36 (KHTML, like Gecko) Chrome/99.0.4844.74 Safari/537.36",xpyriment,legacy,legacy,0,uniform,0,0,0,0,24,24,24,0,0,74,74,74,74,74,0,74,0,26,26,26,26,26,0,26,17-02-22,17-02-22,09:32:27,Thu Mar 17 2022 09:32:27 GMT+0100 (közép-európai téli idő),The main experiment item,yes,0,0,C:/Users/rrics/Documents/!!ResearchBMECOGSCI/gnet,0,0,0,prototype2.png,no,mono,no,18,no,black,no,no,768,1201,3.5.6,legacy,xpyriment,osweb,1.3.13,0,space,space,left,space,49939,20774,34566,49939,2,legacy,824,1536,24,864,24,0,0,1536,1647505950225,1024,2,48000,-16,experiment,p2sarrshacol4.png,1,odd,Win32,186,132651,129641,185,186,656737,658254,651734,134168,651734,186,829079,830593,826079,658264,826079,visual_patterns,0,0,0,yes,1366
undefined,undefined,undefined,undefined,white,no,Mozilla,Netscape,"5.0 (Windows NT 10.0; Win64; x64) AppleWebKit/537.36 (KHTML, like Gecko) Chrome/99.0.4844.74 Safari/537.36",xpyriment,legacy,legacy,0,uniform,0,0,0,0,24,24,24,0,0,74,74,74,74,74,0,74,0,27,27,27,27,27,0,27,17-02-22,17-02-22,09:32:27,Thu Mar 17 2022 09:32:27 GMT+0100 (közép-európai téli idő),The main experiment item,yes,0,0,C:/Users/rrics/Documents/!!ResearchBMECOGSCI/gnet,0,0,0,prototype2.png,no,mono,no,18,no,black,no,no,768,1201,3.5.6,legacy,xpyriment,osweb,1.3.13,0,space,space,left,space,49939,20774,34566,49939,2,legacy,824,1536,24,864,24,0,0,1536,1647505950225,1024,2,48000,-16,experiment,p4sarrshacol1.png,1,odd,Win32,186,132651,129641,185,186,656737,658254,651734,134168,651734,186,833612,835119,830611,658264,830611,visual_patterns,0,0,0,yes,1366
undefined,undefined,undefined,undefined,white,no,Mozilla,Netscape,"5.0 (Windows NT 10.0; Win64; x64) AppleWebKit/537.36 (KHTML, like Gecko) Chrome/99.0.4844.74 Safari/537.36",xpyriment,legacy,legacy,0,uniform,0,0,0,0,24,24,24,0,0,74,74,74,74,74,0,74,0,28,28,28,28,28,0,28,17-02-22,17-02-22,09:32:27,Thu Mar 17 2022 09:32:27 GMT+0100 (közép-európai téli idő),The main experiment item,yes,0,0,C:/Users/rrics/Documents/!!ResearchBMECOGSCI/gnet,0,0,0,prototype2.png,no,mono,no,18,no,black,no,no,768,1201,3.5.6,legacy,xpyriment,osweb,1.3.13,0,space,space,left,space,49939,20774,34566,49939,2,legacy,824,1536,24,864,24,0,0,1536,1647505950225,1024,2,48000,-16,experiment,p1sarrshacol3.png,1,odd,Win32,186,132651,129641,185,186,656737,658254,651734,134168,651734,186,838136,839652,835140,658264,835140,visual_patterns,0,0,0,yes,1366
undefined,undefined,undefined,undefined,white,no,Mozilla,Netscape,"5.0 (Windows NT 10.0; Win64; x64) AppleWebKit/537.36 (KHTML, like Gecko) Chrome/99.0.4844.74 Safari/537.36",xpyriment,legacy,legacy,0,uniform,0,0,0,0,24,24,24,0,0,74,74,74,74,74,0,74,0,29,29,29,29,29,0,29,17-02-22,17-02-22,09:32:27,Thu Mar 17 2022 09:32:27 GMT+0100 (közép-európai téli idő),The main experiment item,yes,0,0,C:/Users/rrics/Documents/!!ResearchBMECOGSCI/gnet,0,0,0,prototype2.png,no,mono,no,18,no,black,no,no,768,1201,3.5.6,legacy,xpyriment,osweb,1.3.13,0,space,space,left,space,49939,20774,34566,49939,2,legacy,824,1536,24,864,24,0,0,1536,1647505950225,1024,2,48000,-16,experiment,p2sarrsha1.png,1,odd,Win32,186,132651,129641,185,186,656737,658254,651734,134168,651734,186,842670,844171,839669,658264,839669,visual_patterns,0,0,0,yes,1366
undefined,undefined,undefined,undefined,white,no,Mozilla,Netscape,"5.0 (Windows NT 10.0; Win64; x64) AppleWebKit/537.36 (KHTML, like Gecko) Chrome/99.0.4844.74 Safari/537.36",xpyriment,legacy,legacy,0,uniform,0,0,0,0,24,24,24,0,0,74,74,74,74,74,0,74,0,30,30,30,30,30,0,30,17-02-22,17-02-22,09:32:27,Thu Mar 17 2022 09:32:27 GMT+0100 (közép-európai téli idő),The main experiment item,yes,0,0,C:/Users/rrics/Documents/!!ResearchBMECOGSCI/gnet,0,0,0,prototype2.png,no,mono,no,18,no,black,no,no,768,1201,3.5.6,legacy,xpyriment,osweb,1.3.13,0,space,space,left,space,49939,20774,34566,49939,2,legacy,824,1536,24,864,24,0,0,1536,1647505950225,1024,2,48000,-16,experiment,p3sarr2.png,1,odd,Win32,186,132651,129641,185,186,656737,658254,651734,134168,651734,186,847190,848697,844189,658264,844189,visual_patterns,0,0,0,yes,1366
undefined,undefined,undefined,undefined,white,no,Mozilla,Netscape,"5.0 (Windows NT 10.0; Win64; x64) AppleWebKit/537.36 (KHTML, like Gecko) Chrome/99.0.4844.74 Safari/537.36",xpyriment,legacy,legacy,0,uniform,0,0,0,0,24,24,24,0,0,74,74,74,74,74,0,74,0,31,31,31,31,31,0,31,17-02-22,17-02-22,09:32:27,Thu Mar 17 2022 09:32:27 GMT+0100 (közép-európai téli idő),The main experiment item,yes,0,0,C:/Users/rrics/Documents/!!ResearchBMECOGSCI/gnet,0,0,0,prototype2.png,no,mono,no,18,no,black,no,no,768,1201,3.5.6,legacy,xpyriment,osweb,1.3.13,0,space,space,left,space,49939,20774,34566,49939,2,legacy,824,1536,24,864,24,0,0,1536,1647505950225,1024,2,48000,-16,experiment,p3sarrshacol3.png,1,odd,Win32,186,132651,129641,185,186,656737,658254,651734,134168,651734,186,851715,853223,848717,658264,848717,visual_patterns,0,0,0,yes,1366
undefined,undefined,undefined,undefined,white,no,Mozilla,Netscape,"5.0 (Windows NT 10.0; Win64; x64) AppleWebKit/537.36 (KHTML, like Gecko) Chrome/99.0.4844.74 Safari/537.36",xpyriment,legacy,legacy,0,uniform,0,0,0,0,24,24,24,0,0,74,74,74,74,74,0,74,0,32,32,32,32,32,0,32,17-02-22,17-02-22,09:32:27,Thu Mar 17 2022 09:32:27 GMT+0100 (közép-európai téli idő),The main experiment item,yes,0,0,C:/Users/rrics/Documents/!!ResearchBMECOGSCI/gnet,0,0,0,prototype2.png,no,mono,no,18,no,black,no,no,768,1201,3.5.6,legacy,xpyriment,osweb,1.3.13,0,space,space,left,space,49939,20774,34566,49939,2,legacy,824,1536,24,864,24,0,0,1536,1647505950225,1024,2,48000,-16,experiment,p2sarrcol4.png,1,odd,Win32,186,132651,129641,185,186,656737,658254,651734,134168,651734,186,856240,857749,853244,658264,853244,visual_patterns,0,0,0,yes,1366
undefined,undefined,undefined,undefined,white,no,Mozilla,Netscape,"5.0 (Windows NT 10.0; Win64; x64) AppleWebKit/537.36 (KHTML, like Gecko) Chrome/99.0.4844.74 Safari/537.36",xpyriment,legacy,legacy,0,uniform,0,0,0,0,24,24,24,0,0,74,74,74,74,74,0,74,0,33,33,33,33,33,0,33,17-02-22,17-02-22,09:32:27,Thu Mar 17 2022 09:32:27 GMT+0100 (közép-európai téli idő),The main experiment item,yes,0,0,C:/Users/rrics/Documents/!!ResearchBMECOGSCI/gnet,0,0,0,prototype2.png,no,mono,no,18,no,black,no,no,768,1201,3.5.6,legacy,xpyriment,osweb,1.3.13,0,space,space,left,space,49939,20774,34566,49939,2,legacy,824,1536,24,864,24,0,0,1536,1647505950225,1024,2,48000,-16,experiment,p5sarrcol1.png,1,odd,Win32,186,132651,129641,185,186,656737,658254,651734,134168,651734,186,860795,862308,857794,658264,857794,visual_patterns,0,0,0,yes,1366
undefined,undefined,undefined,undefined,white,no,Mozilla,Netscape,"5.0 (Windows NT 10.0; Win64; x64) AppleWebKit/537.36 (KHTML, like Gecko) Chrome/99.0.4844.74 Safari/537.36",xpyriment,legacy,legacy,0,uniform,0,0,0,0,24,24,24,0,0,74,74,74,74,74,0,74,0,34,34,34,34,34,0,34,17-02-22,17-02-22,09:32:27,Thu Mar 17 2022 09:32:27 GMT+0100 (közép-európai téli idő),The main experiment item,yes,0,0,C:/Users/rrics/Documents/!!ResearchBMECOGSCI/gnet,0,0,0,prototype2.png,no,mono,no,18,no,black,no,no,768,1201,3.5.6,legacy,xpyriment,osweb,1.3.13,0,space,space,left,space,49939,20774,34566,49939,2,legacy,824,1536,24,864,24,0,0,1536,1647505950225,1024,2,48000,-16,experiment,p8sarr2.png,1,odd,Win32,186,132651,129641,185,186,656737,658254,651734,134168,651734,186,865327,866834,862323,658264,862323,visual_patterns,0,0,0,yes,1366
undefined,undefined,undefined,undefined,white,no,Mozilla,Netscape,"5.0 (Windows NT 10.0; Win64; x64) AppleWebKit/537.36 (KHTML, like Gecko) Chrome/99.0.4844.74 Safari/537.36",xpyriment,legacy,legacy,0,uniform,0,0,0,0,24,24,24,0,0,74,74,74,74,74,0,74,0,35,35,35,35,35,0,35,17-02-22,17-02-22,09:32:27,Thu Mar 17 2022 09:32:27 GMT+0100 (közép-európai téli idő),The main experiment item,yes,0,0,C:/Users/rrics/Documents/!!ResearchBMECOGSCI/gnet,0,0,0,prototype2.png,no,mono,no,18,no,black,no,no,768,1201,3.5.6,legacy,xpyriment,osweb,1.3.13,0,space,space,left,space,49939,20774,34566,49939,2,legacy,824,1536,24,864,24,0,0,1536,1647505950225,1024,2,48000,-16,experiment,p5sarr3.png,1,odd,Win32,186,132651,129641,185,186,656737,658254,651734,134168,651734,186,869857,871361,866854,658264,866854,visual_patterns,0,0,0,yes,1366
undefined,undefined,undefined,undefined,white,no,Mozilla,Netscape,"5.0 (Windows NT 10.0; Win64; x64) AppleWebKit/537.36 (KHTML, like Gecko) Chrome/99.0.4844.74 Safari/537.36",xpyriment,legacy,legacy,0,uniform,0,0,0,0,24,24,24,0,0,74,74,74,74,74,0,74,0,36,36,36,36,36,0,36,17-02-22,17-02-22,09:32:27,Thu Mar 17 2022 09:32:27 GMT+0100 (közép-európai téli idő),The main experiment item,yes,0,0,C:/Users/rrics/Documents/!!ResearchBMECOGSCI/gnet,0,0,0,prototype2.png,no,mono,no,18,no,black,no,no,768,1201,3.5.6,legacy,xpyriment,osweb,1.3.13,0,space,space,left,space,49939,20774,34566,49939,2,legacy,824,1536,24,864,24,0,0,1536,1647505950225,1024,2,48000,-16,experiment,p7sarr1.png,1,odd,Win32,186,132651,129641,185,186,656737,658254,651734,134168,651734,186,874377,875887,871378,658264,871378,visual_patterns,0,0,0,yes,1366
undefined,undefined,undefined,undefined,white,no,Mozilla,Netscape,"5.0 (Windows NT 10.0; Win64; x64) AppleWebKit/537.36 (KHTML, like Gecko) Chrome/99.0.4844.74 Safari/537.36",xpyriment,legacy,legacy,0,uniform,0,0,0,0,24,24,24,0,0,74,74,74,74,74,0,74,0,37,37,37,37,37,0,37,17-02-22,17-02-22,09:32:27,Thu Mar 17 2022 09:32:27 GMT+0100 (közép-európai téli idő),The main experiment item,yes,0,0,C:/Users/rrics/Documents/!!ResearchBMECOGSCI/gnet,0,0,0,prototype2.png,no,mono,no,18,no,black,no,no,768,1201,3.5.6,legacy,xpyriment,osweb,1.3.13,0,space,space,left,space,49939,20774,34566,49939,2,legacy,824,1536,24,864,24,0,0,1536,1647505950225,1024,2,48000,-16,experiment,p1sarrcol4.png,1,odd,Win32,186,132651,129641,185,186,656737,658254,651734,134168,651734,186,878907,880413,875907,658264,875907,visual_patterns,0,0,0,yes,1366
undefined,undefined,undefined,undefined,white,no,Mozilla,Netscape,"5.0 (Windows NT 10.0; Win64; x64) AppleWebKit/537.36 (KHTML, like Gecko) Chrome/99.0.4844.74 Safari/537.36",xpyriment,legacy,legacy,0,uniform,0,0,0,0,24,24,24,0,0,74,74,74,74,74,0,74,0,38,38,38,38,38,0,38,17-02-22,17-02-22,09:32:27,Thu Mar 17 2022 09:32:27 GMT+0100 (közép-európai téli idő),The main experiment item,yes,0,0,C:/Users/rrics/Documents/!!ResearchBMECOGSCI/gnet,0,0,0,prototype2.png,no,mono,no,18,no,black,no,no,768,1201,3.5.6,legacy,xpyriment,osweb,1.3.13,0,space,space,left,space,49939,20774,34566,49939,2,legacy,824,1536,24,864,24,0,0,1536,1647505950225,1024,2,48000,-16,experiment,p3sarrsha4.png,1,odd,Win32,186,132651,129641,185,186,656737,658254,651734,134168,651734,186,883453,884955,880452,658264,880452,visual_patterns,0,0,0,yes,1366
undefined,undefined,undefined,undefined,white,no,Mozilla,Netscape,"5.0 (Windows NT 10.0; Win64; x64) AppleWebKit/537.36 (KHTML, like Gecko) Chrome/99.0.4844.74 Safari/537.36",xpyriment,legacy,legacy,0,uniform,0,0,0,0,24,24,24,0,0,74,74,74,74,74,0,74,0,39,39,39,39,39,0,39,17-02-22,17-02-22,09:32:27,Thu Mar 17 2022 09:32:27 GMT+0100 (közép-európai téli idő),The main experiment item,yes,0,0,C:/Users/rrics/Documents/!!ResearchBMECOGSCI/gnet,0,0,0,prototype2.png,no,mono,no,18,no,black,no,no,768,1201,3.5.6,legacy,xpyriment,osweb,1.3.13,0,space,space,left,space,49939,20774,34566,49939,2,legacy,824,1536,24,864,24,0,0,1536,1647505950225,1024,2,48000,-16,experiment,p3sarr1.png,1,odd,Win32,186,132651,129641,185,186,656737,658254,651734,134168,651734,186,887973,889489,884972,658264,884972,visual_patterns,0,0,0,yes,1366
undefined,undefined,undefined,undefined,white,no,Mozilla,Netscape,"5.0 (Windows NT 10.0; Win64; x64) AppleWebKit/537.36 (KHTML, like Gecko) Chrome/99.0.4844.74 Safari/537.36",xpyriment,legacy,legacy,0,uniform,0,0,0,0,24,24,24,0,0,74,74,74,74,74,0,74,0,40,40,40,40,40,0,40,17-02-22,17-02-22,09:32:27,Thu Mar 17 2022 09:32:27 GMT+0100 (közép-európai téli idő),The main experiment item,yes,0,0,C:/Users/rrics/Documents/!!ResearchBMECOGSCI/gnet,0,0,0,prototype2.png,no,mono,no,18,no,black,no,no,768,1201,3.5.6,legacy,xpyriment,osweb,1.3.13,0,space,space,left,space,49939,20774,34566,49939,2,legacy,824,1536,24,864,24,0,0,1536,1647505950225,1024,2,48000,-16,experiment,p2sarrsha3.png,1,odd,Win32,186,132651,129641,185,186,656737,658254,651734,134168,651734,186,892511,894024,889507,658264,889507,visual_patterns,0,0,0,yes,1366
undefined,undefined,undefined,undefined,white,no,Mozilla,Netscape,"5.0 (Windows NT 10.0; Win64; x64) AppleWebKit/537.36 (KHTML, like Gecko) Chrome/99.0.4844.74 Safari/537.36",xpyriment,legacy,legacy,0,uniform,0,0,0,0,24,24,24,0,0,74,74,74,74,74,0,74,0,41,41,41,41,41,0,41,17-02-22,17-02-22,09:32:27,Thu Mar 17 2022 09:32:27 GMT+0100 (közép-európai téli idő),The main experiment item,yes,0,0,C:/Users/rrics/Documents/!!ResearchBMECOGSCI/gnet,0,0,0,prototype2.png,no,mono,no,18,no,black,no,no,768,1201,3.5.6,legacy,xpyriment,osweb,1.3.13,0,space,space,left,space,49939,20774,34566,49939,2,legacy,824,1536,24,864,24,0,0,1536,1647505950225,1024,2,48000,-16,experiment,p9sarr3.png,1,odd,Win32,186,132651,129641,185,186,656737,658254,651734,134168,651734,186,897042,898550,894044,658264,894044,visual_patterns,0,0,0,yes,1366
undefined,undefined,undefined,undefined,white,no,Mozilla,Netscape,"5.0 (Windows NT 10.0; Win64; x64) AppleWebKit/537.36 (KHTML, like Gecko) Chrome/99.0.4844.74 Safari/537.36",xpyriment,legacy,legacy,0,uniform,0,0,0,0,24,24,24,0,0,74,74,74,74,74,0,74,0,42,42,42,42,42,0,42,17-02-22,17-02-22,09:32:27,Thu Mar 17 2022 09:32:27 GMT+0100 (közép-európai téli idő),The main experiment item,yes,0,0,C:/Users/rrics/Documents/!!ResearchBMECOGSCI/gnet,0,0,0,prototype2.png,no,mono,no,18,no,black,no,no,768,1201,3.5.6,legacy,xpyriment,osweb,1.3.13,0,space,space,left,space,49939,20774,34566,49939,2,legacy,824,1536,24,864,24,0,0,1536,1647505950225,1024,2,48000,-16,experiment,p10sarr4.png,1,odd,Win32,186,132651,129641,185,186,656737,658254,651734,134168,651734,186,901574,903076,898569,658264,898568,visual_patterns,0,0,0,yes,1366
undefined,undefined,undefined,undefined,white,no,Mozilla,Netscape,"5.0 (Windows NT 10.0; Win64; x64) AppleWebKit/537.36 (KHTML, like Gecko) Chrome/99.0.4844.74 Safari/537.36",xpyriment,legacy,legacy,0,uniform,0,0,0,0,24,24,24,0,0,74,74,74,74,74,0,74,0,43,43,43,43,43,0,43,17-02-22,17-02-22,09:32:27,Thu Mar 17 2022 09:32:27 GMT+0100 (közép-európai téli idő),The main experiment item,yes,0,0,C:/Users/rrics/Documents/!!ResearchBMECOGSCI/gnet,0,0,0,prototype2.png,no,mono,no,18,no,black,no,no,768,1201,3.5.6,legacy,xpyriment,osweb,1.3.13,0,space,space,left,space,49939,20774,34566,49939,2,legacy,824,1536,24,864,24,0,0,1536,1647505950225,1024,2,48000,-16,experiment,p4sarrcol1.png,1,odd,Win32,186,132651,129641,185,186,656737,658254,651734,134168,651734,186,906119,907636,903116,658264,903116,visual_patterns,0,0,0,yes,1366
undefined,undefined,undefined,undefined,white,no,Mozilla,Netscape,"5.0 (Windows NT 10.0; Win64; x64) AppleWebKit/537.36 (KHTML, like Gecko) Chrome/99.0.4844.74 Safari/537.36",xpyriment,legacy,legacy,0,uniform,0,0,0,0,24,24,24,0,0,74,74,74,74,74,0,74,0,44,44,44,44,44,0,44,17-02-22,17-02-22,09:32:27,Thu Mar 17 2022 09:32:27 GMT+0100 (közép-európai téli idő),The main experiment item,yes,0,0,C:/Users/rrics/Documents/!!ResearchBMECOGSCI/gnet,0,0,0,prototype2.png,no,mono,no,18,no,black,no,no,768,1201,3.5.6,legacy,xpyriment,osweb,1.3.13,0,space,space,left,space,49939,20774,34566,49939,2,legacy,824,1536,24,864,24,0,0,1536,1647505950225,1024,2,48000,-16,experiment,p5sarrshacol4.png,1,odd,Win32,186,132651,129641,185,186,656737,658254,651734,134168,651734,186,910653,912162,907653,658264,907653,visual_patterns,0,0,0,yes,1366
undefined,undefined,undefined,undefined,white,no,Mozilla,Netscape,"5.0 (Windows NT 10.0; Win64; x64) AppleWebKit/537.36 (KHTML, like Gecko) Chrome/99.0.4844.74 Safari/537.36",xpyriment,legacy,legacy,0,uniform,0,0,0,0,24,24,24,0,0,74,74,74,74,74,0,74,0,45,45,45,45,45,0,45,17-02-22,17-02-22,09:32:27,Thu Mar 17 2022 09:32:27 GMT+0100 (közép-európai téli idő),The main experiment item,yes,0,0,C:/Users/rrics/Documents/!!ResearchBMECOGSCI/gnet,0,0,0,prototype2.png,no,mono,no,18,no,black,no,no,768,1201,3.5.6,legacy,xpyriment,osweb,1.3.13,0,space,space,left,space,49939,20774,34566,49939,2,legacy,824,1536,24,864,24,0,0,1536,1647505950225,1024,2,48000,-16,experiment,p3sarr3.png,1,odd,Win32,186,132651,129641,185,186,656737,658254,651734,134168,651734,186,915185,916695,912184,658264,912184,visual_patterns,0,0,0,yes,1366
undefined,undefined,undefined,undefined,white,no,Mozilla,Netscape,"5.0 (Windows NT 10.0; Win64; x64) AppleWebKit/537.36 (KHTML, like Gecko) Chrome/99.0.4844.74 Safari/537.36",xpyriment,legacy,legacy,0,uniform,0,0,0,0,24,24,24,0,0,74,74,74,74,74,0,74,0,46,46,46,46,46,0,46,17-02-22,17-02-22,09:32:27,Thu Mar 17 2022 09:32:27 GMT+0100 (közép-európai téli idő),The main experiment item,yes,0,0,C:/Users/rrics/Documents/!!ResearchBMECOGSCI/gnet,0,0,0,prototype2.png,no,mono,no,18,no,black,no,no,768,1201,3.5.6,legacy,xpyriment,osweb,1.3.13,0,space,space,left,space,49939,20774,34566,49939,2,legacy,824,1536,24,864,24,0,0,1536,1647505950225,1024,2,48000,-16,experiment,p2sarr3.png,1,odd,Win32,186,132651,129641,185,186,656737,658254,651734,134168,651734,186,919710,921214,916714,658264,916714,visual_patterns,0,0,0,yes,1366
undefined,undefined,undefined,undefined,white,no,Mozilla,Netscape,"5.0 (Windows NT 10.0; Win64; x64) AppleWebKit/537.36 (KHTML, like Gecko) Chrome/99.0.4844.74 Safari/537.36",xpyriment,legacy,legacy,0,uniform,0,0,0,0,24,24,24,0,0,74,74,74,74,74,0,74,0,47,47,47,47,47,0,47,17-02-22,17-02-22,09:32:27,Thu Mar 17 2022 09:32:27 GMT+0100 (közép-európai téli idő),The main experiment item,yes,0,0,C:/Users/rrics/Documents/!!ResearchBMECOGSCI/gnet,0,0,0,prototype2.png,no,mono,no,18,no,black,no,no,768,1201,3.5.6,legacy,xpyriment,osweb,1.3.13,0,space,space,left,space,49939,20774,34566,49939,2,legacy,824,1536,24,864,24,0,0,1536,1647505950225,1024,2,48000,-16,experiment,p4sarr2.png,1,odd,Win32,186,132651,129641,185,186,656737,658254,651734,134168,651734,186,924229,925740,921230,658264,921230,visual_patterns,0,0,0,yes,1366
undefined,undefined,undefined,undefined,white,no,Mozilla,Netscape,"5.0 (Windows NT 10.0; Win64; x64) AppleWebKit/537.36 (KHTML, like Gecko) Chrome/99.0.4844.74 Safari/537.36",xpyriment,legacy,legacy,0,uniform,0,0,0,0,24,24,24,0,0,74,74,74,74,74,0,74,0,48,48,48,48,48,0,48,17-02-22,17-02-22,09:32:27,Thu Mar 17 2022 09:32:27 GMT+0100 (közép-európai téli idő),The main experiment item,yes,0,0,C:/Users/rrics/Documents/!!ResearchBMECOGSCI/gnet,0,0,0,prototype2.png,no,mono,no,18,no,black,no,no,768,1201,3.5.6,legacy,xpyriment,osweb,1.3.13,0,space,space,left,space,49939,20774,34566,49939,2,legacy,824,1536,24,864,24,0,0,1536,1647505950225,1024,2,48000,-16,experiment,p2sarrshacol3.png,1,odd,Win32,186,132651,129641,185,186,656737,658254,651734,134168,651734,186,928773,930282,925776,658264,925776,visual_patterns,0,0,0,yes,1366
