acc,accuracy,average_response_time,avg_rt,background,bidi,browser_codename,browser_name,browser_version,canvas_backend,clock_backend,color_backend,compensation,coordinates,count_end,count_experiment,count_osweb,count_prestudy,count_prestudy_isi,count_prestudy_sequence,count_prestudy_stimpres,count_start,count_study,count_study_coroutines,count_study_isi,count_study_logger,count_study_response,count_study_sequence,count_study_start,count_study_stimpres,count_test,count_test_coroutines,count_test_isi,count_test_logger,count_test_response,count_test_sequence,count_test_start,count_test_stimpres,date_startdate,date_startdateUTC,date_starttime,datetime,description,disable_garbage_collection,experiment_debug,experiment_parameters,experiment_path,experiment_pilot,experiment_taskname,experiment_taskversion,fampict,font_bold,font_family,font_italic,font_size,font_underline,foreground,form_clicks,fullscreen,height,jatosStudyResultId,jatosVersion,keyboard_backend,mouse_backend,opensesame_codename,opensesame_version,repeat_cycle,response,response_start,response_study_start,response_test_start,response_time,response_time_start,response_time_study_start,response_time_test_start,round_decimals,sampler_backend,screen_availableHeight,screen_availableWidth,screen_colorDepth,screen_height,screen_pixelDepth,screen_screenX,screen_screenY,screen_width,sessionid,sound_buf_size,sound_channels,sound_freq,sound_sample_size,start,stim,subject_nr,subject_parity,system_os,time_prestudy,time_prestudy_isi,time_prestudy_stimpres,time_start,time_study,time_study_isi,time_study_logger,time_study_response,time_study_start,time_study_stimpres,time_test,time_test_isi,time_test_logger,time_test_response,time_test_start,time_test_stimpres,title,total_correct,total_response_time,total_responses,uniform_coordinates,width
undefined,undefined,undefined,undefined,white,no,Mozilla,Netscape,"5.0 (Windows NT 10.0; Win64; x64) AppleWebKit/537.36 (KHTML, like Gecko) Chrome/99.0.4844.51 Safari/537.36",xpyriment,legacy,legacy,0,uniform,0,0,0,0,24,24,24,0,0,0,0,0,0,0,0,0,0,,,,,,0,,17-02-22,17-02-22,15:24:49,Thu Mar 17 2022 15:24:49 GMT+0100 (Central European Standard Time),The main experiment item,yes,0,0,C:/Users/rrics/Documents/!!ResearchBMECOGSCI/gnet,0,0,0,prototype4.png,no,mono,no,18,no,black,no,no,768,1202,3.5.6,legacy,xpyriment,osweb,1.3.13,0,space,space,space,,209620,11749,209620,,2,legacy,728,1366,24,768,24,0,0,1366,1647527177709,1024,2,48000,-16,experiment,p6sarr1.png,0,even,Win32,130,123490,120481,130,130,339658,341175,334659,125001,334658,130,,,,,,visual_patterns,0,0,0,yes,1366
undefined,undefined,undefined,undefined,white,no,Mozilla,Netscape,"5.0 (Windows NT 10.0; Win64; x64) AppleWebKit/537.36 (KHTML, like Gecko) Chrome/99.0.4844.51 Safari/537.36",xpyriment,legacy,legacy,0,uniform,0,0,0,0,24,24,24,0,0,1,1,1,1,1,0,1,0,,,,,,0,,17-02-22,17-02-22,15:24:49,Thu Mar 17 2022 15:24:49 GMT+0100 (Central European Standard Time),The main experiment item,yes,0,0,C:/Users/rrics/Documents/!!ResearchBMECOGSCI/gnet,0,0,0,prototype4.png,no,mono,no,18,no,black,no,no,768,1202,3.5.6,legacy,xpyriment,osweb,1.3.13,0,space,space,space,,209620,11749,209620,,2,legacy,728,1366,24,768,24,0,0,1366,1647527177709,1024,2,48000,-16,experiment,prototype3.png,0,even,Win32,130,123490,120481,130,130,346195,347708,341195,125001,341195,130,,,,,,visual_patterns,0,0,0,yes,1366
undefined,undefined,undefined,undefined,white,no,Mozilla,Netscape,"5.0 (Windows NT 10.0; Win64; x64) AppleWebKit/537.36 (KHTML, like Gecko) Chrome/99.0.4844.51 Safari/537.36",xpyriment,legacy,legacy,0,uniform,0,0,0,0,24,24,24,0,0,2,2,2,2,2,0,2,0,,,,,,0,,17-02-22,17-02-22,15:24:49,Thu Mar 17 2022 15:24:49 GMT+0100 (Central European Standard Time),The main experiment item,yes,0,0,C:/Users/rrics/Documents/!!ResearchBMECOGSCI/gnet,0,0,0,prototype4.png,no,mono,no,18,no,black,no,no,768,1202,3.5.6,legacy,xpyriment,osweb,1.3.13,0,space,space,space,,209620,11749,209620,,2,legacy,728,1366,24,768,24,0,0,1366,1647527177709,1024,2,48000,-16,experiment,p3sarr1.png,0,even,Win32,130,123490,120481,130,130,352727,354243,347727,125001,347727,130,,,,,,visual_patterns,0,0,0,yes,1366
undefined,undefined,undefined,undefined,white,no,Mozilla,Netscape,"5.0 (Windows NT 10.0; Win64; x64) AppleWebKit/537.36 (KHTML, like Gecko) Chrome/99.0.4844.51 Safari/537.36",xpyriment,legacy,legacy,0,uniform,0,0,0,0,24,24,24,0,0,3,3,3,3,3,0,3,0,,,,,,0,,17-02-22,17-02-22,15:24:49,Thu Mar 17 2022 15:24:49 GMT+0100 (Central European Standard Time),The main experiment item,yes,0,0,C:/Users/rrics/Documents/!!ResearchBMECOGSCI/gnet,0,0,0,prototype4.png,no,mono,no,18,no,black,no,no,768,1202,3.5.6,legacy,xpyriment,osweb,1.3.13,0,space,space,space,,209620,11749,209620,,2,legacy,728,1366,24,768,24,0,0,1366,1647527177709,1024,2,48000,-16,experiment,p9sarr2.png,0,even,Win32,130,123490,120481,130,130,359261,360762,354263,125001,354263,130,,,,,,visual_patterns,0,0,0,yes,1366
undefined,undefined,undefined,undefined,white,no,Mozilla,Netscape,"5.0 (Windows NT 10.0; Win64; x64) AppleWebKit/537.36 (KHTML, like Gecko) Chrome/99.0.4844.51 Safari/537.36",xpyriment,legacy,legacy,0,uniform,0,0,0,0,24,24,24,0,0,4,4,4,4,4,0,4,0,,,,,,0,,17-02-22,17-02-22,15:24:49,Thu Mar 17 2022 15:24:49 GMT+0100 (Central European Standard Time),The main experiment item,yes,0,0,C:/Users/rrics/Documents/!!ResearchBMECOGSCI/gnet,0,0,0,prototype4.png,no,mono,no,18,no,black,no,no,768,1202,3.5.6,legacy,xpyriment,osweb,1.3.13,0,space,space,space,,209620,11749,209620,,2,legacy,728,1366,24,768,24,0,0,1366,1647527177709,1024,2,48000,-16,experiment,p4sarr2.png,0,even,Win32,130,123490,120481,130,130,365780,367285,360783,125001,360783,130,,,,,,visual_patterns,0,0,0,yes,1366
undefined,undefined,undefined,undefined,white,no,Mozilla,Netscape,"5.0 (Windows NT 10.0; Win64; x64) AppleWebKit/537.36 (KHTML, like Gecko) Chrome/99.0.4844.51 Safari/537.36",xpyriment,legacy,legacy,0,uniform,0,0,0,0,24,24,24,0,0,5,5,5,5,5,0,5,0,,,,,,0,,17-02-22,17-02-22,15:24:49,Thu Mar 17 2022 15:24:49 GMT+0100 (Central European Standard Time),The main experiment item,yes,0,0,C:/Users/rrics/Documents/!!ResearchBMECOGSCI/gnet,0,0,0,prototype4.png,no,mono,no,18,no,black,no,no,768,1202,3.5.6,legacy,xpyriment,osweb,1.3.13,0,space,space,space,,209620,11749,209620,,2,legacy,728,1366,24,768,24,0,0,1366,1647527177709,1024,2,48000,-16,experiment,p4sarrshacol2.png,0,even,Win32,130,123490,120481,130,130,372302,373817,367305,125001,367305,130,,,,,,visual_patterns,0,0,0,yes,1366
undefined,undefined,undefined,undefined,white,no,Mozilla,Netscape,"5.0 (Windows NT 10.0; Win64; x64) AppleWebKit/537.36 (KHTML, like Gecko) Chrome/99.0.4844.51 Safari/537.36",xpyriment,legacy,legacy,0,uniform,0,0,0,0,24,24,24,0,0,6,6,6,6,6,0,6,0,,,,,,0,,17-02-22,17-02-22,15:24:49,Thu Mar 17 2022 15:24:49 GMT+0100 (Central European Standard Time),The main experiment item,yes,0,0,C:/Users/rrics/Documents/!!ResearchBMECOGSCI/gnet,0,0,0,prototype4.png,no,mono,no,18,no,black,no,no,768,1202,3.5.6,legacy,xpyriment,osweb,1.3.13,0,space,space,space,,209620,11749,209620,,2,legacy,728,1366,24,768,24,0,0,1366,1647527177709,1024,2,48000,-16,experiment,p5sarrsha2.png,0,even,Win32,130,123490,120481,130,130,378829,380333,373831,125001,373831,130,,,,,,visual_patterns,0,0,0,yes,1366
undefined,undefined,undefined,undefined,white,no,Mozilla,Netscape,"5.0 (Windows NT 10.0; Win64; x64) AppleWebKit/537.36 (KHTML, like Gecko) Chrome/99.0.4844.51 Safari/537.36",xpyriment,legacy,legacy,0,uniform,0,0,0,0,24,24,24,0,0,7,7,7,7,7,0,7,0,,,,,,0,,17-02-22,17-02-22,15:24:49,Thu Mar 17 2022 15:24:49 GMT+0100 (Central European Standard Time),The main experiment item,yes,0,0,C:/Users/rrics/Documents/!!ResearchBMECOGSCI/gnet,0,0,0,prototype4.png,no,mono,no,18,no,black,no,no,768,1202,3.5.6,legacy,xpyriment,osweb,1.3.13,0,space,space,space,,209620,11749,209620,,2,legacy,728,1366,24,768,24,0,0,1366,1647527177709,1024,2,48000,-16,experiment,p2sarr1.png,0,even,Win32,130,123490,120481,130,130,385343,386852,380342,125001,380342,130,,,,,,visual_patterns,0,0,0,yes,1366
undefined,undefined,undefined,undefined,white,no,Mozilla,Netscape,"5.0 (Windows NT 10.0; Win64; x64) AppleWebKit/537.36 (KHTML, like Gecko) Chrome/99.0.4844.51 Safari/537.36",xpyriment,legacy,legacy,0,uniform,0,0,0,0,24,24,24,0,0,8,8,8,8,8,0,8,0,,,,,,0,,17-02-22,17-02-22,15:24:49,Thu Mar 17 2022 15:24:49 GMT+0100 (Central European Standard Time),The main experiment item,yes,0,0,C:/Users/rrics/Documents/!!ResearchBMECOGSCI/gnet,0,0,0,prototype4.png,no,mono,no,18,no,black,no,no,768,1202,3.5.6,legacy,xpyriment,osweb,1.3.13,0,space,space,space,,209620,11749,209620,,2,legacy,728,1366,24,768,24,0,0,1366,1647527177709,1024,2,48000,-16,experiment,prototype4.png,0,even,Win32,130,123490,120481,130,130,391860,393370,386861,125001,386860,130,,,,,,visual_patterns,0,0,0,yes,1366
undefined,undefined,undefined,undefined,white,no,Mozilla,Netscape,"5.0 (Windows NT 10.0; Win64; x64) AppleWebKit/537.36 (KHTML, like Gecko) Chrome/99.0.4844.51 Safari/537.36",xpyriment,legacy,legacy,0,uniform,0,0,0,0,24,24,24,0,0,9,9,9,9,9,0,9,0,,,,,,0,,17-02-22,17-02-22,15:24:49,Thu Mar 17 2022 15:24:49 GMT+0100 (Central European Standard Time),The main experiment item,yes,0,0,C:/Users/rrics/Documents/!!ResearchBMECOGSCI/gnet,0,0,0,prototype4.png,no,mono,no,18,no,black,no,no,768,1202,3.5.6,legacy,xpyriment,osweb,1.3.13,0,space,space,space,,209620,11749,209620,,2,legacy,728,1366,24,768,24,0,0,1366,1647527177709,1024,2,48000,-16,experiment,p5sarrsha1.png,0,even,Win32,130,123490,120481,130,130,398379,399889,393379,125001,393379,130,,,,,,visual_patterns,0,0,0,yes,1366
undefined,undefined,undefined,undefined,white,no,Mozilla,Netscape,"5.0 (Windows NT 10.0; Win64; x64) AppleWebKit/537.36 (KHTML, like Gecko) Chrome/99.0.4844.51 Safari/537.36",xpyriment,legacy,legacy,0,uniform,0,0,0,0,24,24,24,0,0,10,10,10,10,10,0,10,0,,,,,,0,,17-02-22,17-02-22,15:24:49,Thu Mar 17 2022 15:24:49 GMT+0100 (Central European Standard Time),The main experiment item,yes,0,0,C:/Users/rrics/Documents/!!ResearchBMECOGSCI/gnet,0,0,0,prototype4.png,no,mono,no,18,no,black,no,no,768,1202,3.5.6,legacy,xpyriment,osweb,1.3.13,0,space,space,space,,209620,11749,209620,,2,legacy,728,1366,24,768,24,0,0,1366,1647527177709,1024,2,48000,-16,experiment,p5sarrcol1.png,0,even,Win32,130,123490,120481,130,130,404907,406424,399910,125001,399910,130,,,,,,visual_patterns,0,0,0,yes,1366
undefined,undefined,undefined,undefined,white,no,Mozilla,Netscape,"5.0 (Windows NT 10.0; Win64; x64) AppleWebKit/537.36 (KHTML, like Gecko) Chrome/99.0.4844.51 Safari/537.36",xpyriment,legacy,legacy,0,uniform,0,0,0,0,24,24,24,0,0,11,11,11,11,11,0,11,0,,,,,,0,,17-02-22,17-02-22,15:24:49,Thu Mar 17 2022 15:24:49 GMT+0100 (Central European Standard Time),The main experiment item,yes,0,0,C:/Users/rrics/Documents/!!ResearchBMECOGSCI/gnet,0,0,0,prototype4.png,no,mono,no,18,no,black,no,no,768,1202,3.5.6,legacy,xpyriment,osweb,1.3.13,0,space,space,space,,209620,11749,209620,,2,legacy,728,1366,24,768,24,0,0,1366,1647527177709,1024,2,48000,-16,experiment,p8sarr2.png,0,even,Win32,130,123490,120481,130,130,411435,412943,406435,125001,406435,130,,,,,,visual_patterns,0,0,0,yes,1366
undefined,undefined,undefined,undefined,white,no,Mozilla,Netscape,"5.0 (Windows NT 10.0; Win64; x64) AppleWebKit/537.36 (KHTML, like Gecko) Chrome/99.0.4844.51 Safari/537.36",xpyriment,legacy,legacy,0,uniform,0,0,0,0,24,24,24,0,0,12,12,12,12,12,0,12,0,,,,,,0,,17-02-22,17-02-22,15:24:49,Thu Mar 17 2022 15:24:49 GMT+0100 (Central European Standard Time),The main experiment item,yes,0,0,C:/Users/rrics/Documents/!!ResearchBMECOGSCI/gnet,0,0,0,prototype4.png,no,mono,no,18,no,black,no,no,768,1202,3.5.6,legacy,xpyriment,osweb,1.3.13,0,space,space,space,,209620,11749,209620,,2,legacy,728,1366,24,768,24,0,0,1366,1647527177709,1024,2,48000,-16,experiment,p5sarrshacol2.png,0,even,Win32,130,123490,120481,130,130,417952,419460,412954,125001,412953,130,,,,,,visual_patterns,0,0,0,yes,1366
undefined,undefined,undefined,undefined,white,no,Mozilla,Netscape,"5.0 (Windows NT 10.0; Win64; x64) AppleWebKit/537.36 (KHTML, like Gecko) Chrome/99.0.4844.51 Safari/537.36",xpyriment,legacy,legacy,0,uniform,0,0,0,0,24,24,24,0,0,13,13,13,13,13,0,13,0,,,,,,0,,17-02-22,17-02-22,15:24:49,Thu Mar 17 2022 15:24:49 GMT+0100 (Central European Standard Time),The main experiment item,yes,0,0,C:/Users/rrics/Documents/!!ResearchBMECOGSCI/gnet,0,0,0,prototype4.png,no,mono,no,18,no,black,no,no,768,1202,3.5.6,legacy,xpyriment,osweb,1.3.13,0,space,space,space,,209620,11749,209620,,2,legacy,728,1366,24,768,24,0,0,1366,1647527177709,1024,2,48000,-16,experiment,p8sarr1.png,0,even,Win32,130,123490,120481,130,130,424476,425982,419481,125001,419481,130,,,,,,visual_patterns,0,0,0,yes,1366
undefined,undefined,undefined,undefined,white,no,Mozilla,Netscape,"5.0 (Windows NT 10.0; Win64; x64) AppleWebKit/537.36 (KHTML, like Gecko) Chrome/99.0.4844.51 Safari/537.36",xpyriment,legacy,legacy,0,uniform,0,0,0,0,24,24,24,0,0,14,14,14,14,14,0,14,0,,,,,,0,,17-02-22,17-02-22,15:24:49,Thu Mar 17 2022 15:24:49 GMT+0100 (Central European Standard Time),The main experiment item,yes,0,0,C:/Users/rrics/Documents/!!ResearchBMECOGSCI/gnet,0,0,0,prototype4.png,no,mono,no,18,no,black,no,no,768,1202,3.5.6,legacy,xpyriment,osweb,1.3.13,0,space,space,space,,209620,11749,209620,,2,legacy,728,1366,24,768,24,0,0,1366,1647527177709,1024,2,48000,-16,experiment,p3sarrcol1.png,0,even,Win32,130,123490,120481,130,130,430999,432514,426001,125001,426001,130,,,,,,visual_patterns,0,0,0,yes,1366
undefined,undefined,undefined,undefined,white,no,Mozilla,Netscape,"5.0 (Windows NT 10.0; Win64; x64) AppleWebKit/537.36 (KHTML, like Gecko) Chrome/99.0.4844.51 Safari/537.36",xpyriment,legacy,legacy,0,uniform,0,0,0,0,24,24,24,0,0,15,15,15,15,15,0,15,0,,,,,,0,,17-02-22,17-02-22,15:24:49,Thu Mar 17 2022 15:24:49 GMT+0100 (Central European Standard Time),The main experiment item,yes,0,0,C:/Users/rrics/Documents/!!ResearchBMECOGSCI/gnet,0,0,0,prototype4.png,no,mono,no,18,no,black,no,no,768,1202,3.5.6,legacy,xpyriment,osweb,1.3.13,0,space,space,space,,209620,11749,209620,,2,legacy,728,1366,24,768,24,0,0,1366,1647527177709,1024,2,48000,-16,experiment,prototype1.png,0,even,Win32,130,123490,120481,130,130,437525,439033,432523,125001,432523,130,,,,,,visual_patterns,0,0,0,yes,1366
undefined,undefined,undefined,undefined,white,no,Mozilla,Netscape,"5.0 (Windows NT 10.0; Win64; x64) AppleWebKit/537.36 (KHTML, like Gecko) Chrome/99.0.4844.51 Safari/537.36",xpyriment,legacy,legacy,0,uniform,0,0,0,0,24,24,24,0,0,16,16,16,16,16,0,16,0,,,,,,0,,17-02-22,17-02-22,15:24:49,Thu Mar 17 2022 15:24:49 GMT+0100 (Central European Standard Time),The main experiment item,yes,0,0,C:/Users/rrics/Documents/!!ResearchBMECOGSCI/gnet,0,0,0,prototype4.png,no,mono,no,18,no,black,no,no,768,1202,3.5.6,legacy,xpyriment,osweb,1.3.13,0,space,space,space,,209620,11749,209620,,2,legacy,728,1366,24,768,24,0,0,1366,1647527177709,1024,2,48000,-16,experiment,p2sarr2.png,0,even,Win32,130,123490,120481,130,130,444045,445551,439046,125001,439046,130,,,,,,visual_patterns,0,0,0,yes,1366
undefined,undefined,undefined,undefined,white,no,Mozilla,Netscape,"5.0 (Windows NT 10.0; Win64; x64) AppleWebKit/537.36 (KHTML, like Gecko) Chrome/99.0.4844.51 Safari/537.36",xpyriment,legacy,legacy,0,uniform,0,0,0,0,24,24,24,0,0,17,17,17,17,17,0,17,0,,,,,,0,,17-02-22,17-02-22,15:24:49,Thu Mar 17 2022 15:24:49 GMT+0100 (Central European Standard Time),The main experiment item,yes,0,0,C:/Users/rrics/Documents/!!ResearchBMECOGSCI/gnet,0,0,0,prototype4.png,no,mono,no,18,no,black,no,no,768,1202,3.5.6,legacy,xpyriment,osweb,1.3.13,0,space,space,space,,209620,11749,209620,,2,legacy,728,1366,24,768,24,0,0,1366,1647527177709,1024,2,48000,-16,experiment,p3sarrsha2.png,0,even,Win32,130,123490,120481,130,130,450565,452076,445569,125001,445569,130,,,,,,visual_patterns,0,0,0,yes,1366
undefined,undefined,undefined,undefined,white,no,Mozilla,Netscape,"5.0 (Windows NT 10.0; Win64; x64) AppleWebKit/537.36 (KHTML, like Gecko) Chrome/99.0.4844.51 Safari/537.36",xpyriment,legacy,legacy,0,uniform,0,0,0,0,24,24,24,0,0,18,18,18,18,18,0,18,0,,,,,,0,,17-02-22,17-02-22,15:24:49,Thu Mar 17 2022 15:24:49 GMT+0100 (Central European Standard Time),The main experiment item,yes,0,0,C:/Users/rrics/Documents/!!ResearchBMECOGSCI/gnet,0,0,0,prototype4.png,no,mono,no,18,no,black,no,no,768,1202,3.5.6,legacy,xpyriment,osweb,1.3.13,0,space,space,space,,209620,11749,209620,,2,legacy,728,1366,24,768,24,0,0,1366,1647527177709,1024,2,48000,-16,experiment,prototype4.png,0,even,Win32,130,123490,120481,130,130,457089,458605,452086,125001,452086,130,,,,,,visual_patterns,0,0,0,yes,1366
undefined,undefined,undefined,undefined,white,no,Mozilla,Netscape,"5.0 (Windows NT 10.0; Win64; x64) AppleWebKit/537.36 (KHTML, like Gecko) Chrome/99.0.4844.51 Safari/537.36",xpyriment,legacy,legacy,0,uniform,0,0,0,0,24,24,24,0,0,19,19,19,19,19,0,19,0,,,,,,0,,17-02-22,17-02-22,15:24:49,Thu Mar 17 2022 15:24:49 GMT+0100 (Central European Standard Time),The main experiment item,yes,0,0,C:/Users/rrics/Documents/!!ResearchBMECOGSCI/gnet,0,0,0,prototype4.png,no,mono,no,18,no,black,no,no,768,1202,3.5.6,legacy,xpyriment,osweb,1.3.13,0,space,space,space,,209620,11749,209620,,2,legacy,728,1366,24,768,24,0,0,1366,1647527177709,1024,2,48000,-16,experiment,p3sarrsha1.png,0,even,Win32,130,123490,120481,130,130,463619,465123,458623,125001,458623,130,,,,,,visual_patterns,0,0,0,yes,1366
undefined,undefined,undefined,undefined,white,no,Mozilla,Netscape,"5.0 (Windows NT 10.0; Win64; x64) AppleWebKit/537.36 (KHTML, like Gecko) Chrome/99.0.4844.51 Safari/537.36",xpyriment,legacy,legacy,0,uniform,0,0,0,0,24,24,24,0,0,20,20,20,20,20,0,20,0,,,,,,0,,17-02-22,17-02-22,15:24:49,Thu Mar 17 2022 15:24:49 GMT+0100 (Central European Standard Time),The main experiment item,yes,0,0,C:/Users/rrics/Documents/!!ResearchBMECOGSCI/gnet,0,0,0,prototype4.png,no,mono,no,18,no,black,no,no,768,1202,3.5.6,legacy,xpyriment,osweb,1.3.13,0,space,space,space,,209620,11749,209620,,2,legacy,728,1366,24,768,24,0,0,1366,1647527177709,1024,2,48000,-16,experiment,prototype2.png,0,even,Win32,130,123490,120481,130,130,470143,471649,465142,125001,465142,130,,,,,,visual_patterns,0,0,0,yes,1366
undefined,undefined,undefined,undefined,white,no,Mozilla,Netscape,"5.0 (Windows NT 10.0; Win64; x64) AppleWebKit/537.36 (KHTML, like Gecko) Chrome/99.0.4844.51 Safari/537.36",xpyriment,legacy,legacy,0,uniform,0,0,0,0,24,24,24,0,0,21,21,21,21,21,0,21,0,,,,,,0,,17-02-22,17-02-22,15:24:49,Thu Mar 17 2022 15:24:49 GMT+0100 (Central European Standard Time),The main experiment item,yes,0,0,C:/Users/rrics/Documents/!!ResearchBMECOGSCI/gnet,0,0,0,prototype4.png,no,mono,no,18,no,black,no,no,768,1202,3.5.6,legacy,xpyriment,osweb,1.3.13,0,space,space,space,,209620,11749,209620,,2,legacy,728,1366,24,768,24,0,0,1366,1647527177709,1024,2,48000,-16,experiment,p4sarrcol2.png,0,even,Win32,130,123490,120481,130,130,476665,478176,471665,125001,471665,130,,,,,,visual_patterns,0,0,0,yes,1366
undefined,undefined,undefined,undefined,white,no,Mozilla,Netscape,"5.0 (Windows NT 10.0; Win64; x64) AppleWebKit/537.36 (KHTML, like Gecko) Chrome/99.0.4844.51 Safari/537.36",xpyriment,legacy,legacy,0,uniform,0,0,0,0,24,24,24,0,0,22,22,22,22,22,0,22,0,,,,,,0,,17-02-22,17-02-22,15:24:49,Thu Mar 17 2022 15:24:49 GMT+0100 (Central European Standard Time),The main experiment item,yes,0,0,C:/Users/rrics/Documents/!!ResearchBMECOGSCI/gnet,0,0,0,prototype4.png,no,mono,no,18,no,black,no,no,768,1202,3.5.6,legacy,xpyriment,osweb,1.3.13,0,space,space,space,,209620,11749,209620,,2,legacy,728,1366,24,768,24,0,0,1366,1647527177709,1024,2,48000,-16,experiment,p5sarrshacol1.png,0,even,Win32,130,123490,120481,130,130,483195,484697,478197,125001,478196,130,,,,,,visual_patterns,0,0,0,yes,1366
undefined,undefined,undefined,undefined,white,no,Mozilla,Netscape,"5.0 (Windows NT 10.0; Win64; x64) AppleWebKit/537.36 (KHTML, like Gecko) Chrome/99.0.4844.51 Safari/537.36",xpyriment,legacy,legacy,0,uniform,0,0,0,0,24,24,24,0,0,23,23,23,23,23,0,23,0,,,,,,0,,17-02-22,17-02-22,15:24:49,Thu Mar 17 2022 15:24:49 GMT+0100 (Central European Standard Time),The main experiment item,yes,0,0,C:/Users/rrics/Documents/!!ResearchBMECOGSCI/gnet,0,0,0,prototype4.png,no,mono,no,18,no,black,no,no,768,1202,3.5.6,legacy,xpyriment,osweb,1.3.13,0,space,space,space,,209620,11749,209620,,2,legacy,728,1366,24,768,24,0,0,1366,1647527177709,1024,2,48000,-16,experiment,prototype2.png,0,even,Win32,130,123490,120481,130,130,489714,491217,484712,125001,484712,130,,,,,,visual_patterns,0,0,0,yes,1366
undefined,undefined,undefined,undefined,white,no,Mozilla,Netscape,"5.0 (Windows NT 10.0; Win64; x64) AppleWebKit/537.36 (KHTML, like Gecko) Chrome/99.0.4844.51 Safari/537.36",xpyriment,legacy,legacy,0,uniform,0,0,0,0,24,24,24,0,0,24,24,24,24,24,0,24,0,,,,,,0,,17-02-22,17-02-22,15:24:49,Thu Mar 17 2022 15:24:49 GMT+0100 (Central European Standard Time),The main experiment item,yes,0,0,C:/Users/rrics/Documents/!!ResearchBMECOGSCI/gnet,0,0,0,prototype4.png,no,mono,no,18,no,black,no,no,768,1202,3.5.6,legacy,xpyriment,osweb,1.3.13,0,space,space,space,,209620,11749,209620,,2,legacy,728,1366,24,768,24,0,0,1366,1647527177709,1024,2,48000,-16,experiment,p4sarrsha2.png,0,even,Win32,130,123490,120481,130,130,496226,497732,491229,125001,491229,130,,,,,,visual_patterns,0,0,0,yes,1366
undefined,undefined,undefined,undefined,white,no,Mozilla,Netscape,"5.0 (Windows NT 10.0; Win64; x64) AppleWebKit/537.36 (KHTML, like Gecko) Chrome/99.0.4844.51 Safari/537.36",xpyriment,legacy,legacy,0,uniform,0,0,0,0,24,24,24,0,0,25,25,25,25,25,0,25,0,,,,,,0,,17-02-22,17-02-22,15:24:49,Thu Mar 17 2022 15:24:49 GMT+0100 (Central European Standard Time),The main experiment item,yes,0,0,C:/Users/rrics/Documents/!!ResearchBMECOGSCI/gnet,0,0,0,prototype4.png,no,mono,no,18,no,black,no,no,768,1202,3.5.6,legacy,xpyriment,osweb,1.3.13,0,space,space,space,,209620,11749,209620,,2,legacy,728,1366,24,768,24,0,0,1366,1647527177709,1024,2,48000,-16,experiment,p9sarr1.png,0,even,Win32,130,123490,120481,130,130,502742,504251,497741,125001,497741,130,,,,,,visual_patterns,0,0,0,yes,1366
undefined,undefined,undefined,undefined,white,no,Mozilla,Netscape,"5.0 (Windows NT 10.0; Win64; x64) AppleWebKit/537.36 (KHTML, like Gecko) Chrome/99.0.4844.51 Safari/537.36",xpyriment,legacy,legacy,0,uniform,0,0,0,0,24,24,24,0,0,26,26,26,26,26,0,26,0,,,,,,0,,17-02-22,17-02-22,15:24:49,Thu Mar 17 2022 15:24:49 GMT+0100 (Central European Standard Time),The main experiment item,yes,0,0,C:/Users/rrics/Documents/!!ResearchBMECOGSCI/gnet,0,0,0,prototype4.png,no,mono,no,18,no,black,no,no,768,1202,3.5.6,legacy,xpyriment,osweb,1.3.13,0,space,space,space,,209620,11749,209620,,2,legacy,728,1366,24,768,24,0,0,1366,1647527177709,1024,2,48000,-16,experiment,prototype1.png,0,even,Win32,130,123490,120481,130,130,509258,510768,504259,125001,504259,130,,,,,,visual_patterns,0,0,0,yes,1366
undefined,undefined,undefined,undefined,white,no,Mozilla,Netscape,"5.0 (Windows NT 10.0; Win64; x64) AppleWebKit/537.36 (KHTML, like Gecko) Chrome/99.0.4844.51 Safari/537.36",xpyriment,legacy,legacy,0,uniform,0,0,0,0,24,24,24,0,0,27,27,27,27,27,0,27,0,,,,,,0,,17-02-22,17-02-22,15:24:49,Thu Mar 17 2022 15:24:49 GMT+0100 (Central European Standard Time),The main experiment item,yes,0,0,C:/Users/rrics/Documents/!!ResearchBMECOGSCI/gnet,0,0,0,prototype4.png,no,mono,no,18,no,black,no,no,768,1202,3.5.6,legacy,xpyriment,osweb,1.3.13,0,space,space,space,,209620,11749,209620,,2,legacy,728,1366,24,768,24,0,0,1366,1647527177709,1024,2,48000,-16,experiment,p4sarrcol1.png,0,even,Win32,130,123490,120481,130,130,515781,517287,510780,125001,510780,130,,,,,,visual_patterns,0,0,0,yes,1366
undefined,undefined,undefined,undefined,white,no,Mozilla,Netscape,"5.0 (Windows NT 10.0; Win64; x64) AppleWebKit/537.36 (KHTML, like Gecko) Chrome/99.0.4844.51 Safari/537.36",xpyriment,legacy,legacy,0,uniform,0,0,0,0,24,24,24,0,0,28,28,28,28,28,0,28,0,,,,,,0,,17-02-22,17-02-22,15:24:49,Thu Mar 17 2022 15:24:49 GMT+0100 (Central European Standard Time),The main experiment item,yes,0,0,C:/Users/rrics/Documents/!!ResearchBMECOGSCI/gnet,0,0,0,prototype4.png,no,mono,no,18,no,black,no,no,768,1202,3.5.6,legacy,xpyriment,osweb,1.3.13,0,space,space,space,,209620,11749,209620,,2,legacy,728,1366,24,768,24,0,0,1366,1647527177709,1024,2,48000,-16,experiment,prototype4.png,0,even,Win32,130,123490,120481,130,130,522299,523806,517296,125001,517296,130,,,,,,visual_patterns,0,0,0,yes,1366
undefined,undefined,undefined,undefined,white,no,Mozilla,Netscape,"5.0 (Windows NT 10.0; Win64; x64) AppleWebKit/537.36 (KHTML, like Gecko) Chrome/99.0.4844.51 Safari/537.36",xpyriment,legacy,legacy,0,uniform,0,0,0,0,24,24,24,0,0,29,29,29,29,29,0,29,0,,,,,,0,,17-02-22,17-02-22,15:24:49,Thu Mar 17 2022 15:24:49 GMT+0100 (Central European Standard Time),The main experiment item,yes,0,0,C:/Users/rrics/Documents/!!ResearchBMECOGSCI/gnet,0,0,0,prototype4.png,no,mono,no,18,no,black,no,no,768,1202,3.5.6,legacy,xpyriment,osweb,1.3.13,0,space,space,space,,209620,11749,209620,,2,legacy,728,1366,24,768,24,0,0,1366,1647527177709,1024,2,48000,-16,experiment,prototype5.png,0,even,Win32,130,123490,120481,130,130,528821,530324,523821,125001,523821,130,,,,,,visual_patterns,0,0,0,yes,1366
undefined,undefined,undefined,undefined,white,no,Mozilla,Netscape,"5.0 (Windows NT 10.0; Win64; x64) AppleWebKit/537.36 (KHTML, like Gecko) Chrome/99.0.4844.51 Safari/537.36",xpyriment,legacy,legacy,0,uniform,0,0,0,0,24,24,24,0,0,30,30,30,30,30,0,30,0,,,,,,0,,17-02-22,17-02-22,15:24:49,Thu Mar 17 2022 15:24:49 GMT+0100 (Central European Standard Time),The main experiment item,yes,0,0,C:/Users/rrics/Documents/!!ResearchBMECOGSCI/gnet,0,0,0,prototype4.png,no,mono,no,18,no,black,no,no,768,1202,3.5.6,legacy,xpyriment,osweb,1.3.13,0,space,space,space,,209620,11749,209620,,2,legacy,728,1366,24,768,24,0,0,1366,1647527177709,1024,2,48000,-16,experiment,p5sarrcol2.png,0,even,Win32,130,123490,120481,130,130,535342,536844,530344,125001,530344,130,,,,,,visual_patterns,0,0,0,yes,1366
undefined,undefined,undefined,undefined,white,no,Mozilla,Netscape,"5.0 (Windows NT 10.0; Win64; x64) AppleWebKit/537.36 (KHTML, like Gecko) Chrome/99.0.4844.51 Safari/537.36",xpyriment,legacy,legacy,0,uniform,0,0,0,0,24,24,24,0,0,31,31,31,31,31,0,31,0,,,,,,0,,17-02-22,17-02-22,15:24:49,Thu Mar 17 2022 15:24:49 GMT+0100 (Central European Standard Time),The main experiment item,yes,0,0,C:/Users/rrics/Documents/!!ResearchBMECOGSCI/gnet,0,0,0,prototype4.png,no,mono,no,18,no,black,no,no,768,1202,3.5.6,legacy,xpyriment,osweb,1.3.13,0,space,space,space,,209620,11749,209620,,2,legacy,728,1366,24,768,24,0,0,1366,1647527177709,1024,2,48000,-16,experiment,p2sarrsha2.png,0,even,Win32,130,123490,120481,130,130,541859,543361,536864,125001,536864,130,,,,,,visual_patterns,0,0,0,yes,1366
undefined,undefined,undefined,undefined,white,no,Mozilla,Netscape,"5.0 (Windows NT 10.0; Win64; x64) AppleWebKit/537.36 (KHTML, like Gecko) Chrome/99.0.4844.51 Safari/537.36",xpyriment,legacy,legacy,0,uniform,0,0,0,0,24,24,24,0,0,32,32,32,32,32,0,32,0,,,,,,0,,17-02-22,17-02-22,15:24:49,Thu Mar 17 2022 15:24:49 GMT+0100 (Central European Standard Time),The main experiment item,yes,0,0,C:/Users/rrics/Documents/!!ResearchBMECOGSCI/gnet,0,0,0,prototype4.png,no,mono,no,18,no,black,no,no,768,1202,3.5.6,legacy,xpyriment,osweb,1.3.13,0,space,space,space,,209620,11749,209620,,2,legacy,728,1366,24,768,24,0,0,1366,1647527177709,1024,2,48000,-16,experiment,p5sarr1.png,0,even,Win32,130,123490,120481,130,130,548378,549879,543380,125001,543380,130,,,,,,visual_patterns,0,0,0,yes,1366
undefined,undefined,undefined,undefined,white,no,Mozilla,Netscape,"5.0 (Windows NT 10.0; Win64; x64) AppleWebKit/537.36 (KHTML, like Gecko) Chrome/99.0.4844.51 Safari/537.36",xpyriment,legacy,legacy,0,uniform,0,0,0,0,24,24,24,0,0,33,33,33,33,33,0,33,0,,,,,,0,,17-02-22,17-02-22,15:24:49,Thu Mar 17 2022 15:24:49 GMT+0100 (Central European Standard Time),The main experiment item,yes,0,0,C:/Users/rrics/Documents/!!ResearchBMECOGSCI/gnet,0,0,0,prototype4.png,no,mono,no,18,no,black,no,no,768,1202,3.5.6,legacy,xpyriment,osweb,1.3.13,0,space,space,space,,209620,11749,209620,,2,legacy,728,1366,24,768,24,0,0,1366,1647527177709,1024,2,48000,-16,experiment,p3sarrshacol1.png,0,even,Win32,130,123490,120481,130,130,554895,556403,549897,125001,549897,130,,,,,,visual_patterns,0,0,0,yes,1366
undefined,undefined,undefined,undefined,white,no,Mozilla,Netscape,"5.0 (Windows NT 10.0; Win64; x64) AppleWebKit/537.36 (KHTML, like Gecko) Chrome/99.0.4844.51 Safari/537.36",xpyriment,legacy,legacy,0,uniform,0,0,0,0,24,24,24,0,0,34,34,34,34,34,0,34,0,,,,,,0,,17-02-22,17-02-22,15:24:49,Thu Mar 17 2022 15:24:49 GMT+0100 (Central European Standard Time),The main experiment item,yes,0,0,C:/Users/rrics/Documents/!!ResearchBMECOGSCI/gnet,0,0,0,prototype4.png,no,mono,no,18,no,black,no,no,768,1202,3.5.6,legacy,xpyriment,osweb,1.3.13,0,space,space,space,,209620,11749,209620,,2,legacy,728,1366,24,768,24,0,0,1366,1647527177709,1024,2,48000,-16,experiment,prototype1.png,0,even,Win32,130,123490,120481,130,130,561420,562934,556419,125001,556419,130,,,,,,visual_patterns,0,0,0,yes,1366
undefined,undefined,undefined,undefined,white,no,Mozilla,Netscape,"5.0 (Windows NT 10.0; Win64; x64) AppleWebKit/537.36 (KHTML, like Gecko) Chrome/99.0.4844.51 Safari/537.36",xpyriment,legacy,legacy,0,uniform,0,0,0,0,24,24,24,0,0,35,35,35,35,35,0,35,0,,,,,,0,,17-02-22,17-02-22,15:24:49,Thu Mar 17 2022 15:24:49 GMT+0100 (Central European Standard Time),The main experiment item,yes,0,0,C:/Users/rrics/Documents/!!ResearchBMECOGSCI/gnet,0,0,0,prototype4.png,no,mono,no,18,no,black,no,no,768,1202,3.5.6,legacy,xpyriment,osweb,1.3.13,0,space,space,space,,209620,11749,209620,,2,legacy,728,1366,24,768,24,0,0,1366,1647527177709,1024,2,48000,-16,experiment,p4sarrshacol1.png,0,even,Win32,130,123490,120481,130,130,567948,569452,562954,125001,562954,130,,,,,,visual_patterns,0,0,0,yes,1366
undefined,undefined,undefined,undefined,white,no,Mozilla,Netscape,"5.0 (Windows NT 10.0; Win64; x64) AppleWebKit/537.36 (KHTML, like Gecko) Chrome/99.0.4844.51 Safari/537.36",xpyriment,legacy,legacy,0,uniform,0,0,0,0,24,24,24,0,0,36,36,36,36,36,0,36,0,,,,,,0,,17-02-22,17-02-22,15:24:49,Thu Mar 17 2022 15:24:49 GMT+0100 (Central European Standard Time),The main experiment item,yes,0,0,C:/Users/rrics/Documents/!!ResearchBMECOGSCI/gnet,0,0,0,prototype4.png,no,mono,no,18,no,black,no,no,768,1202,3.5.6,legacy,xpyriment,osweb,1.3.13,0,space,space,space,,209620,11749,209620,,2,legacy,728,1366,24,768,24,0,0,1366,1647527177709,1024,2,48000,-16,experiment,prototype3.png,0,even,Win32,130,123490,120481,130,130,574470,575975,569470,125001,569469,130,,,,,,visual_patterns,0,0,0,yes,1366
undefined,undefined,undefined,undefined,white,no,Mozilla,Netscape,"5.0 (Windows NT 10.0; Win64; x64) AppleWebKit/537.36 (KHTML, like Gecko) Chrome/99.0.4844.51 Safari/537.36",xpyriment,legacy,legacy,0,uniform,0,0,0,0,24,24,24,0,0,37,37,37,37,37,0,37,0,,,,,,0,,17-02-22,17-02-22,15:24:49,Thu Mar 17 2022 15:24:49 GMT+0100 (Central European Standard Time),The main experiment item,yes,0,0,C:/Users/rrics/Documents/!!ResearchBMECOGSCI/gnet,0,0,0,prototype4.png,no,mono,no,18,no,black,no,no,768,1202,3.5.6,legacy,xpyriment,osweb,1.3.13,0,space,space,space,,209620,11749,209620,,2,legacy,728,1366,24,768,24,0,0,1366,1647527177709,1024,2,48000,-16,experiment,prototype3.png,0,even,Win32,130,123490,120481,130,130,580990,582505,575991,125001,575990,130,,,,,,visual_patterns,0,0,0,yes,1366
undefined,undefined,undefined,undefined,white,no,Mozilla,Netscape,"5.0 (Windows NT 10.0; Win64; x64) AppleWebKit/537.36 (KHTML, like Gecko) Chrome/99.0.4844.51 Safari/537.36",xpyriment,legacy,legacy,0,uniform,0,0,0,0,24,24,24,0,0,38,38,38,38,38,0,38,0,,,,,,0,,17-02-22,17-02-22,15:24:49,Thu Mar 17 2022 15:24:49 GMT+0100 (Central European Standard Time),The main experiment item,yes,0,0,C:/Users/rrics/Documents/!!ResearchBMECOGSCI/gnet,0,0,0,prototype4.png,no,mono,no,18,no,black,no,no,768,1202,3.5.6,legacy,xpyriment,osweb,1.3.13,0,space,space,space,,209620,11749,209620,,2,legacy,728,1366,24,768,24,0,0,1366,1647527177709,1024,2,48000,-16,experiment,p7sarr1.png,0,even,Win32,130,123490,120481,130,130,587524,589039,582525,125001,582524,130,,,,,,visual_patterns,0,0,0,yes,1366
undefined,undefined,undefined,undefined,white,no,Mozilla,Netscape,"5.0 (Windows NT 10.0; Win64; x64) AppleWebKit/537.36 (KHTML, like Gecko) Chrome/99.0.4844.51 Safari/537.36",xpyriment,legacy,legacy,0,uniform,0,0,0,0,24,24,24,0,0,39,39,39,39,39,0,39,0,,,,,,0,,17-02-22,17-02-22,15:24:49,Thu Mar 17 2022 15:24:49 GMT+0100 (Central European Standard Time),The main experiment item,yes,0,0,C:/Users/rrics/Documents/!!ResearchBMECOGSCI/gnet,0,0,0,prototype4.png,no,mono,no,18,no,black,no,no,768,1202,3.5.6,legacy,xpyriment,osweb,1.3.13,0,space,space,space,,209620,11749,209620,,2,legacy,728,1366,24,768,24,0,0,1366,1647527177709,1024,2,48000,-16,experiment,p1sarrsha1.png,0,even,Win32,130,123490,120481,130,130,594057,595564,589059,125001,589058,130,,,,,,visual_patterns,0,0,0,yes,1366
undefined,undefined,undefined,undefined,white,no,Mozilla,Netscape,"5.0 (Windows NT 10.0; Win64; x64) AppleWebKit/537.36 (KHTML, like Gecko) Chrome/99.0.4844.51 Safari/537.36",xpyriment,legacy,legacy,0,uniform,0,0,0,0,24,24,24,0,0,40,40,40,40,40,0,40,0,,,,,,0,,17-02-22,17-02-22,15:24:49,Thu Mar 17 2022 15:24:49 GMT+0100 (Central European Standard Time),The main experiment item,yes,0,0,C:/Users/rrics/Documents/!!ResearchBMECOGSCI/gnet,0,0,0,prototype4.png,no,mono,no,18,no,black,no,no,768,1202,3.5.6,legacy,xpyriment,osweb,1.3.13,0,space,space,space,,209620,11749,209620,,2,legacy,728,1366,24,768,24,0,0,1366,1647527177709,1024,2,48000,-16,experiment,prototype5.png,0,even,Win32,130,123490,120481,130,130,600580,602093,595579,125001,595579,130,,,,,,visual_patterns,0,0,0,yes,1366
undefined,undefined,undefined,undefined,white,no,Mozilla,Netscape,"5.0 (Windows NT 10.0; Win64; x64) AppleWebKit/537.36 (KHTML, like Gecko) Chrome/99.0.4844.51 Safari/537.36",xpyriment,legacy,legacy,0,uniform,0,0,0,0,24,24,24,0,0,41,41,41,41,41,0,41,0,,,,,,0,,17-02-22,17-02-22,15:24:49,Thu Mar 17 2022 15:24:49 GMT+0100 (Central European Standard Time),The main experiment item,yes,0,0,C:/Users/rrics/Documents/!!ResearchBMECOGSCI/gnet,0,0,0,prototype4.png,no,mono,no,18,no,black,no,no,768,1202,3.5.6,legacy,xpyriment,osweb,1.3.13,0,space,space,space,,209620,11749,209620,,2,legacy,728,1366,24,768,24,0,0,1366,1647527177709,1024,2,48000,-16,experiment,p3sarrshacol2.png,0,even,Win32,130,123490,120481,130,130,607109,608618,602110,125001,602110,130,,,,,,visual_patterns,0,0,0,yes,1366
undefined,undefined,undefined,undefined,white,no,Mozilla,Netscape,"5.0 (Windows NT 10.0; Win64; x64) AppleWebKit/537.36 (KHTML, like Gecko) Chrome/99.0.4844.51 Safari/537.36",xpyriment,legacy,legacy,0,uniform,0,0,0,0,24,24,24,0,0,42,42,42,42,42,0,42,0,,,,,,0,,17-02-22,17-02-22,15:24:49,Thu Mar 17 2022 15:24:49 GMT+0100 (Central European Standard Time),The main experiment item,yes,0,0,C:/Users/rrics/Documents/!!ResearchBMECOGSCI/gnet,0,0,0,prototype4.png,no,mono,no,18,no,black,no,no,768,1202,3.5.6,legacy,xpyriment,osweb,1.3.13,0,space,space,space,,209620,11749,209620,,2,legacy,728,1366,24,768,24,0,0,1366,1647527177709,1024,2,48000,-16,experiment,p3sarrcol2.png,0,even,Win32,130,123490,120481,130,130,613632,615147,608636,125001,608636,130,,,,,,visual_patterns,0,0,0,yes,1366
undefined,undefined,undefined,undefined,white,no,Mozilla,Netscape,"5.0 (Windows NT 10.0; Win64; x64) AppleWebKit/537.36 (KHTML, like Gecko) Chrome/99.0.4844.51 Safari/537.36",xpyriment,legacy,legacy,0,uniform,0,0,0,0,24,24,24,0,0,43,43,43,43,43,0,43,0,,,,,,0,,17-02-22,17-02-22,15:24:49,Thu Mar 17 2022 15:24:49 GMT+0100 (Central European Standard Time),The main experiment item,yes,0,0,C:/Users/rrics/Documents/!!ResearchBMECOGSCI/gnet,0,0,0,prototype4.png,no,mono,no,18,no,black,no,no,768,1202,3.5.6,legacy,xpyriment,osweb,1.3.13,0,space,space,space,,209620,11749,209620,,2,legacy,728,1366,24,768,24,0,0,1366,1647527177709,1024,2,48000,-16,experiment,p3sarr2.png,0,even,Win32,130,123490,120481,130,130,620162,621667,615165,125001,615165,130,,,,,,visual_patterns,0,0,0,yes,1366
undefined,undefined,undefined,undefined,white,no,Mozilla,Netscape,"5.0 (Windows NT 10.0; Win64; x64) AppleWebKit/537.36 (KHTML, like Gecko) Chrome/99.0.4844.51 Safari/537.36",xpyriment,legacy,legacy,0,uniform,0,0,0,0,24,24,24,0,0,44,44,44,44,44,0,44,0,,,,,,0,,17-02-22,17-02-22,15:24:49,Thu Mar 17 2022 15:24:49 GMT+0100 (Central European Standard Time),The main experiment item,yes,0,0,C:/Users/rrics/Documents/!!ResearchBMECOGSCI/gnet,0,0,0,prototype4.png,no,mono,no,18,no,black,no,no,768,1202,3.5.6,legacy,xpyriment,osweb,1.3.13,0,space,space,space,,209620,11749,209620,,2,legacy,728,1366,24,768,24,0,0,1366,1647527177709,1024,2,48000,-16,experiment,p2sarrsha1.png,0,even,Win32,130,123490,120481,130,130,626681,628185,621685,125001,621685,130,,,,,,visual_patterns,0,0,0,yes,1366
undefined,undefined,undefined,undefined,white,no,Mozilla,Netscape,"5.0 (Windows NT 10.0; Win64; x64) AppleWebKit/537.36 (KHTML, like Gecko) Chrome/99.0.4844.51 Safari/537.36",xpyriment,legacy,legacy,0,uniform,0,0,0,0,24,24,24,0,0,45,45,45,45,45,0,45,0,,,,,,0,,17-02-22,17-02-22,15:24:49,Thu Mar 17 2022 15:24:49 GMT+0100 (Central European Standard Time),The main experiment item,yes,0,0,C:/Users/rrics/Documents/!!ResearchBMECOGSCI/gnet,0,0,0,prototype4.png,no,mono,no,18,no,black,no,no,768,1202,3.5.6,legacy,xpyriment,osweb,1.3.13,0,space,space,space,,209620,11749,209620,,2,legacy,728,1366,24,768,24,0,0,1366,1647527177709,1024,2,48000,-16,experiment,p4sarrsha1.png,0,even,Win32,130,123490,120481,130,130,633201,634703,628204,125001,628204,130,,,,,,visual_patterns,0,0,0,yes,1366
undefined,undefined,undefined,undefined,white,no,Mozilla,Netscape,"5.0 (Windows NT 10.0; Win64; x64) AppleWebKit/537.36 (KHTML, like Gecko) Chrome/99.0.4844.51 Safari/537.36",xpyriment,legacy,legacy,0,uniform,0,0,0,0,24,24,24,0,0,46,46,46,46,46,0,46,0,,,,,,0,,17-02-22,17-02-22,15:24:49,Thu Mar 17 2022 15:24:49 GMT+0100 (Central European Standard Time),The main experiment item,yes,0,0,C:/Users/rrics/Documents/!!ResearchBMECOGSCI/gnet,0,0,0,prototype4.png,no,mono,no,18,no,black,no,no,768,1202,3.5.6,legacy,xpyriment,osweb,1.3.13,0,space,space,space,,209620,11749,209620,,2,legacy,728,1366,24,768,24,0,0,1366,1647527177709,1024,2,48000,-16,experiment,p1sarrcol1.png,0,even,Win32,130,123490,120481,130,130,639721,641238,634725,125001,634725,130,,,,,,visual_patterns,0,0,0,yes,1366
undefined,undefined,undefined,undefined,white,no,Mozilla,Netscape,"5.0 (Windows NT 10.0; Win64; x64) AppleWebKit/537.36 (KHTML, like Gecko) Chrome/99.0.4844.51 Safari/537.36",xpyriment,legacy,legacy,0,uniform,0,0,0,0,24,24,24,0,0,47,47,47,47,47,0,47,0,,,,,,0,,17-02-22,17-02-22,15:24:49,Thu Mar 17 2022 15:24:49 GMT+0100 (Central European Standard Time),The main experiment item,yes,0,0,C:/Users/rrics/Documents/!!ResearchBMECOGSCI/gnet,0,0,0,prototype4.png,no,mono,no,18,no,black,no,no,768,1202,3.5.6,legacy,xpyriment,osweb,1.3.13,0,space,space,space,,209620,11749,209620,,2,legacy,728,1366,24,768,24,0,0,1366,1647527177709,1024,2,48000,-16,experiment,p1sarrsha2.png,0,even,Win32,130,123490,120481,130,130,646255,647761,641256,125001,641256,130,,,,,,visual_patterns,0,0,0,yes,1366
undefined,undefined,undefined,undefined,white,no,Mozilla,Netscape,"5.0 (Windows NT 10.0; Win64; x64) AppleWebKit/537.36 (KHTML, like Gecko) Chrome/99.0.4844.51 Safari/537.36",xpyriment,legacy,legacy,0,uniform,0,0,0,0,24,24,24,0,0,48,48,48,48,48,0,48,0,,,,,,0,,17-02-22,17-02-22,15:24:49,Thu Mar 17 2022 15:24:49 GMT+0100 (Central European Standard Time),The main experiment item,yes,0,0,C:/Users/rrics/Documents/!!ResearchBMECOGSCI/gnet,0,0,0,prototype4.png,no,mono,no,18,no,black,no,no,768,1202,3.5.6,legacy,xpyriment,osweb,1.3.13,0,space,space,space,,209620,11749,209620,,2,legacy,728,1366,24,768,24,0,0,1366,1647527177709,1024,2,48000,-16,experiment,p7sarr2.png,0,even,Win32,130,123490,120481,130,130,652778,654281,647780,125001,647779,130,,,,,,visual_patterns,0,0,0,yes,1366
undefined,undefined,undefined,undefined,white,no,Mozilla,Netscape,"5.0 (Windows NT 10.0; Win64; x64) AppleWebKit/537.36 (KHTML, like Gecko) Chrome/99.0.4844.51 Safari/537.36",xpyriment,legacy,legacy,0,uniform,0,0,0,0,24,24,24,0,0,49,49,49,49,49,0,49,0,,,,,,0,,17-02-22,17-02-22,15:24:49,Thu Mar 17 2022 15:24:49 GMT+0100 (Central European Standard Time),The main experiment item,yes,0,0,C:/Users/rrics/Documents/!!ResearchBMECOGSCI/gnet,0,0,0,prototype4.png,no,mono,no,18,no,black,no,no,768,1202,3.5.6,legacy,xpyriment,osweb,1.3.13,0,space,space,space,,209620,11749,209620,,2,legacy,728,1366,24,768,24,0,0,1366,1647527177709,1024,2,48000,-16,experiment,p4sarr1.png,0,even,Win32,130,123490,120481,130,130,659295,660799,654300,125001,654300,130,,,,,,visual_patterns,0,0,0,yes,1366
undefined,undefined,undefined,undefined,white,no,Mozilla,Netscape,"5.0 (Windows NT 10.0; Win64; x64) AppleWebKit/537.36 (KHTML, like Gecko) Chrome/99.0.4844.51 Safari/537.36",xpyriment,legacy,legacy,0,uniform,0,0,0,0,24,24,24,0,0,50,50,50,50,50,0,50,0,,,,,,0,,17-02-22,17-02-22,15:24:49,Thu Mar 17 2022 15:24:49 GMT+0100 (Central European Standard Time),The main experiment item,yes,0,0,C:/Users/rrics/Documents/!!ResearchBMECOGSCI/gnet,0,0,0,prototype4.png,no,mono,no,18,no,black,no,no,768,1202,3.5.6,legacy,xpyriment,osweb,1.3.13,0,space,space,space,,209620,11749,209620,,2,legacy,728,1366,24,768,24,0,0,1366,1647527177709,1024,2,48000,-16,experiment,p10sarr1.png,0,even,Win32,130,123490,120481,130,130,665817,667328,660818,125001,660818,130,,,,,,visual_patterns,0,0,0,yes,1366
undefined,undefined,undefined,undefined,white,no,Mozilla,Netscape,"5.0 (Windows NT 10.0; Win64; x64) AppleWebKit/537.36 (KHTML, like Gecko) Chrome/99.0.4844.51 Safari/537.36",xpyriment,legacy,legacy,0,uniform,0,0,0,0,24,24,24,0,0,51,51,51,51,51,0,51,0,,,,,,0,,17-02-22,17-02-22,15:24:49,Thu Mar 17 2022 15:24:49 GMT+0100 (Central European Standard Time),The main experiment item,yes,0,0,C:/Users/rrics/Documents/!!ResearchBMECOGSCI/gnet,0,0,0,prototype4.png,no,mono,no,18,no,black,no,no,768,1202,3.5.6,legacy,xpyriment,osweb,1.3.13,0,space,space,space,,209620,11749,209620,,2,legacy,728,1366,24,768,24,0,0,1366,1647527177709,1024,2,48000,-16,experiment,prototype3.png,0,even,Win32,130,123490,120481,130,130,672345,673847,667346,125001,667346,130,,,,,,visual_patterns,0,0,0,yes,1366
undefined,undefined,undefined,undefined,white,no,Mozilla,Netscape,"5.0 (Windows NT 10.0; Win64; x64) AppleWebKit/537.36 (KHTML, like Gecko) Chrome/99.0.4844.51 Safari/537.36",xpyriment,legacy,legacy,0,uniform,0,0,0,0,24,24,24,0,0,52,52,52,52,52,0,52,0,,,,,,0,,17-02-22,17-02-22,15:24:49,Thu Mar 17 2022 15:24:49 GMT+0100 (Central European Standard Time),The main experiment item,yes,0,0,C:/Users/rrics/Documents/!!ResearchBMECOGSCI/gnet,0,0,0,prototype4.png,no,mono,no,18,no,black,no,no,768,1202,3.5.6,legacy,xpyriment,osweb,1.3.13,0,space,space,space,,209620,11749,209620,,2,legacy,728,1366,24,768,24,0,0,1366,1647527177709,1024,2,48000,-16,experiment,p1sarr1.png,0,even,Win32,130,123490,120481,130,130,678856,680365,673856,125001,673856,130,,,,,,visual_patterns,0,0,0,yes,1366
undefined,undefined,undefined,undefined,white,no,Mozilla,Netscape,"5.0 (Windows NT 10.0; Win64; x64) AppleWebKit/537.36 (KHTML, like Gecko) Chrome/99.0.4844.51 Safari/537.36",xpyriment,legacy,legacy,0,uniform,0,0,0,0,24,24,24,0,0,53,53,53,53,53,0,53,0,,,,,,0,,17-02-22,17-02-22,15:24:49,Thu Mar 17 2022 15:24:49 GMT+0100 (Central European Standard Time),The main experiment item,yes,0,0,C:/Users/rrics/Documents/!!ResearchBMECOGSCI/gnet,0,0,0,prototype4.png,no,mono,no,18,no,black,no,no,768,1202,3.5.6,legacy,xpyriment,osweb,1.3.13,0,space,space,space,,209620,11749,209620,,2,legacy,728,1366,24,768,24,0,0,1366,1647527177709,1024,2,48000,-16,experiment,p1sarrcol2.png,0,even,Win32,130,123490,120481,130,130,685373,686884,680375,125001,680375,130,,,,,,visual_patterns,0,0,0,yes,1366
undefined,undefined,undefined,undefined,white,no,Mozilla,Netscape,"5.0 (Windows NT 10.0; Win64; x64) AppleWebKit/537.36 (KHTML, like Gecko) Chrome/99.0.4844.51 Safari/537.36",xpyriment,legacy,legacy,0,uniform,0,0,0,0,24,24,24,0,0,54,54,54,54,54,0,54,0,,,,,,0,,17-02-22,17-02-22,15:24:49,Thu Mar 17 2022 15:24:49 GMT+0100 (Central European Standard Time),The main experiment item,yes,0,0,C:/Users/rrics/Documents/!!ResearchBMECOGSCI/gnet,0,0,0,prototype4.png,no,mono,no,18,no,black,no,no,768,1202,3.5.6,legacy,xpyriment,osweb,1.3.13,0,space,space,space,,209620,11749,209620,,2,legacy,728,1366,24,768,24,0,0,1366,1647527177709,1024,2,48000,-16,experiment,p2sarrcol2.png,0,even,Win32,130,123490,120481,130,130,691896,693402,686894,125001,686894,130,,,,,,visual_patterns,0,0,0,yes,1366
undefined,undefined,undefined,undefined,white,no,Mozilla,Netscape,"5.0 (Windows NT 10.0; Win64; x64) AppleWebKit/537.36 (KHTML, like Gecko) Chrome/99.0.4844.51 Safari/537.36",xpyriment,legacy,legacy,0,uniform,0,0,0,0,24,24,24,0,0,55,55,55,55,55,0,55,0,,,,,,0,,17-02-22,17-02-22,15:24:49,Thu Mar 17 2022 15:24:49 GMT+0100 (Central European Standard Time),The main experiment item,yes,0,0,C:/Users/rrics/Documents/!!ResearchBMECOGSCI/gnet,0,0,0,prototype4.png,no,mono,no,18,no,black,no,no,768,1202,3.5.6,legacy,xpyriment,osweb,1.3.13,0,space,space,space,,209620,11749,209620,,2,legacy,728,1366,24,768,24,0,0,1366,1647527177709,1024,2,48000,-16,experiment,prototype4.png,0,even,Win32,130,123490,120481,130,130,698409,699914,693409,125001,693409,130,,,,,,visual_patterns,0,0,0,yes,1366
undefined,undefined,undefined,undefined,white,no,Mozilla,Netscape,"5.0 (Windows NT 10.0; Win64; x64) AppleWebKit/537.36 (KHTML, like Gecko) Chrome/99.0.4844.51 Safari/537.36",xpyriment,legacy,legacy,0,uniform,0,0,0,0,24,24,24,0,0,56,56,56,56,56,0,56,0,,,,,,0,,17-02-22,17-02-22,15:24:49,Thu Mar 17 2022 15:24:49 GMT+0100 (Central European Standard Time),The main experiment item,yes,0,0,C:/Users/rrics/Documents/!!ResearchBMECOGSCI/gnet,0,0,0,prototype4.png,no,mono,no,18,no,black,no,no,768,1202,3.5.6,legacy,xpyriment,osweb,1.3.13,0,space,space,space,,209620,11749,209620,,2,legacy,728,1366,24,768,24,0,0,1366,1647527177709,1024,2,48000,-16,experiment,p2sarrshacol1.png,0,even,Win32,130,123490,120481,130,130,704932,706444,699935,125001,699935,130,,,,,,visual_patterns,0,0,0,yes,1366
undefined,undefined,undefined,undefined,white,no,Mozilla,Netscape,"5.0 (Windows NT 10.0; Win64; x64) AppleWebKit/537.36 (KHTML, like Gecko) Chrome/99.0.4844.51 Safari/537.36",xpyriment,legacy,legacy,0,uniform,0,0,0,0,24,24,24,0,0,57,57,57,57,57,0,57,0,,,,,,0,,17-02-22,17-02-22,15:24:49,Thu Mar 17 2022 15:24:49 GMT+0100 (Central European Standard Time),The main experiment item,yes,0,0,C:/Users/rrics/Documents/!!ResearchBMECOGSCI/gnet,0,0,0,prototype4.png,no,mono,no,18,no,black,no,no,768,1202,3.5.6,legacy,xpyriment,osweb,1.3.13,0,space,space,space,,209620,11749,209620,,2,legacy,728,1366,24,768,24,0,0,1366,1647527177709,1024,2,48000,-16,experiment,prototype5.png,0,even,Win32,130,123490,120481,130,130,711452,712957,706452,125001,706452,130,,,,,,visual_patterns,0,0,0,yes,1366
undefined,undefined,undefined,undefined,white,no,Mozilla,Netscape,"5.0 (Windows NT 10.0; Win64; x64) AppleWebKit/537.36 (KHTML, like Gecko) Chrome/99.0.4844.51 Safari/537.36",xpyriment,legacy,legacy,0,uniform,0,0,0,0,24,24,24,0,0,58,58,58,58,58,0,58,0,,,,,,0,,17-02-22,17-02-22,15:24:49,Thu Mar 17 2022 15:24:49 GMT+0100 (Central European Standard Time),The main experiment item,yes,0,0,C:/Users/rrics/Documents/!!ResearchBMECOGSCI/gnet,0,0,0,prototype4.png,no,mono,no,18,no,black,no,no,768,1202,3.5.6,legacy,xpyriment,osweb,1.3.13,0,space,space,space,,209620,11749,209620,,2,legacy,728,1366,24,768,24,0,0,1366,1647527177709,1024,2,48000,-16,experiment,prototype2.png,0,even,Win32,130,123490,120481,130,130,717975,719492,712972,125001,712972,130,,,,,,visual_patterns,0,0,0,yes,1366
undefined,undefined,undefined,undefined,white,no,Mozilla,Netscape,"5.0 (Windows NT 10.0; Win64; x64) AppleWebKit/537.36 (KHTML, like Gecko) Chrome/99.0.4844.51 Safari/537.36",xpyriment,legacy,legacy,0,uniform,0,0,0,0,24,24,24,0,0,59,59,59,59,59,0,59,0,,,,,,0,,17-02-22,17-02-22,15:24:49,Thu Mar 17 2022 15:24:49 GMT+0100 (Central European Standard Time),The main experiment item,yes,0,0,C:/Users/rrics/Documents/!!ResearchBMECOGSCI/gnet,0,0,0,prototype4.png,no,mono,no,18,no,black,no,no,768,1202,3.5.6,legacy,xpyriment,osweb,1.3.13,0,space,space,space,,209620,11749,209620,,2,legacy,728,1366,24,768,24,0,0,1366,1647527177709,1024,2,48000,-16,experiment,prototype5.png,0,even,Win32,130,123490,120481,130,130,724509,726010,719507,125001,719507,130,,,,,,visual_patterns,0,0,0,yes,1366
undefined,undefined,undefined,undefined,white,no,Mozilla,Netscape,"5.0 (Windows NT 10.0; Win64; x64) AppleWebKit/537.36 (KHTML, like Gecko) Chrome/99.0.4844.51 Safari/537.36",xpyriment,legacy,legacy,0,uniform,0,0,0,0,24,24,24,0,0,60,60,60,60,60,0,60,0,,,,,,0,,17-02-22,17-02-22,15:24:49,Thu Mar 17 2022 15:24:49 GMT+0100 (Central European Standard Time),The main experiment item,yes,0,0,C:/Users/rrics/Documents/!!ResearchBMECOGSCI/gnet,0,0,0,prototype4.png,no,mono,no,18,no,black,no,no,768,1202,3.5.6,legacy,xpyriment,osweb,1.3.13,0,space,space,space,,209620,11749,209620,,2,legacy,728,1366,24,768,24,0,0,1366,1647527177709,1024,2,48000,-16,experiment,p1sarrshacol2.png,0,even,Win32,130,123490,120481,130,130,731026,732529,726028,125001,726028,130,,,,,,visual_patterns,0,0,0,yes,1366
undefined,undefined,undefined,undefined,white,no,Mozilla,Netscape,"5.0 (Windows NT 10.0; Win64; x64) AppleWebKit/537.36 (KHTML, like Gecko) Chrome/99.0.4844.51 Safari/537.36",xpyriment,legacy,legacy,0,uniform,0,0,0,0,24,24,24,0,0,61,61,61,61,61,0,61,0,,,,,,0,,17-02-22,17-02-22,15:24:49,Thu Mar 17 2022 15:24:49 GMT+0100 (Central European Standard Time),The main experiment item,yes,0,0,C:/Users/rrics/Documents/!!ResearchBMECOGSCI/gnet,0,0,0,prototype4.png,no,mono,no,18,no,black,no,no,768,1202,3.5.6,legacy,xpyriment,osweb,1.3.13,0,space,space,space,,209620,11749,209620,,2,legacy,728,1366,24,768,24,0,0,1366,1647527177709,1024,2,48000,-16,experiment,p2sarrcol1.png,0,even,Win32,130,123490,120481,130,130,737540,739047,732542,125001,732542,130,,,,,,visual_patterns,0,0,0,yes,1366
undefined,undefined,undefined,undefined,white,no,Mozilla,Netscape,"5.0 (Windows NT 10.0; Win64; x64) AppleWebKit/537.36 (KHTML, like Gecko) Chrome/99.0.4844.51 Safari/537.36",xpyriment,legacy,legacy,0,uniform,0,0,0,0,24,24,24,0,0,62,62,62,62,62,0,62,0,,,,,,0,,17-02-22,17-02-22,15:24:49,Thu Mar 17 2022 15:24:49 GMT+0100 (Central European Standard Time),The main experiment item,yes,0,0,C:/Users/rrics/Documents/!!ResearchBMECOGSCI/gnet,0,0,0,prototype4.png,no,mono,no,18,no,black,no,no,768,1202,3.5.6,legacy,xpyriment,osweb,1.3.13,0,space,space,space,,209620,11749,209620,,2,legacy,728,1366,24,768,24,0,0,1366,1647527177709,1024,2,48000,-16,experiment,p5sarr2.png,0,even,Win32,130,123490,120481,130,130,744058,745566,739059,125001,739059,130,,,,,,visual_patterns,0,0,0,yes,1366
undefined,undefined,undefined,undefined,white,no,Mozilla,Netscape,"5.0 (Windows NT 10.0; Win64; x64) AppleWebKit/537.36 (KHTML, like Gecko) Chrome/99.0.4844.51 Safari/537.36",xpyriment,legacy,legacy,0,uniform,0,0,0,0,24,24,24,0,0,63,63,63,63,63,0,63,0,,,,,,0,,17-02-22,17-02-22,15:24:49,Thu Mar 17 2022 15:24:49 GMT+0100 (Central European Standard Time),The main experiment item,yes,0,0,C:/Users/rrics/Documents/!!ResearchBMECOGSCI/gnet,0,0,0,prototype4.png,no,mono,no,18,no,black,no,no,768,1202,3.5.6,legacy,xpyriment,osweb,1.3.13,0,space,space,space,,209620,11749,209620,,2,legacy,728,1366,24,768,24,0,0,1366,1647527177709,1024,2,48000,-16,experiment,p10sarr2.png,0,even,Win32,130,123490,120481,130,130,750576,752085,745576,125001,745576,130,,,,,,visual_patterns,0,0,0,yes,1366
undefined,undefined,undefined,undefined,white,no,Mozilla,Netscape,"5.0 (Windows NT 10.0; Win64; x64) AppleWebKit/537.36 (KHTML, like Gecko) Chrome/99.0.4844.51 Safari/537.36",xpyriment,legacy,legacy,0,uniform,0,0,0,0,24,24,24,0,0,64,64,64,64,64,0,64,0,,,,,,0,,17-02-22,17-02-22,15:24:49,Thu Mar 17 2022 15:24:49 GMT+0100 (Central European Standard Time),The main experiment item,yes,0,0,C:/Users/rrics/Documents/!!ResearchBMECOGSCI/gnet,0,0,0,prototype4.png,no,mono,no,18,no,black,no,no,768,1202,3.5.6,legacy,xpyriment,osweb,1.3.13,0,space,space,space,,209620,11749,209620,,2,legacy,728,1366,24,768,24,0,0,1366,1647527177709,1024,2,48000,-16,experiment,prototype1.png,0,even,Win32,130,123490,120481,130,130,757094,758603,752093,125001,752093,130,,,,,,visual_patterns,0,0,0,yes,1366
undefined,undefined,undefined,undefined,white,no,Mozilla,Netscape,"5.0 (Windows NT 10.0; Win64; x64) AppleWebKit/537.36 (KHTML, like Gecko) Chrome/99.0.4844.51 Safari/537.36",xpyriment,legacy,legacy,0,uniform,0,0,0,0,24,24,24,0,0,65,65,65,65,65,0,65,0,,,,,,0,,17-02-22,17-02-22,15:24:49,Thu Mar 17 2022 15:24:49 GMT+0100 (Central European Standard Time),The main experiment item,yes,0,0,C:/Users/rrics/Documents/!!ResearchBMECOGSCI/gnet,0,0,0,prototype4.png,no,mono,no,18,no,black,no,no,768,1202,3.5.6,legacy,xpyriment,osweb,1.3.13,0,space,space,space,,209620,11749,209620,,2,legacy,728,1366,24,768,24,0,0,1366,1647527177709,1024,2,48000,-16,experiment,prototype4.png,0,even,Win32,130,123490,120481,130,130,763619,765121,758617,125001,758617,130,,,,,,visual_patterns,0,0,0,yes,1366
undefined,undefined,undefined,undefined,white,no,Mozilla,Netscape,"5.0 (Windows NT 10.0; Win64; x64) AppleWebKit/537.36 (KHTML, like Gecko) Chrome/99.0.4844.51 Safari/537.36",xpyriment,legacy,legacy,0,uniform,0,0,0,0,24,24,24,0,0,66,66,66,66,66,0,66,0,,,,,,0,,17-02-22,17-02-22,15:24:49,Thu Mar 17 2022 15:24:49 GMT+0100 (Central European Standard Time),The main experiment item,yes,0,0,C:/Users/rrics/Documents/!!ResearchBMECOGSCI/gnet,0,0,0,prototype4.png,no,mono,no,18,no,black,no,no,768,1202,3.5.6,legacy,xpyriment,osweb,1.3.13,0,space,space,space,,209620,11749,209620,,2,legacy,728,1366,24,768,24,0,0,1366,1647527177709,1024,2,48000,-16,experiment,p2sarrshacol2.png,0,even,Win32,130,123490,120481,130,130,770139,771640,765143,125001,765143,130,,,,,,visual_patterns,0,0,0,yes,1366
undefined,undefined,undefined,undefined,white,no,Mozilla,Netscape,"5.0 (Windows NT 10.0; Win64; x64) AppleWebKit/537.36 (KHTML, like Gecko) Chrome/99.0.4844.51 Safari/537.36",xpyriment,legacy,legacy,0,uniform,0,0,0,0,24,24,24,0,0,67,67,67,67,67,0,67,0,,,,,,0,,17-02-22,17-02-22,15:24:49,Thu Mar 17 2022 15:24:49 GMT+0100 (Central European Standard Time),The main experiment item,yes,0,0,C:/Users/rrics/Documents/!!ResearchBMECOGSCI/gnet,0,0,0,prototype4.png,no,mono,no,18,no,black,no,no,768,1202,3.5.6,legacy,xpyriment,osweb,1.3.13,0,space,space,space,,209620,11749,209620,,2,legacy,728,1366,24,768,24,0,0,1366,1647527177709,1024,2,48000,-16,experiment,p1sarr2.png,0,even,Win32,130,123490,120481,130,130,776657,778158,771661,125001,771660,130,,,,,,visual_patterns,0,0,0,yes,1366
undefined,undefined,undefined,undefined,white,no,Mozilla,Netscape,"5.0 (Windows NT 10.0; Win64; x64) AppleWebKit/537.36 (KHTML, like Gecko) Chrome/99.0.4844.51 Safari/537.36",xpyriment,legacy,legacy,0,uniform,0,0,0,0,24,24,24,0,0,68,68,68,68,68,0,68,0,,,,,,0,,17-02-22,17-02-22,15:24:49,Thu Mar 17 2022 15:24:49 GMT+0100 (Central European Standard Time),The main experiment item,yes,0,0,C:/Users/rrics/Documents/!!ResearchBMECOGSCI/gnet,0,0,0,prototype4.png,no,mono,no,18,no,black,no,no,768,1202,3.5.6,legacy,xpyriment,osweb,1.3.13,0,space,space,space,,209620,11749,209620,,2,legacy,728,1366,24,768,24,0,0,1366,1647527177709,1024,2,48000,-16,experiment,p6sarr2.png,0,even,Win32,130,123490,120481,130,130,783173,784677,778176,125001,778176,130,,,,,,visual_patterns,0,0,0,yes,1366
undefined,undefined,undefined,undefined,white,no,Mozilla,Netscape,"5.0 (Windows NT 10.0; Win64; x64) AppleWebKit/537.36 (KHTML, like Gecko) Chrome/99.0.4844.51 Safari/537.36",xpyriment,legacy,legacy,0,uniform,0,0,0,0,24,24,24,0,0,69,69,69,69,69,0,69,0,,,,,,0,,17-02-22,17-02-22,15:24:49,Thu Mar 17 2022 15:24:49 GMT+0100 (Central European Standard Time),The main experiment item,yes,0,0,C:/Users/rrics/Documents/!!ResearchBMECOGSCI/gnet,0,0,0,prototype4.png,no,mono,no,18,no,black,no,no,768,1202,3.5.6,legacy,xpyriment,osweb,1.3.13,0,space,space,space,,209620,11749,209620,,2,legacy,728,1366,24,768,24,0,0,1366,1647527177709,1024,2,48000,-16,experiment,prototype2.png,0,even,Win32,130,123490,120481,130,130,789691,791196,784691,125001,784691,130,,,,,,visual_patterns,0,0,0,yes,1366
undefined,undefined,undefined,undefined,white,no,Mozilla,Netscape,"5.0 (Windows NT 10.0; Win64; x64) AppleWebKit/537.36 (KHTML, like Gecko) Chrome/99.0.4844.51 Safari/537.36",xpyriment,legacy,legacy,0,uniform,0,0,0,0,24,24,24,0,0,70,70,70,70,70,0,70,0,,,,,,0,,17-02-22,17-02-22,15:24:49,Thu Mar 17 2022 15:24:49 GMT+0100 (Central European Standard Time),The main experiment item,yes,0,0,C:/Users/rrics/Documents/!!ResearchBMECOGSCI/gnet,0,0,0,prototype4.png,no,mono,no,18,no,black,no,no,768,1202,3.5.6,legacy,xpyriment,osweb,1.3.13,0,space,space,space,,209620,11749,209620,,2,legacy,728,1366,24,768,24,0,0,1366,1647527177709,1024,2,48000,-16,experiment,p1sarrshacol1.png,0,even,Win32,130,123490,120481,130,130,796208,797714,791208,125001,791207,130,,,,,,visual_patterns,0,0,0,yes,1366
undefined,undefined,undefined,undefined,white,no,Mozilla,Netscape,"5.0 (Windows NT 10.0; Win64; x64) AppleWebKit/537.36 (KHTML, like Gecko) Chrome/99.0.4844.51 Safari/537.36",xpyriment,legacy,legacy,0,uniform,0,0,0,0,24,24,24,0,0,71,71,71,71,71,0,71,0,,,,,,0,,17-02-22,17-02-22,15:24:49,Thu Mar 17 2022 15:24:49 GMT+0100 (Central European Standard Time),The main experiment item,yes,0,0,C:/Users/rrics/Documents/!!ResearchBMECOGSCI/gnet,0,0,0,prototype4.png,no,mono,no,18,no,black,no,no,768,1202,3.5.6,legacy,xpyriment,osweb,1.3.13,0,space,space,space,,209620,11749,209620,,2,legacy,728,1366,24,768,24,0,0,1366,1647527177709,1024,2,48000,-16,experiment,prototype1.png,0,even,Win32,130,123490,120481,130,130,802726,804232,797723,125001,797723,130,,,,,,visual_patterns,0,0,0,yes,1366
undefined,undefined,undefined,undefined,white,no,Mozilla,Netscape,"5.0 (Windows NT 10.0; Win64; x64) AppleWebKit/537.36 (KHTML, like Gecko) Chrome/99.0.4844.51 Safari/537.36",xpyriment,legacy,legacy,0,uniform,0,0,0,0,24,24,24,0,0,72,72,72,72,72,0,72,0,,,,,,0,,17-02-22,17-02-22,15:24:49,Thu Mar 17 2022 15:24:49 GMT+0100 (Central European Standard Time),The main experiment item,yes,0,0,C:/Users/rrics/Documents/!!ResearchBMECOGSCI/gnet,0,0,0,prototype4.png,no,mono,no,18,no,black,no,no,768,1202,3.5.6,legacy,xpyriment,osweb,1.3.13,0,space,space,space,,209620,11749,209620,,2,legacy,728,1366,24,768,24,0,0,1366,1647527177709,1024,2,48000,-16,experiment,prototype5.png,0,even,Win32,130,123490,120481,130,130,809241,810751,804241,125001,804240,130,,,,,,visual_patterns,0,0,0,yes,1366
undefined,undefined,undefined,undefined,white,no,Mozilla,Netscape,"5.0 (Windows NT 10.0; Win64; x64) AppleWebKit/537.36 (KHTML, like Gecko) Chrome/99.0.4844.51 Safari/537.36",xpyriment,legacy,legacy,0,uniform,0,0,0,0,24,24,24,0,0,73,73,73,73,73,0,73,0,,,,,,0,,17-02-22,17-02-22,15:24:49,Thu Mar 17 2022 15:24:49 GMT+0100 (Central European Standard Time),The main experiment item,yes,0,0,C:/Users/rrics/Documents/!!ResearchBMECOGSCI/gnet,0,0,0,prototype4.png,no,mono,no,18,no,black,no,no,768,1202,3.5.6,legacy,xpyriment,osweb,1.3.13,0,space,space,space,,209620,11749,209620,,2,legacy,728,1366,24,768,24,0,0,1366,1647527177709,1024,2,48000,-16,experiment,prototype3.png,0,even,Win32,130,123490,120481,130,130,815762,817269,810759,125001,810759,130,,,,,,visual_patterns,0,0,0,yes,1366
undefined,undefined,undefined,undefined,white,no,Mozilla,Netscape,"5.0 (Windows NT 10.0; Win64; x64) AppleWebKit/537.36 (KHTML, like Gecko) Chrome/99.0.4844.51 Safari/537.36",xpyriment,legacy,legacy,0,uniform,0,0,0,0,24,24,24,0,0,74,74,74,74,74,0,74,0,,,,,,0,,17-02-22,17-02-22,15:24:49,Thu Mar 17 2022 15:24:49 GMT+0100 (Central European Standard Time),The main experiment item,yes,0,0,C:/Users/rrics/Documents/!!ResearchBMECOGSCI/gnet,0,0,0,prototype4.png,no,mono,no,18,no,black,no,no,768,1202,3.5.6,legacy,xpyriment,osweb,1.3.13,0,space,space,space,,209620,11749,209620,,2,legacy,728,1366,24,768,24,0,0,1366,1647527177709,1024,2,48000,-16,experiment,prototype2.png,0,even,Win32,130,123490,120481,130,130,822280,823787,817277,125001,817277,130,,,,,,visual_patterns,0,0,0,yes,1366
undefined,undefined,undefined,undefined,white,no,Mozilla,Netscape,"5.0 (Windows NT 10.0; Win64; x64) AppleWebKit/537.36 (KHTML, like Gecko) Chrome/99.0.4844.51 Safari/537.36",xpyriment,legacy,legacy,0,uniform,0,0,0,0,24,24,24,0,0,74,74,74,74,74,0,74,0,0,0,0,0,0,0,0,17-02-22,17-02-22,15:24:49,Thu Mar 17 2022 15:24:49 GMT+0100 (Central European Standard Time),The main experiment item,yes,0,0,C:/Users/rrics/Documents/!!ResearchBMECOGSCI/gnet,0,0,0,prototype4.png,no,mono,no,18,no,black,no,no,768,1202,3.5.6,legacy,xpyriment,osweb,1.3.13,0,space,space,space,space,128275,11749,209620,128275,2,legacy,728,1366,24,768,24,0,0,1366,1647527177709,1024,2,48000,-16,experiment,p5sarrsha3.png,0,even,Win32,130,123490,120481,130,130,822280,823787,817277,125001,817277,130,955106,956617,952111,823794,952110,visual_patterns,0,0,0,yes,1366
undefined,undefined,undefined,undefined,white,no,Mozilla,Netscape,"5.0 (Windows NT 10.0; Win64; x64) AppleWebKit/537.36 (KHTML, like Gecko) Chrome/99.0.4844.51 Safari/537.36",xpyriment,legacy,legacy,0,uniform,0,0,0,0,24,24,24,0,0,74,74,74,74,74,0,74,0,1,1,1,1,1,0,1,17-02-22,17-02-22,15:24:49,Thu Mar 17 2022 15:24:49 GMT+0100 (Central European Standard Time),The main experiment item,yes,0,0,C:/Users/rrics/Documents/!!ResearchBMECOGSCI/gnet,0,0,0,prototype4.png,no,mono,no,18,no,black,no,no,768,1202,3.5.6,legacy,xpyriment,osweb,1.3.13,0,space,space,space,space,128275,11749,209620,128275,2,legacy,728,1366,24,768,24,0,0,1366,1647527177709,1024,2,48000,-16,experiment,p2sarrshacol1.png,0,even,Win32,130,123490,120481,130,130,822280,823787,817277,125001,817277,130,959635,961141,956636,823794,956635,visual_patterns,0,0,0,yes,1366
undefined,undefined,undefined,undefined,white,no,Mozilla,Netscape,"5.0 (Windows NT 10.0; Win64; x64) AppleWebKit/537.36 (KHTML, like Gecko) Chrome/99.0.4844.51 Safari/537.36",xpyriment,legacy,legacy,0,uniform,0,0,0,0,24,24,24,0,0,74,74,74,74,74,0,74,0,2,2,2,2,2,0,2,17-02-22,17-02-22,15:24:49,Thu Mar 17 2022 15:24:49 GMT+0100 (Central European Standard Time),The main experiment item,yes,0,0,C:/Users/rrics/Documents/!!ResearchBMECOGSCI/gnet,0,0,0,prototype4.png,no,mono,no,18,no,black,no,no,768,1202,3.5.6,legacy,xpyriment,osweb,1.3.13,0,space,space,space,space,128275,11749,209620,128275,2,legacy,728,1366,24,768,24,0,0,1366,1647527177709,1024,2,48000,-16,experiment,p4sarr4.png,0,even,Win32,130,123490,120481,130,130,822280,823787,817277,125001,817277,130,964161,965664,961163,823794,961163,visual_patterns,0,0,0,yes,1366
undefined,undefined,undefined,undefined,white,no,Mozilla,Netscape,"5.0 (Windows NT 10.0; Win64; x64) AppleWebKit/537.36 (KHTML, like Gecko) Chrome/99.0.4844.51 Safari/537.36",xpyriment,legacy,legacy,0,uniform,0,0,0,0,24,24,24,0,0,74,74,74,74,74,0,74,0,3,3,3,3,3,0,3,17-02-22,17-02-22,15:24:49,Thu Mar 17 2022 15:24:49 GMT+0100 (Central European Standard Time),The main experiment item,yes,0,0,C:/Users/rrics/Documents/!!ResearchBMECOGSCI/gnet,0,0,0,prototype4.png,no,mono,no,18,no,black,no,no,768,1202,3.5.6,legacy,xpyriment,osweb,1.3.13,0,space,space,space,space,128275,11749,209620,128275,2,legacy,728,1366,24,768,24,0,0,1366,1647527177709,1024,2,48000,-16,experiment,p5sarrsha2.png,0,even,Win32,130,123490,120481,130,130,822280,823787,817277,125001,817277,130,968679,970187,965677,823794,965677,visual_patterns,0,0,0,yes,1366
undefined,undefined,undefined,undefined,white,no,Mozilla,Netscape,"5.0 (Windows NT 10.0; Win64; x64) AppleWebKit/537.36 (KHTML, like Gecko) Chrome/99.0.4844.51 Safari/537.36",xpyriment,legacy,legacy,0,uniform,0,0,0,0,24,24,24,0,0,74,74,74,74,74,0,74,0,4,4,4,4,4,0,4,17-02-22,17-02-22,15:24:49,Thu Mar 17 2022 15:24:49 GMT+0100 (Central European Standard Time),The main experiment item,yes,0,0,C:/Users/rrics/Documents/!!ResearchBMECOGSCI/gnet,0,0,0,prototype4.png,no,mono,no,18,no,black,no,no,768,1202,3.5.6,legacy,xpyriment,osweb,1.3.13,0,space,space,space,space,128275,11749,209620,128275,2,legacy,728,1366,24,768,24,0,0,1366,1647527177709,1024,2,48000,-16,experiment,p7sarr2.png,0,even,Win32,130,123490,120481,130,130,822280,823787,817277,125001,817277,130,973208,974709,970205,823794,970205,visual_patterns,0,0,0,yes,1366
undefined,undefined,undefined,undefined,white,no,Mozilla,Netscape,"5.0 (Windows NT 10.0; Win64; x64) AppleWebKit/537.36 (KHTML, like Gecko) Chrome/99.0.4844.51 Safari/537.36",xpyriment,legacy,legacy,0,uniform,0,0,0,0,24,24,24,0,0,74,74,74,74,74,0,74,0,5,5,5,5,5,0,5,17-02-22,17-02-22,15:24:49,Thu Mar 17 2022 15:24:49 GMT+0100 (Central European Standard Time),The main experiment item,yes,0,0,C:/Users/rrics/Documents/!!ResearchBMECOGSCI/gnet,0,0,0,prototype4.png,no,mono,no,18,no,black,no,no,768,1202,3.5.6,legacy,xpyriment,osweb,1.3.13,0,space,space,space,space,128275,11749,209620,128275,2,legacy,728,1366,24,768,24,0,0,1366,1647527177709,1024,2,48000,-16,experiment,p1sarrsha4.png,0,even,Win32,130,123490,120481,130,130,822280,823787,817277,125001,817277,130,977730,979232,974733,823794,974733,visual_patterns,0,0,0,yes,1366
undefined,undefined,undefined,undefined,white,no,Mozilla,Netscape,"5.0 (Windows NT 10.0; Win64; x64) AppleWebKit/537.36 (KHTML, like Gecko) Chrome/99.0.4844.51 Safari/537.36",xpyriment,legacy,legacy,0,uniform,0,0,0,0,24,24,24,0,0,74,74,74,74,74,0,74,0,6,6,6,6,6,0,6,17-02-22,17-02-22,15:24:49,Thu Mar 17 2022 15:24:49 GMT+0100 (Central European Standard Time),The main experiment item,yes,0,0,C:/Users/rrics/Documents/!!ResearchBMECOGSCI/gnet,0,0,0,prototype4.png,no,mono,no,18,no,black,no,no,768,1202,3.5.6,legacy,xpyriment,osweb,1.3.13,0,space,space,space,space,128275,11749,209620,128275,2,legacy,728,1366,24,768,24,0,0,1366,1647527177709,1024,2,48000,-16,experiment,p3sarrcol2.png,0,even,Win32,130,123490,120481,130,130,822280,823787,817277,125001,817277,130,982250,983755,979251,823794,979251,visual_patterns,0,0,0,yes,1366
undefined,undefined,undefined,undefined,white,no,Mozilla,Netscape,"5.0 (Windows NT 10.0; Win64; x64) AppleWebKit/537.36 (KHTML, like Gecko) Chrome/99.0.4844.51 Safari/537.36",xpyriment,legacy,legacy,0,uniform,0,0,0,0,24,24,24,0,0,74,74,74,74,74,0,74,0,7,7,7,7,7,0,7,17-02-22,17-02-22,15:24:49,Thu Mar 17 2022 15:24:49 GMT+0100 (Central European Standard Time),The main experiment item,yes,0,0,C:/Users/rrics/Documents/!!ResearchBMECOGSCI/gnet,0,0,0,prototype4.png,no,mono,no,18,no,black,no,no,768,1202,3.5.6,legacy,xpyriment,osweb,1.3.13,0,space,space,space,space,128275,11749,209620,128275,2,legacy,728,1366,24,768,24,0,0,1366,1647527177709,1024,2,48000,-16,experiment,p3sarrcol3.png,0,even,Win32,130,123490,120481,130,130,822280,823787,817277,125001,817277,130,986775,988279,983776,823794,983776,visual_patterns,0,0,0,yes,1366
undefined,undefined,undefined,undefined,white,no,Mozilla,Netscape,"5.0 (Windows NT 10.0; Win64; x64) AppleWebKit/537.36 (KHTML, like Gecko) Chrome/99.0.4844.51 Safari/537.36",xpyriment,legacy,legacy,0,uniform,0,0,0,0,24,24,24,0,0,74,74,74,74,74,0,74,0,8,8,8,8,8,0,8,17-02-22,17-02-22,15:24:49,Thu Mar 17 2022 15:24:49 GMT+0100 (Central European Standard Time),The main experiment item,yes,0,0,C:/Users/rrics/Documents/!!ResearchBMECOGSCI/gnet,0,0,0,prototype4.png,no,mono,no,18,no,black,no,no,768,1202,3.5.6,legacy,xpyriment,osweb,1.3.13,0,space,space,space,space,128275,11749,209620,128275,2,legacy,728,1366,24,768,24,0,0,1366,1647527177709,1024,2,48000,-16,experiment,p1sarrsha1.png,0,even,Win32,130,123490,120481,130,130,822280,823787,817277,125001,817277,130,991299,992801,988298,823794,988298,visual_patterns,0,0,0,yes,1366
undefined,undefined,undefined,undefined,white,no,Mozilla,Netscape,"5.0 (Windows NT 10.0; Win64; x64) AppleWebKit/537.36 (KHTML, like Gecko) Chrome/99.0.4844.51 Safari/537.36",xpyriment,legacy,legacy,0,uniform,0,0,0,0,24,24,24,0,0,74,74,74,74,74,0,74,0,9,9,9,9,9,0,9,17-02-22,17-02-22,15:24:49,Thu Mar 17 2022 15:24:49 GMT+0100 (Central European Standard Time),The main experiment item,yes,0,0,C:/Users/rrics/Documents/!!ResearchBMECOGSCI/gnet,0,0,0,prototype4.png,no,mono,no,18,no,black,no,no,768,1202,3.5.6,legacy,xpyriment,osweb,1.3.13,0,space,space,space,space,128275,11749,209620,128275,2,legacy,728,1366,24,768,24,0,0,1366,1647527177709,1024,2,48000,-16,experiment,p4sarr1.png,0,even,Win32,130,123490,120481,130,130,822280,823787,817277,125001,817277,130,995826,997342,992825,823794,992824,visual_patterns,0,0,0,yes,1366
undefined,undefined,undefined,undefined,white,no,Mozilla,Netscape,"5.0 (Windows NT 10.0; Win64; x64) AppleWebKit/537.36 (KHTML, like Gecko) Chrome/99.0.4844.51 Safari/537.36",xpyriment,legacy,legacy,0,uniform,0,0,0,0,24,24,24,0,0,74,74,74,74,74,0,74,0,10,10,10,10,10,0,10,17-02-22,17-02-22,15:24:49,Thu Mar 17 2022 15:24:49 GMT+0100 (Central European Standard Time),The main experiment item,yes,0,0,C:/Users/rrics/Documents/!!ResearchBMECOGSCI/gnet,0,0,0,prototype4.png,no,mono,no,18,no,black,no,no,768,1202,3.5.6,legacy,xpyriment,osweb,1.3.13,0,space,space,space,space,128275,11749,209620,128275,2,legacy,728,1366,24,768,24,0,0,1366,1647527177709,1024,2,48000,-16,experiment,p9sarr2.png,0,even,Win32,130,123490,120481,130,130,822280,823787,817277,125001,817277,130,1000352,1001864,997352,823794,997352,visual_patterns,0,0,0,yes,1366
undefined,undefined,undefined,undefined,white,no,Mozilla,Netscape,"5.0 (Windows NT 10.0; Win64; x64) AppleWebKit/537.36 (KHTML, like Gecko) Chrome/99.0.4844.51 Safari/537.36",xpyriment,legacy,legacy,0,uniform,0,0,0,0,24,24,24,0,0,74,74,74,74,74,0,74,0,11,11,11,11,11,0,11,17-02-22,17-02-22,15:24:49,Thu Mar 17 2022 15:24:49 GMT+0100 (Central European Standard Time),The main experiment item,yes,0,0,C:/Users/rrics/Documents/!!ResearchBMECOGSCI/gnet,0,0,0,prototype4.png,no,mono,no,18,no,black,no,no,768,1202,3.5.6,legacy,xpyriment,osweb,1.3.13,0,space,space,space,space,128275,11749,209620,128275,2,legacy,728,1366,24,768,24,0,0,1366,1647527177709,1024,2,48000,-16,experiment,p1sarr2.png,0,even,Win32,130,123490,120481,130,130,822280,823787,817277,125001,817277,130,1004883,1006387,1001882,823794,1001882,visual_patterns,0,0,0,yes,1366
undefined,undefined,undefined,undefined,white,no,Mozilla,Netscape,"5.0 (Windows NT 10.0; Win64; x64) AppleWebKit/537.36 (KHTML, like Gecko) Chrome/99.0.4844.51 Safari/537.36",xpyriment,legacy,legacy,0,uniform,0,0,0,0,24,24,24,0,0,74,74,74,74,74,0,74,0,12,12,12,12,12,0,12,17-02-22,17-02-22,15:24:49,Thu Mar 17 2022 15:24:49 GMT+0100 (Central European Standard Time),The main experiment item,yes,0,0,C:/Users/rrics/Documents/!!ResearchBMECOGSCI/gnet,0,0,0,prototype4.png,no,mono,no,18,no,black,no,no,768,1202,3.5.6,legacy,xpyriment,osweb,1.3.13,0,space,space,space,space,128275,11749,209620,128275,2,legacy,728,1366,24,768,24,0,0,1366,1647527177709,1024,2,48000,-16,experiment,p3sarrcol4.png,0,even,Win32,130,123490,120481,130,130,822280,823787,817277,125001,817277,130,1009408,1010910,1006408,823794,1006408,visual_patterns,0,0,0,yes,1366
undefined,undefined,undefined,undefined,white,no,Mozilla,Netscape,"5.0 (Windows NT 10.0; Win64; x64) AppleWebKit/537.36 (KHTML, like Gecko) Chrome/99.0.4844.51 Safari/537.36",xpyriment,legacy,legacy,0,uniform,0,0,0,0,24,24,24,0,0,74,74,74,74,74,0,74,0,13,13,13,13,13,0,13,17-02-22,17-02-22,15:24:49,Thu Mar 17 2022 15:24:49 GMT+0100 (Central European Standard Time),The main experiment item,yes,0,0,C:/Users/rrics/Documents/!!ResearchBMECOGSCI/gnet,0,0,0,prototype4.png,no,mono,no,18,no,black,no,no,768,1202,3.5.6,legacy,xpyriment,osweb,1.3.13,0,space,space,space,space,128275,11749,209620,128275,2,legacy,728,1366,24,768,24,0,0,1366,1647527177709,1024,2,48000,-16,experiment,p2sarrshacol2.png,0,even,Win32,130,123490,120481,130,130,822280,823787,817277,125001,817277,130,1013930,1015433,1010928,823794,1010928,visual_patterns,0,0,0,yes,1366
undefined,undefined,undefined,undefined,white,no,Mozilla,Netscape,"5.0 (Windows NT 10.0; Win64; x64) AppleWebKit/537.36 (KHTML, like Gecko) Chrome/99.0.4844.51 Safari/537.36",xpyriment,legacy,legacy,0,uniform,0,0,0,0,24,24,24,0,0,74,74,74,74,74,0,74,0,14,14,14,14,14,0,14,17-02-22,17-02-22,15:24:49,Thu Mar 17 2022 15:24:49 GMT+0100 (Central European Standard Time),The main experiment item,yes,0,0,C:/Users/rrics/Documents/!!ResearchBMECOGSCI/gnet,0,0,0,prototype4.png,no,mono,no,18,no,black,no,no,768,1202,3.5.6,legacy,xpyriment,osweb,1.3.13,0,space,space,space,space,128275,11749,209620,128275,2,legacy,728,1366,24,768,24,0,0,1366,1647527177709,1024,2,48000,-16,experiment,p6sarr1.png,0,even,Win32,130,123490,120481,130,130,822280,823787,817277,125001,817277,130,1018454,1019956,1015452,823794,1015452,visual_patterns,0,0,0,yes,1366
undefined,undefined,undefined,undefined,white,no,Mozilla,Netscape,"5.0 (Windows NT 10.0; Win64; x64) AppleWebKit/537.36 (KHTML, like Gecko) Chrome/99.0.4844.51 Safari/537.36",xpyriment,legacy,legacy,0,uniform,0,0,0,0,24,24,24,0,0,74,74,74,74,74,0,74,0,15,15,15,15,15,0,15,17-02-22,17-02-22,15:24:49,Thu Mar 17 2022 15:24:49 GMT+0100 (Central European Standard Time),The main experiment item,yes,0,0,C:/Users/rrics/Documents/!!ResearchBMECOGSCI/gnet,0,0,0,prototype4.png,no,mono,no,18,no,black,no,no,768,1202,3.5.6,legacy,xpyriment,osweb,1.3.13,0,space,space,space,space,128275,11749,209620,128275,2,legacy,728,1366,24,768,24,0,0,1366,1647527177709,1024,2,48000,-16,experiment,p4sarrshacol3.png,0,even,Win32,130,123490,120481,130,130,822280,823787,817277,125001,817277,130,1022975,1024480,1019978,823794,1019978,visual_patterns,0,0,0,yes,1366
undefined,undefined,undefined,undefined,white,no,Mozilla,Netscape,"5.0 (Windows NT 10.0; Win64; x64) AppleWebKit/537.36 (KHTML, like Gecko) Chrome/99.0.4844.51 Safari/537.36",xpyriment,legacy,legacy,0,uniform,0,0,0,0,24,24,24,0,0,74,74,74,74,74,0,74,0,16,16,16,16,16,0,16,17-02-22,17-02-22,15:24:49,Thu Mar 17 2022 15:24:49 GMT+0100 (Central European Standard Time),The main experiment item,yes,0,0,C:/Users/rrics/Documents/!!ResearchBMECOGSCI/gnet,0,0,0,prototype4.png,no,mono,no,18,no,black,no,no,768,1202,3.5.6,legacy,xpyriment,osweb,1.3.13,0,space,space,space,space,128275,11749,209620,128275,2,legacy,728,1366,24,768,24,0,0,1366,1647527177709,1024,2,48000,-16,experiment,p4sarrshacol4.png,0,even,Win32,130,123490,120481,130,130,822280,823787,817277,125001,817277,130,1027501,1029003,1024503,823794,1024503,visual_patterns,0,0,0,yes,1366
undefined,undefined,undefined,undefined,white,no,Mozilla,Netscape,"5.0 (Windows NT 10.0; Win64; x64) AppleWebKit/537.36 (KHTML, like Gecko) Chrome/99.0.4844.51 Safari/537.36",xpyriment,legacy,legacy,0,uniform,0,0,0,0,24,24,24,0,0,74,74,74,74,74,0,74,0,17,17,17,17,17,0,17,17-02-22,17-02-22,15:24:49,Thu Mar 17 2022 15:24:49 GMT+0100 (Central European Standard Time),The main experiment item,yes,0,0,C:/Users/rrics/Documents/!!ResearchBMECOGSCI/gnet,0,0,0,prototype4.png,no,mono,no,18,no,black,no,no,768,1202,3.5.6,legacy,xpyriment,osweb,1.3.13,0,space,space,space,space,128275,11749,209620,128275,2,legacy,728,1366,24,768,24,0,0,1366,1647527177709,1024,2,48000,-16,experiment,p2sarrcol1.png,0,even,Win32,130,123490,120481,130,130,822280,823787,817277,125001,817277,130,1032013,1033525,1029013,823794,1029012,visual_patterns,0,0,0,yes,1366
undefined,undefined,undefined,undefined,white,no,Mozilla,Netscape,"5.0 (Windows NT 10.0; Win64; x64) AppleWebKit/537.36 (KHTML, like Gecko) Chrome/99.0.4844.51 Safari/537.36",xpyriment,legacy,legacy,0,uniform,0,0,0,0,24,24,24,0,0,74,74,74,74,74,0,74,0,18,18,18,18,18,0,18,17-02-22,17-02-22,15:24:49,Thu Mar 17 2022 15:24:49 GMT+0100 (Central European Standard Time),The main experiment item,yes,0,0,C:/Users/rrics/Documents/!!ResearchBMECOGSCI/gnet,0,0,0,prototype4.png,no,mono,no,18,no,black,no,no,768,1202,3.5.6,legacy,xpyriment,osweb,1.3.13,0,space,space,space,space,128275,11749,209620,128275,2,legacy,728,1366,24,768,24,0,0,1366,1647527177709,1024,2,48000,-16,experiment,p1sarr4.png,0,even,Win32,130,123490,120481,130,130,822280,823787,817277,125001,817277,130,1036539,1038048,1033538,823794,1033538,visual_patterns,0,0,0,yes,1366
undefined,undefined,undefined,undefined,white,no,Mozilla,Netscape,"5.0 (Windows NT 10.0; Win64; x64) AppleWebKit/537.36 (KHTML, like Gecko) Chrome/99.0.4844.51 Safari/537.36",xpyriment,legacy,legacy,0,uniform,0,0,0,0,24,24,24,0,0,74,74,74,74,74,0,74,0,19,19,19,19,19,0,19,17-02-22,17-02-22,15:24:49,Thu Mar 17 2022 15:24:49 GMT+0100 (Central European Standard Time),The main experiment item,yes,0,0,C:/Users/rrics/Documents/!!ResearchBMECOGSCI/gnet,0,0,0,prototype4.png,no,mono,no,18,no,black,no,no,768,1202,3.5.6,legacy,xpyriment,osweb,1.3.13,0,space,space,space,space,128275,11749,209620,128275,2,legacy,728,1366,24,768,24,0,0,1366,1647527177709,1024,2,48000,-16,experiment,p10sarr1.png,0,even,Win32,130,123490,120481,130,130,822280,823787,817277,125001,817277,130,1041069,1042571,1038067,823794,1038067,visual_patterns,0,0,0,yes,1366
undefined,undefined,undefined,undefined,white,no,Mozilla,Netscape,"5.0 (Windows NT 10.0; Win64; x64) AppleWebKit/537.36 (KHTML, like Gecko) Chrome/99.0.4844.51 Safari/537.36",xpyriment,legacy,legacy,0,uniform,0,0,0,0,24,24,24,0,0,74,74,74,74,74,0,74,0,20,20,20,20,20,0,20,17-02-22,17-02-22,15:24:49,Thu Mar 17 2022 15:24:49 GMT+0100 (Central European Standard Time),The main experiment item,yes,0,0,C:/Users/rrics/Documents/!!ResearchBMECOGSCI/gnet,0,0,0,prototype4.png,no,mono,no,18,no,black,no,no,768,1202,3.5.6,legacy,xpyriment,osweb,1.3.13,0,space,space,space,space,128275,11749,209620,128275,2,legacy,728,1366,24,768,24,0,0,1366,1647527177709,1024,2,48000,-16,experiment,p8sarr3.png,0,even,Win32,130,123490,120481,130,130,822280,823787,817277,125001,817277,130,1045595,1047111,1042598,823794,1042598,visual_patterns,0,0,0,yes,1366
undefined,undefined,undefined,undefined,white,no,Mozilla,Netscape,"5.0 (Windows NT 10.0; Win64; x64) AppleWebKit/537.36 (KHTML, like Gecko) Chrome/99.0.4844.51 Safari/537.36",xpyriment,legacy,legacy,0,uniform,0,0,0,0,24,24,24,0,0,74,74,74,74,74,0,74,0,21,21,21,21,21,0,21,17-02-22,17-02-22,15:24:49,Thu Mar 17 2022 15:24:49 GMT+0100 (Central European Standard Time),The main experiment item,yes,0,0,C:/Users/rrics/Documents/!!ResearchBMECOGSCI/gnet,0,0,0,prototype4.png,no,mono,no,18,no,black,no,no,768,1202,3.5.6,legacy,xpyriment,osweb,1.3.13,0,space,space,space,space,128275,11749,209620,128275,2,legacy,728,1366,24,768,24,0,0,1366,1647527177709,1024,2,48000,-16,experiment,p9sarr4.png,0,even,Win32,130,123490,120481,130,130,822280,823787,817277,125001,817277,130,1050129,1051633,1047132,823794,1047132,visual_patterns,0,0,0,yes,1366
undefined,undefined,undefined,undefined,white,no,Mozilla,Netscape,"5.0 (Windows NT 10.0; Win64; x64) AppleWebKit/537.36 (KHTML, like Gecko) Chrome/99.0.4844.51 Safari/537.36",xpyriment,legacy,legacy,0,uniform,0,0,0,0,24,24,24,0,0,74,74,74,74,74,0,74,0,22,22,22,22,22,0,22,17-02-22,17-02-22,15:24:49,Thu Mar 17 2022 15:24:49 GMT+0100 (Central European Standard Time),The main experiment item,yes,0,0,C:/Users/rrics/Documents/!!ResearchBMECOGSCI/gnet,0,0,0,prototype4.png,no,mono,no,18,no,black,no,no,768,1202,3.5.6,legacy,xpyriment,osweb,1.3.13,0,space,space,space,space,128275,11749,209620,128275,2,legacy,728,1366,24,768,24,0,0,1366,1647527177709,1024,2,48000,-16,experiment,p5sarrcol2.png,0,even,Win32,130,123490,120481,130,130,822280,823787,817277,125001,817277,130,1054655,1056157,1051653,823794,1051653,visual_patterns,0,0,0,yes,1366
undefined,undefined,undefined,undefined,white,no,Mozilla,Netscape,"5.0 (Windows NT 10.0; Win64; x64) AppleWebKit/537.36 (KHTML, like Gecko) Chrome/99.0.4844.51 Safari/537.36",xpyriment,legacy,legacy,0,uniform,0,0,0,0,24,24,24,0,0,74,74,74,74,74,0,74,0,23,23,23,23,23,0,23,17-02-22,17-02-22,15:24:49,Thu Mar 17 2022 15:24:49 GMT+0100 (Central European Standard Time),The main experiment item,yes,0,0,C:/Users/rrics/Documents/!!ResearchBMECOGSCI/gnet,0,0,0,prototype4.png,no,mono,no,18,no,black,no,no,768,1202,3.5.6,legacy,xpyriment,osweb,1.3.13,0,space,space,space,space,128275,11749,209620,128275,2,legacy,728,1366,24,768,24,0,0,1366,1647527177709,1024,2,48000,-16,experiment,p7sarr4.png,0,even,Win32,130,123490,120481,130,130,822280,823787,817277,125001,817277,130,1059175,1060680,1056178,823794,1056178,visual_patterns,0,0,0,yes,1366
undefined,undefined,undefined,undefined,white,no,Mozilla,Netscape,"5.0 (Windows NT 10.0; Win64; x64) AppleWebKit/537.36 (KHTML, like Gecko) Chrome/99.0.4844.51 Safari/537.36",xpyriment,legacy,legacy,0,uniform,0,0,0,0,24,24,24,0,0,74,74,74,74,74,0,74,0,24,24,24,24,24,0,24,17-02-22,17-02-22,15:24:49,Thu Mar 17 2022 15:24:49 GMT+0100 (Central European Standard Time),The main experiment item,yes,0,0,C:/Users/rrics/Documents/!!ResearchBMECOGSCI/gnet,0,0,0,prototype4.png,no,mono,no,18,no,black,no,no,768,1202,3.5.6,legacy,xpyriment,osweb,1.3.13,0,space,space,space,space,128275,11749,209620,128275,2,legacy,728,1366,24,768,24,0,0,1366,1647527177709,1024,2,48000,-16,experiment,p3sarrsha3.png,0,even,Win32,130,123490,120481,130,130,822280,823787,817277,125001,817277,130,1063692,1065203,1060692,823794,1060692,visual_patterns,0,0,0,yes,1366
undefined,undefined,undefined,undefined,white,no,Mozilla,Netscape,"5.0 (Windows NT 10.0; Win64; x64) AppleWebKit/537.36 (KHTML, like Gecko) Chrome/99.0.4844.51 Safari/537.36",xpyriment,legacy,legacy,0,uniform,0,0,0,0,24,24,24,0,0,74,74,74,74,74,0,74,0,25,25,25,25,25,0,25,17-02-22,17-02-22,15:24:49,Thu Mar 17 2022 15:24:49 GMT+0100 (Central European Standard Time),The main experiment item,yes,0,0,C:/Users/rrics/Documents/!!ResearchBMECOGSCI/gnet,0,0,0,prototype4.png,no,mono,no,18,no,black,no,no,768,1202,3.5.6,legacy,xpyriment,osweb,1.3.13,0,space,space,space,space,128275,11749,209620,128275,2,legacy,728,1366,24,768,24,0,0,1366,1647527177709,1024,2,48000,-16,experiment,p8sarr4.png,0,even,Win32,130,123490,120481,130,130,822280,823787,817277,125001,817277,130,1068216,1069726,1065216,823794,1065216,visual_patterns,0,0,0,yes,1366
undefined,undefined,undefined,undefined,white,no,Mozilla,Netscape,"5.0 (Windows NT 10.0; Win64; x64) AppleWebKit/537.36 (KHTML, like Gecko) Chrome/99.0.4844.51 Safari/537.36",xpyriment,legacy,legacy,0,uniform,0,0,0,0,24,24,24,0,0,74,74,74,74,74,0,74,0,26,26,26,26,26,0,26,17-02-22,17-02-22,15:24:49,Thu Mar 17 2022 15:24:49 GMT+0100 (Central European Standard Time),The main experiment item,yes,0,0,C:/Users/rrics/Documents/!!ResearchBMECOGSCI/gnet,0,0,0,prototype4.png,no,mono,no,18,no,black,no,no,768,1202,3.5.6,legacy,xpyriment,osweb,1.3.13,0,space,space,space,space,128275,11749,209620,128275,2,legacy,728,1366,24,768,24,0,0,1366,1647527177709,1024,2,48000,-16,experiment,p2sarrshacol4.png,0,even,Win32,130,123490,120481,130,130,822280,823787,817277,125001,817277,130,1072744,1074249,1069747,823794,1069747,visual_patterns,0,0,0,yes,1366
undefined,undefined,undefined,undefined,white,no,Mozilla,Netscape,"5.0 (Windows NT 10.0; Win64; x64) AppleWebKit/537.36 (KHTML, like Gecko) Chrome/99.0.4844.51 Safari/537.36",xpyriment,legacy,legacy,0,uniform,0,0,0,0,24,24,24,0,0,74,74,74,74,74,0,74,0,27,27,27,27,27,0,27,17-02-22,17-02-22,15:24:49,Thu Mar 17 2022 15:24:49 GMT+0100 (Central European Standard Time),The main experiment item,yes,0,0,C:/Users/rrics/Documents/!!ResearchBMECOGSCI/gnet,0,0,0,prototype4.png,no,mono,no,18,no,black,no,no,768,1202,3.5.6,legacy,xpyriment,osweb,1.3.13,0,space,space,space,space,128275,11749,209620,128275,2,legacy,728,1366,24,768,24,0,0,1366,1647527177709,1024,2,48000,-16,experiment,p4sarrshacol1.png,0,even,Win32,130,123490,120481,130,130,822280,823787,817277,125001,817277,130,1077272,1078789,1074268,823794,1074268,visual_patterns,0,0,0,yes,1366
undefined,undefined,undefined,undefined,white,no,Mozilla,Netscape,"5.0 (Windows NT 10.0; Win64; x64) AppleWebKit/537.36 (KHTML, like Gecko) Chrome/99.0.4844.51 Safari/537.36",xpyriment,legacy,legacy,0,uniform,0,0,0,0,24,24,24,0,0,74,74,74,74,74,0,74,0,28,28,28,28,28,0,28,17-02-22,17-02-22,15:24:49,Thu Mar 17 2022 15:24:49 GMT+0100 (Central European Standard Time),The main experiment item,yes,0,0,C:/Users/rrics/Documents/!!ResearchBMECOGSCI/gnet,0,0,0,prototype4.png,no,mono,no,18,no,black,no,no,768,1202,3.5.6,legacy,xpyriment,osweb,1.3.13,0,space,space,space,space,128275,11749,209620,128275,2,legacy,728,1366,24,768,24,0,0,1366,1647527177709,1024,2,48000,-16,experiment,p1sarrshacol3.png,0,even,Win32,130,123490,120481,130,130,822280,823787,817277,125001,817277,130,1081810,1083311,1078811,823794,1078810,visual_patterns,0,0,0,yes,1366
undefined,undefined,undefined,undefined,white,no,Mozilla,Netscape,"5.0 (Windows NT 10.0; Win64; x64) AppleWebKit/537.36 (KHTML, like Gecko) Chrome/99.0.4844.51 Safari/537.36",xpyriment,legacy,legacy,0,uniform,0,0,0,0,24,24,24,0,0,74,74,74,74,74,0,74,0,29,29,29,29,29,0,29,17-02-22,17-02-22,15:24:49,Thu Mar 17 2022 15:24:49 GMT+0100 (Central European Standard Time),The main experiment item,yes,0,0,C:/Users/rrics/Documents/!!ResearchBMECOGSCI/gnet,0,0,0,prototype4.png,no,mono,no,18,no,black,no,no,768,1202,3.5.6,legacy,xpyriment,osweb,1.3.13,0,space,space,space,space,128275,11749,209620,128275,2,legacy,728,1366,24,768,24,0,0,1366,1647527177709,1024,2,48000,-16,experiment,p2sarrsha1.png,0,even,Win32,130,123490,120481,130,130,822280,823787,817277,125001,817277,130,1086330,1087835,1083330,823794,1083330,visual_patterns,0,0,0,yes,1366
undefined,undefined,undefined,undefined,white,no,Mozilla,Netscape,"5.0 (Windows NT 10.0; Win64; x64) AppleWebKit/537.36 (KHTML, like Gecko) Chrome/99.0.4844.51 Safari/537.36",xpyriment,legacy,legacy,0,uniform,0,0,0,0,24,24,24,0,0,74,74,74,74,74,0,74,0,30,30,30,30,30,0,30,17-02-22,17-02-22,15:24:49,Thu Mar 17 2022 15:24:49 GMT+0100 (Central European Standard Time),The main experiment item,yes,0,0,C:/Users/rrics/Documents/!!ResearchBMECOGSCI/gnet,0,0,0,prototype4.png,no,mono,no,18,no,black,no,no,768,1202,3.5.6,legacy,xpyriment,osweb,1.3.13,0,space,space,space,space,128275,11749,209620,128275,2,legacy,728,1366,24,768,24,0,0,1366,1647527177709,1024,2,48000,-16,experiment,p3sarr2.png,0,even,Win32,130,123490,120481,130,130,822280,823787,817277,125001,817277,130,1090864,1092374,1087862,823794,1087862,visual_patterns,0,0,0,yes,1366
undefined,undefined,undefined,undefined,white,no,Mozilla,Netscape,"5.0 (Windows NT 10.0; Win64; x64) AppleWebKit/537.36 (KHTML, like Gecko) Chrome/99.0.4844.51 Safari/537.36",xpyriment,legacy,legacy,0,uniform,0,0,0,0,24,24,24,0,0,74,74,74,74,74,0,74,0,31,31,31,31,31,0,31,17-02-22,17-02-22,15:24:49,Thu Mar 17 2022 15:24:49 GMT+0100 (Central European Standard Time),The main experiment item,yes,0,0,C:/Users/rrics/Documents/!!ResearchBMECOGSCI/gnet,0,0,0,prototype4.png,no,mono,no,18,no,black,no,no,768,1202,3.5.6,legacy,xpyriment,osweb,1.3.13,0,space,space,space,space,128275,11749,209620,128275,2,legacy,728,1366,24,768,24,0,0,1366,1647527177709,1024,2,48000,-16,experiment,p3sarrshacol3.png,0,even,Win32,130,123490,120481,130,130,822280,823787,817277,125001,817277,130,1095392,1096897,1092396,823794,1092396,visual_patterns,0,0,0,yes,1366
undefined,undefined,undefined,undefined,white,no,Mozilla,Netscape,"5.0 (Windows NT 10.0; Win64; x64) AppleWebKit/537.36 (KHTML, like Gecko) Chrome/99.0.4844.51 Safari/537.36",xpyriment,legacy,legacy,0,uniform,0,0,0,0,24,24,24,0,0,74,74,74,74,74,0,74,0,32,32,32,32,32,0,32,17-02-22,17-02-22,15:24:49,Thu Mar 17 2022 15:24:49 GMT+0100 (Central European Standard Time),The main experiment item,yes,0,0,C:/Users/rrics/Documents/!!ResearchBMECOGSCI/gnet,0,0,0,prototype4.png,no,mono,no,18,no,black,no,no,768,1202,3.5.6,legacy,xpyriment,osweb,1.3.13,0,space,space,space,space,128275,11749,209620,128275,2,legacy,728,1366,24,768,24,0,0,1366,1647527177709,1024,2,48000,-16,experiment,p2sarrcol4.png,0,even,Win32,130,123490,120481,130,130,822280,823787,817277,125001,817277,130,1099916,1101420,1096919,823794,1096919,visual_patterns,0,0,0,yes,1366
undefined,undefined,undefined,undefined,white,no,Mozilla,Netscape,"5.0 (Windows NT 10.0; Win64; x64) AppleWebKit/537.36 (KHTML, like Gecko) Chrome/99.0.4844.51 Safari/537.36",xpyriment,legacy,legacy,0,uniform,0,0,0,0,24,24,24,0,0,74,74,74,74,74,0,74,0,33,33,33,33,33,0,33,17-02-22,17-02-22,15:24:49,Thu Mar 17 2022 15:24:49 GMT+0100 (Central European Standard Time),The main experiment item,yes,0,0,C:/Users/rrics/Documents/!!ResearchBMECOGSCI/gnet,0,0,0,prototype4.png,no,mono,no,18,no,black,no,no,768,1202,3.5.6,legacy,xpyriment,osweb,1.3.13,0,space,space,space,space,128275,11749,209620,128275,2,legacy,728,1366,24,768,24,0,0,1366,1647527177709,1024,2,48000,-16,experiment,p5sarrcol1.png,0,even,Win32,130,123490,120481,130,130,822280,823787,817277,125001,817277,130,1104445,1105960,1101443,823794,1101443,visual_patterns,0,0,0,yes,1366
undefined,undefined,undefined,undefined,white,no,Mozilla,Netscape,"5.0 (Windows NT 10.0; Win64; x64) AppleWebKit/537.36 (KHTML, like Gecko) Chrome/99.0.4844.51 Safari/537.36",xpyriment,legacy,legacy,0,uniform,0,0,0,0,24,24,24,0,0,74,74,74,74,74,0,74,0,34,34,34,34,34,0,34,17-02-22,17-02-22,15:24:49,Thu Mar 17 2022 15:24:49 GMT+0100 (Central European Standard Time),The main experiment item,yes,0,0,C:/Users/rrics/Documents/!!ResearchBMECOGSCI/gnet,0,0,0,prototype4.png,no,mono,no,18,no,black,no,no,768,1202,3.5.6,legacy,xpyriment,osweb,1.3.13,0,space,space,space,space,128275,11749,209620,128275,2,legacy,728,1366,24,768,24,0,0,1366,1647527177709,1024,2,48000,-16,experiment,p8sarr2.png,0,even,Win32,130,123490,120481,130,130,822280,823787,817277,125001,817277,130,1108981,1110484,1105979,823794,1105979,visual_patterns,0,0,0,yes,1366
undefined,undefined,undefined,undefined,white,no,Mozilla,Netscape,"5.0 (Windows NT 10.0; Win64; x64) AppleWebKit/537.36 (KHTML, like Gecko) Chrome/99.0.4844.51 Safari/537.36",xpyriment,legacy,legacy,0,uniform,0,0,0,0,24,24,24,0,0,74,74,74,74,74,0,74,0,35,35,35,35,35,0,35,17-02-22,17-02-22,15:24:49,Thu Mar 17 2022 15:24:49 GMT+0100 (Central European Standard Time),The main experiment item,yes,0,0,C:/Users/rrics/Documents/!!ResearchBMECOGSCI/gnet,0,0,0,prototype4.png,no,mono,no,18,no,black,no,no,768,1202,3.5.6,legacy,xpyriment,osweb,1.3.13,0,space,space,space,space,128275,11749,209620,128275,2,legacy,728,1366,24,768,24,0,0,1366,1647527177709,1024,2,48000,-16,experiment,p5sarr3.png,0,even,Win32,130,123490,120481,130,130,822280,823787,817277,125001,817277,130,1113505,1115022,1110505,823794,1110505,visual_patterns,0,0,0,yes,1366
undefined,undefined,undefined,undefined,white,no,Mozilla,Netscape,"5.0 (Windows NT 10.0; Win64; x64) AppleWebKit/537.36 (KHTML, like Gecko) Chrome/99.0.4844.51 Safari/537.36",xpyriment,legacy,legacy,0,uniform,0,0,0,0,24,24,24,0,0,74,74,74,74,74,0,74,0,36,36,36,36,36,0,36,17-02-22,17-02-22,15:24:49,Thu Mar 17 2022 15:24:49 GMT+0100 (Central European Standard Time),The main experiment item,yes,0,0,C:/Users/rrics/Documents/!!ResearchBMECOGSCI/gnet,0,0,0,prototype4.png,no,mono,no,18,no,black,no,no,768,1202,3.5.6,legacy,xpyriment,osweb,1.3.13,0,space,space,space,space,128275,11749,209620,128275,2,legacy,728,1366,24,768,24,0,0,1366,1647527177709,1024,2,48000,-16,experiment,p7sarr1.png,0,even,Win32,130,123490,120481,130,130,822280,823787,817277,125001,817277,130,1118043,1119545,1115043,823794,1115043,visual_patterns,0,0,0,yes,1366
undefined,undefined,undefined,undefined,white,no,Mozilla,Netscape,"5.0 (Windows NT 10.0; Win64; x64) AppleWebKit/537.36 (KHTML, like Gecko) Chrome/99.0.4844.51 Safari/537.36",xpyriment,legacy,legacy,0,uniform,0,0,0,0,24,24,24,0,0,74,74,74,74,74,0,74,0,37,37,37,37,37,0,37,17-02-22,17-02-22,15:24:49,Thu Mar 17 2022 15:24:49 GMT+0100 (Central European Standard Time),The main experiment item,yes,0,0,C:/Users/rrics/Documents/!!ResearchBMECOGSCI/gnet,0,0,0,prototype4.png,no,mono,no,18,no,black,no,no,768,1202,3.5.6,legacy,xpyriment,osweb,1.3.13,0,space,space,space,space,128275,11749,209620,128275,2,legacy,728,1366,24,768,24,0,0,1366,1647527177709,1024,2,48000,-16,experiment,p1sarrcol4.png,0,even,Win32,130,123490,120481,130,130,822280,823787,817277,125001,817277,130,1122564,1124069,1119564,823794,1119563,visual_patterns,0,0,0,yes,1366
undefined,undefined,undefined,undefined,white,no,Mozilla,Netscape,"5.0 (Windows NT 10.0; Win64; x64) AppleWebKit/537.36 (KHTML, like Gecko) Chrome/99.0.4844.51 Safari/537.36",xpyriment,legacy,legacy,0,uniform,0,0,0,0,24,24,24,0,0,74,74,74,74,74,0,74,0,38,38,38,38,38,0,38,17-02-22,17-02-22,15:24:49,Thu Mar 17 2022 15:24:49 GMT+0100 (Central European Standard Time),The main experiment item,yes,0,0,C:/Users/rrics/Documents/!!ResearchBMECOGSCI/gnet,0,0,0,prototype4.png,no,mono,no,18,no,black,no,no,768,1202,3.5.6,legacy,xpyriment,osweb,1.3.13,0,space,space,space,space,128275,11749,209620,128275,2,legacy,728,1366,24,768,24,0,0,1366,1647527177709,1024,2,48000,-16,experiment,p3sarrsha4.png,0,even,Win32,130,123490,120481,130,130,822280,823787,817277,125001,817277,130,1127090,1128591,1124091,823794,1124090,visual_patterns,0,0,0,yes,1366
undefined,undefined,undefined,undefined,white,no,Mozilla,Netscape,"5.0 (Windows NT 10.0; Win64; x64) AppleWebKit/537.36 (KHTML, like Gecko) Chrome/99.0.4844.51 Safari/537.36",xpyriment,legacy,legacy,0,uniform,0,0,0,0,24,24,24,0,0,74,74,74,74,74,0,74,0,39,39,39,39,39,0,39,17-02-22,17-02-22,15:24:49,Thu Mar 17 2022 15:24:49 GMT+0100 (Central European Standard Time),The main experiment item,yes,0,0,C:/Users/rrics/Documents/!!ResearchBMECOGSCI/gnet,0,0,0,prototype4.png,no,mono,no,18,no,black,no,no,768,1202,3.5.6,legacy,xpyriment,osweb,1.3.13,0,space,space,space,space,128275,11749,209620,128275,2,legacy,728,1366,24,768,24,0,0,1366,1647527177709,1024,2,48000,-16,experiment,p3sarr1.png,0,even,Win32,130,123490,120481,130,130,822280,823787,817277,125001,817277,130,1131616,1133118,1128612,823794,1128612,visual_patterns,0,0,0,yes,1366
undefined,undefined,undefined,undefined,white,no,Mozilla,Netscape,"5.0 (Windows NT 10.0; Win64; x64) AppleWebKit/537.36 (KHTML, like Gecko) Chrome/99.0.4844.51 Safari/537.36",xpyriment,legacy,legacy,0,uniform,0,0,0,0,24,24,24,0,0,74,74,74,74,74,0,74,0,40,40,40,40,40,0,40,17-02-22,17-02-22,15:24:49,Thu Mar 17 2022 15:24:49 GMT+0100 (Central European Standard Time),The main experiment item,yes,0,0,C:/Users/rrics/Documents/!!ResearchBMECOGSCI/gnet,0,0,0,prototype4.png,no,mono,no,18,no,black,no,no,768,1202,3.5.6,legacy,xpyriment,osweb,1.3.13,0,space,space,space,space,128275,11749,209620,128275,2,legacy,728,1366,24,768,24,0,0,1366,1647527177709,1024,2,48000,-16,experiment,p2sarrsha3.png,0,even,Win32,130,123490,120481,130,130,822280,823787,817277,125001,817277,130,1136135,1137638,1133138,823794,1133138,visual_patterns,0,0,0,yes,1366
undefined,undefined,undefined,undefined,white,no,Mozilla,Netscape,"5.0 (Windows NT 10.0; Win64; x64) AppleWebKit/537.36 (KHTML, like Gecko) Chrome/99.0.4844.51 Safari/537.36",xpyriment,legacy,legacy,0,uniform,0,0,0,0,24,24,24,0,0,74,74,74,74,74,0,74,0,41,41,41,41,41,0,41,17-02-22,17-02-22,15:24:49,Thu Mar 17 2022 15:24:49 GMT+0100 (Central European Standard Time),The main experiment item,yes,0,0,C:/Users/rrics/Documents/!!ResearchBMECOGSCI/gnet,0,0,0,prototype4.png,no,mono,no,18,no,black,no,no,768,1202,3.5.6,legacy,xpyriment,osweb,1.3.13,0,space,space,space,space,128275,11749,209620,128275,2,legacy,728,1366,24,768,24,0,0,1366,1647527177709,1024,2,48000,-16,experiment,p9sarr3.png,0,even,Win32,130,123490,120481,130,130,822280,823787,817277,125001,817277,130,1140657,1142161,1137659,823794,1137659,visual_patterns,0,0,0,yes,1366
undefined,undefined,undefined,undefined,white,no,Mozilla,Netscape,"5.0 (Windows NT 10.0; Win64; x64) AppleWebKit/537.36 (KHTML, like Gecko) Chrome/99.0.4844.51 Safari/537.36",xpyriment,legacy,legacy,0,uniform,0,0,0,0,24,24,24,0,0,74,74,74,74,74,0,74,0,42,42,42,42,42,0,42,17-02-22,17-02-22,15:24:49,Thu Mar 17 2022 15:24:49 GMT+0100 (Central European Standard Time),The main experiment item,yes,0,0,C:/Users/rrics/Documents/!!ResearchBMECOGSCI/gnet,0,0,0,prototype4.png,no,mono,no,18,no,black,no,no,768,1202,3.5.6,legacy,xpyriment,osweb,1.3.13,0,space,space,space,space,128275,11749,209620,128275,2,legacy,728,1366,24,768,24,0,0,1366,1647527177709,1024,2,48000,-16,experiment,p10sarr4.png,0,even,Win32,130,123490,120481,130,130,822280,823787,817277,125001,817277,130,1145183,1146684,1142182,823794,1142182,visual_patterns,0,0,0,yes,1366
undefined,undefined,undefined,undefined,white,no,Mozilla,Netscape,"5.0 (Windows NT 10.0; Win64; x64) AppleWebKit/537.36 (KHTML, like Gecko) Chrome/99.0.4844.51 Safari/537.36",xpyriment,legacy,legacy,0,uniform,0,0,0,0,24,24,24,0,0,74,74,74,74,74,0,74,0,43,43,43,43,43,0,43,17-02-22,17-02-22,15:24:49,Thu Mar 17 2022 15:24:49 GMT+0100 (Central European Standard Time),The main experiment item,yes,0,0,C:/Users/rrics/Documents/!!ResearchBMECOGSCI/gnet,0,0,0,prototype4.png,no,mono,no,18,no,black,no,no,768,1202,3.5.6,legacy,xpyriment,osweb,1.3.13,0,space,space,space,space,128275,11749,209620,128275,2,legacy,728,1366,24,768,24,0,0,1366,1647527177709,1024,2,48000,-16,experiment,p4sarrcol1.png,0,even,Win32,130,123490,120481,130,130,822280,823787,817277,125001,817277,130,1149705,1151207,1146704,823794,1146704,visual_patterns,0,0,0,yes,1366
undefined,undefined,undefined,undefined,white,no,Mozilla,Netscape,"5.0 (Windows NT 10.0; Win64; x64) AppleWebKit/537.36 (KHTML, like Gecko) Chrome/99.0.4844.51 Safari/537.36",xpyriment,legacy,legacy,0,uniform,0,0,0,0,24,24,24,0,0,74,74,74,74,74,0,74,0,44,44,44,44,44,0,44,17-02-22,17-02-22,15:24:49,Thu Mar 17 2022 15:24:49 GMT+0100 (Central European Standard Time),The main experiment item,yes,0,0,C:/Users/rrics/Documents/!!ResearchBMECOGSCI/gnet,0,0,0,prototype4.png,no,mono,no,18,no,black,no,no,768,1202,3.5.6,legacy,xpyriment,osweb,1.3.13,0,space,space,space,space,128275,11749,209620,128275,2,legacy,728,1366,24,768,24,0,0,1366,1647527177709,1024,2,48000,-16,experiment,p5sarrshacol4.png,0,even,Win32,130,123490,120481,130,130,822280,823787,817277,125001,817277,130,1154221,1155730,1151221,823794,1151221,visual_patterns,0,0,0,yes,1366
undefined,undefined,undefined,undefined,white,no,Mozilla,Netscape,"5.0 (Windows NT 10.0; Win64; x64) AppleWebKit/537.36 (KHTML, like Gecko) Chrome/99.0.4844.51 Safari/537.36",xpyriment,legacy,legacy,0,uniform,0,0,0,0,24,24,24,0,0,74,74,74,74,74,0,74,0,45,45,45,45,45,0,45,17-02-22,17-02-22,15:24:49,Thu Mar 17 2022 15:24:49 GMT+0100 (Central European Standard Time),The main experiment item,yes,0,0,C:/Users/rrics/Documents/!!ResearchBMECOGSCI/gnet,0,0,0,prototype4.png,no,mono,no,18,no,black,no,no,768,1202,3.5.6,legacy,xpyriment,osweb,1.3.13,0,space,space,space,space,128275,11749,209620,128275,2,legacy,728,1366,24,768,24,0,0,1366,1647527177709,1024,2,48000,-16,experiment,p3sarr3.png,0,even,Win32,130,123490,120481,130,130,822280,823787,817277,125001,817277,130,1158751,1160252,1155756,823794,1155756,visual_patterns,0,0,0,yes,1366
undefined,undefined,undefined,undefined,white,no,Mozilla,Netscape,"5.0 (Windows NT 10.0; Win64; x64) AppleWebKit/537.36 (KHTML, like Gecko) Chrome/99.0.4844.51 Safari/537.36",xpyriment,legacy,legacy,0,uniform,0,0,0,0,24,24,24,0,0,74,74,74,74,74,0,74,0,46,46,46,46,46,0,46,17-02-22,17-02-22,15:24:49,Thu Mar 17 2022 15:24:49 GMT+0100 (Central European Standard Time),The main experiment item,yes,0,0,C:/Users/rrics/Documents/!!ResearchBMECOGSCI/gnet,0,0,0,prototype4.png,no,mono,no,18,no,black,no,no,768,1202,3.5.6,legacy,xpyriment,osweb,1.3.13,0,space,space,space,space,128275,11749,209620,128275,2,legacy,728,1366,24,768,24,0,0,1366,1647527177709,1024,2,48000,-16,experiment,p2sarr3.png,0,even,Win32,130,123490,120481,130,130,822280,823787,817277,125001,817277,130,1163270,1164775,1160274,823794,1160274,visual_patterns,0,0,0,yes,1366
