acc,accuracy,average_response_time,avg_rt,background,bidi,browser_codename,browser_name,browser_version,canvas_backend,clock_backend,color_backend,compensation,coordinates,count_end,count_experiment,count_osweb,count_prestudy,count_prestudy_isi,count_prestudy_sequence,count_prestudy_stimpres,count_start,count_study,count_study_coroutines,count_study_isi,count_study_logger,count_study_response,count_study_sequence,count_study_start,count_study_stimpres,count_test,count_test_coroutines,count_test_isi,count_test_logger,count_test_response,count_test_sequence,count_test_start,count_test_stimpres,date_startdate,date_startdateUTC,date_starttime,datetime,description,disable_garbage_collection,experiment_debug,experiment_parameters,experiment_path,experiment_pilot,experiment_taskname,experiment_taskversion,fampict,font_bold,font_family,font_italic,font_size,font_underline,foreground,form_clicks,fullscreen,height,jatosStudyResultId,jatosVersion,keyboard_backend,mouse_backend,opensesame_codename,opensesame_version,repeat_cycle,response,response_start,response_study_start,response_test_start,response_time,response_time_start,response_time_study_start,response_time_test_start,round_decimals,sampler_backend,screen_availableHeight,screen_availableWidth,screen_colorDepth,screen_height,screen_pixelDepth,screen_screenX,screen_screenY,screen_width,sessionid,sound_buf_size,sound_channels,sound_freq,sound_sample_size,start,stim,subject_nr,subject_parity,system_os,time_prestudy,time_prestudy_isi,time_prestudy_stimpres,time_start,time_study,time_study_isi,time_study_logger,time_study_response,time_study_start,time_study_stimpres,time_test,time_test_isi,time_test_logger,time_test_response,time_test_start,time_test_stimpres,title,total_correct,total_response_time,total_responses,uniform_coordinates,width
undefined,undefined,undefined,undefined,white,no,Mozilla,Netscape,"5.0 (Windows NT 10.0; Win64; x64) AppleWebKit/537.36 (KHTML, like Gecko) Chrome/99.0.4844.74 Safari/537.36",xpyriment,legacy,legacy,0,uniform,0,0,0,0,24,24,24,0,0,0,0,0,0,0,0,0,0,,,,,,0,,18-02-22,18-02-22,10:00:15,Fri Mar 18 2022 10:00:15 GMT+0100 (közép-európai téli idő),The main experiment item,yes,0,0,C:/Users/rrics/Documents/!!ResearchBMECOGSCI/gnet,0,0,0,prototype2.png,no,mono,no,18,no,black,no,no,768,1203,3.5.6,legacy,xpyriment,osweb,1.3.13,0,right,right,right,,25077,21295,25077,,2,legacy,680,1280,24,720,24,0,0,1280,1647594077592,1024,2,48000,-16,experiment,p6sarr1.png,1,odd,Win32,177,133205,130194,176,177,164837,166340,159843,134723,159843,177,,,,,,visual_patterns,0,0,0,yes,1366
undefined,undefined,undefined,undefined,white,no,Mozilla,Netscape,"5.0 (Windows NT 10.0; Win64; x64) AppleWebKit/537.36 (KHTML, like Gecko) Chrome/99.0.4844.74 Safari/537.36",xpyriment,legacy,legacy,0,uniform,0,0,0,0,24,24,24,0,0,1,1,1,1,1,0,1,0,,,,,,0,,18-02-22,18-02-22,10:00:15,Fri Mar 18 2022 10:00:15 GMT+0100 (közép-európai téli idő),The main experiment item,yes,0,0,C:/Users/rrics/Documents/!!ResearchBMECOGSCI/gnet,0,0,0,prototype2.png,no,mono,no,18,no,black,no,no,768,1203,3.5.6,legacy,xpyriment,osweb,1.3.13,0,right,right,right,,25077,21295,25077,,2,legacy,680,1280,24,720,24,0,0,1280,1647594077592,1024,2,48000,-16,experiment,prototype3.png,1,odd,Win32,177,133205,130194,176,177,171367,172882,166365,134723,166365,177,,,,,,visual_patterns,0,0,0,yes,1366
undefined,undefined,undefined,undefined,white,no,Mozilla,Netscape,"5.0 (Windows NT 10.0; Win64; x64) AppleWebKit/537.36 (KHTML, like Gecko) Chrome/99.0.4844.74 Safari/537.36",xpyriment,legacy,legacy,0,uniform,0,0,0,0,24,24,24,0,0,2,2,2,2,2,0,2,0,,,,,,0,,18-02-22,18-02-22,10:00:15,Fri Mar 18 2022 10:00:15 GMT+0100 (közép-európai téli idő),The main experiment item,yes,0,0,C:/Users/rrics/Documents/!!ResearchBMECOGSCI/gnet,0,0,0,prototype2.png,no,mono,no,18,no,black,no,no,768,1203,3.5.6,legacy,xpyriment,osweb,1.3.13,0,right,right,right,,25077,21295,25077,,2,legacy,680,1280,24,720,24,0,0,1280,1647594077592,1024,2,48000,-16,experiment,p3sarr1.png,1,odd,Win32,177,133205,130194,176,177,177903,179409,172910,134723,172910,177,,,,,,visual_patterns,0,0,0,yes,1366
undefined,undefined,undefined,undefined,white,no,Mozilla,Netscape,"5.0 (Windows NT 10.0; Win64; x64) AppleWebKit/537.36 (KHTML, like Gecko) Chrome/99.0.4844.74 Safari/537.36",xpyriment,legacy,legacy,0,uniform,0,0,0,0,24,24,24,0,0,3,3,3,3,3,0,3,0,,,,,,0,,18-02-22,18-02-22,10:00:15,Fri Mar 18 2022 10:00:15 GMT+0100 (közép-európai téli idő),The main experiment item,yes,0,0,C:/Users/rrics/Documents/!!ResearchBMECOGSCI/gnet,0,0,0,prototype2.png,no,mono,no,18,no,black,no,no,768,1203,3.5.6,legacy,xpyriment,osweb,1.3.13,0,right,right,right,,25077,21295,25077,,2,legacy,680,1280,24,720,24,0,0,1280,1647594077592,1024,2,48000,-16,experiment,p9sarr2.png,1,odd,Win32,177,133205,130194,176,177,184433,185936,179433,134723,179433,177,,,,,,visual_patterns,0,0,0,yes,1366
undefined,undefined,undefined,undefined,white,no,Mozilla,Netscape,"5.0 (Windows NT 10.0; Win64; x64) AppleWebKit/537.36 (KHTML, like Gecko) Chrome/99.0.4844.74 Safari/537.36",xpyriment,legacy,legacy,0,uniform,0,0,0,0,24,24,24,0,0,4,4,4,4,4,0,4,0,,,,,,0,,18-02-22,18-02-22,10:00:15,Fri Mar 18 2022 10:00:15 GMT+0100 (közép-európai téli idő),The main experiment item,yes,0,0,C:/Users/rrics/Documents/!!ResearchBMECOGSCI/gnet,0,0,0,prototype2.png,no,mono,no,18,no,black,no,no,768,1203,3.5.6,legacy,xpyriment,osweb,1.3.13,0,right,right,right,,25077,21295,25077,,2,legacy,680,1280,24,720,24,0,0,1280,1647594077592,1024,2,48000,-16,experiment,p4sarr2.png,1,odd,Win32,177,133205,130194,176,177,190957,192463,185963,134723,185963,177,,,,,,visual_patterns,0,0,0,yes,1366
undefined,undefined,undefined,undefined,white,no,Mozilla,Netscape,"5.0 (Windows NT 10.0; Win64; x64) AppleWebKit/537.36 (KHTML, like Gecko) Chrome/99.0.4844.74 Safari/537.36",xpyriment,legacy,legacy,0,uniform,0,0,0,0,24,24,24,0,0,5,5,5,5,5,0,5,0,,,,,,0,,18-02-22,18-02-22,10:00:15,Fri Mar 18 2022 10:00:15 GMT+0100 (közép-európai téli idő),The main experiment item,yes,0,0,C:/Users/rrics/Documents/!!ResearchBMECOGSCI/gnet,0,0,0,prototype2.png,no,mono,no,18,no,black,no,no,768,1203,3.5.6,legacy,xpyriment,osweb,1.3.13,0,right,right,right,,25077,21295,25077,,2,legacy,680,1280,24,720,24,0,0,1280,1647594077592,1024,2,48000,-16,experiment,p4sarrshacol2.png,1,odd,Win32,177,133205,130194,176,177,197490,199006,192492,134723,192492,177,,,,,,visual_patterns,0,0,0,yes,1366
undefined,undefined,undefined,undefined,white,no,Mozilla,Netscape,"5.0 (Windows NT 10.0; Win64; x64) AppleWebKit/537.36 (KHTML, like Gecko) Chrome/99.0.4844.74 Safari/537.36",xpyriment,legacy,legacy,0,uniform,0,0,0,0,24,24,24,0,0,6,6,6,6,6,0,6,0,,,,,,0,,18-02-22,18-02-22,10:00:15,Fri Mar 18 2022 10:00:15 GMT+0100 (közép-európai téli idő),The main experiment item,yes,0,0,C:/Users/rrics/Documents/!!ResearchBMECOGSCI/gnet,0,0,0,prototype2.png,no,mono,no,18,no,black,no,no,768,1203,3.5.6,legacy,xpyriment,osweb,1.3.13,0,right,right,right,,25077,21295,25077,,2,legacy,680,1280,24,720,24,0,0,1280,1647594077592,1024,2,48000,-16,experiment,p5sarrsha2.png,1,odd,Win32,177,133205,130194,176,177,204036,205550,199037,134723,199037,177,,,,,,visual_patterns,0,0,0,yes,1366
undefined,undefined,undefined,undefined,white,no,Mozilla,Netscape,"5.0 (Windows NT 10.0; Win64; x64) AppleWebKit/537.36 (KHTML, like Gecko) Chrome/99.0.4844.74 Safari/537.36",xpyriment,legacy,legacy,0,uniform,0,0,0,0,24,24,24,0,0,7,7,7,7,7,0,7,0,,,,,,0,,18-02-22,18-02-22,10:00:15,Fri Mar 18 2022 10:00:15 GMT+0100 (közép-európai téli idő),The main experiment item,yes,0,0,C:/Users/rrics/Documents/!!ResearchBMECOGSCI/gnet,0,0,0,prototype2.png,no,mono,no,18,no,black,no,no,768,1203,3.5.6,legacy,xpyriment,osweb,1.3.13,0,right,right,right,,25077,21295,25077,,2,legacy,680,1280,24,720,24,0,0,1280,1647594077592,1024,2,48000,-16,experiment,p2sarr1.png,1,odd,Win32,177,133205,130194,176,177,210568,212077,205574,134723,205574,177,,,,,,visual_patterns,0,0,0,yes,1366
undefined,undefined,undefined,undefined,white,no,Mozilla,Netscape,"5.0 (Windows NT 10.0; Win64; x64) AppleWebKit/537.36 (KHTML, like Gecko) Chrome/99.0.4844.74 Safari/537.36",xpyriment,legacy,legacy,0,uniform,0,0,0,0,24,24,24,0,0,8,8,8,8,8,0,8,0,,,,,,0,,18-02-22,18-02-22,10:00:15,Fri Mar 18 2022 10:00:15 GMT+0100 (közép-európai téli idő),The main experiment item,yes,0,0,C:/Users/rrics/Documents/!!ResearchBMECOGSCI/gnet,0,0,0,prototype2.png,no,mono,no,18,no,black,no,no,768,1203,3.5.6,legacy,xpyriment,osweb,1.3.13,0,right,right,right,,25077,21295,25077,,2,legacy,680,1280,24,720,24,0,0,1280,1647594077592,1024,2,48000,-16,experiment,prototype4.png,1,odd,Win32,177,133205,130194,176,177,217100,218604,212099,134723,212099,177,,,,,,visual_patterns,0,0,0,yes,1366
undefined,undefined,undefined,undefined,white,no,Mozilla,Netscape,"5.0 (Windows NT 10.0; Win64; x64) AppleWebKit/537.36 (KHTML, like Gecko) Chrome/99.0.4844.74 Safari/537.36",xpyriment,legacy,legacy,0,uniform,0,0,0,0,24,24,24,0,0,9,9,9,9,9,0,9,0,,,,,,0,,18-02-22,18-02-22,10:00:15,Fri Mar 18 2022 10:00:15 GMT+0100 (közép-európai téli idő),The main experiment item,yes,0,0,C:/Users/rrics/Documents/!!ResearchBMECOGSCI/gnet,0,0,0,prototype2.png,no,mono,no,18,no,black,no,no,768,1203,3.5.6,legacy,xpyriment,osweb,1.3.13,0,right,right,right,,25077,21295,25077,,2,legacy,680,1280,24,720,24,0,0,1280,1647594077592,1024,2,48000,-16,experiment,p5sarrsha1.png,1,odd,Win32,177,133205,130194,176,177,223625,225130,218632,134723,218632,177,,,,,,visual_patterns,0,0,0,yes,1366
undefined,undefined,undefined,undefined,white,no,Mozilla,Netscape,"5.0 (Windows NT 10.0; Win64; x64) AppleWebKit/537.36 (KHTML, like Gecko) Chrome/99.0.4844.74 Safari/537.36",xpyriment,legacy,legacy,0,uniform,0,0,0,0,24,24,24,0,0,10,10,10,10,10,0,10,0,,,,,,0,,18-02-22,18-02-22,10:00:15,Fri Mar 18 2022 10:00:15 GMT+0100 (közép-európai téli idő),The main experiment item,yes,0,0,C:/Users/rrics/Documents/!!ResearchBMECOGSCI/gnet,0,0,0,prototype2.png,no,mono,no,18,no,black,no,no,768,1203,3.5.6,legacy,xpyriment,osweb,1.3.13,0,right,right,right,,25077,21295,25077,,2,legacy,680,1280,24,720,24,0,0,1280,1647594077592,1024,2,48000,-16,experiment,p5sarrcol1.png,1,odd,Win32,177,133205,130194,176,177,230193,231707,225196,134723,225196,177,,,,,,visual_patterns,0,0,0,yes,1366
undefined,undefined,undefined,undefined,white,no,Mozilla,Netscape,"5.0 (Windows NT 10.0; Win64; x64) AppleWebKit/537.36 (KHTML, like Gecko) Chrome/99.0.4844.74 Safari/537.36",xpyriment,legacy,legacy,0,uniform,0,0,0,0,24,24,24,0,0,11,11,11,11,11,0,11,0,,,,,,0,,18-02-22,18-02-22,10:00:15,Fri Mar 18 2022 10:00:15 GMT+0100 (közép-európai téli idő),The main experiment item,yes,0,0,C:/Users/rrics/Documents/!!ResearchBMECOGSCI/gnet,0,0,0,prototype2.png,no,mono,no,18,no,black,no,no,768,1203,3.5.6,legacy,xpyriment,osweb,1.3.13,0,right,right,right,,25077,21295,25077,,2,legacy,680,1280,24,720,24,0,0,1280,1647594077592,1024,2,48000,-16,experiment,p8sarr2.png,1,odd,Win32,177,133205,130194,176,177,236726,238234,231732,134723,231732,177,,,,,,visual_patterns,0,0,0,yes,1366
undefined,undefined,undefined,undefined,white,no,Mozilla,Netscape,"5.0 (Windows NT 10.0; Win64; x64) AppleWebKit/537.36 (KHTML, like Gecko) Chrome/99.0.4844.74 Safari/537.36",xpyriment,legacy,legacy,0,uniform,0,0,0,0,24,24,24,0,0,12,12,12,12,12,0,12,0,,,,,,0,,18-02-22,18-02-22,10:00:15,Fri Mar 18 2022 10:00:15 GMT+0100 (közép-európai téli idő),The main experiment item,yes,0,0,C:/Users/rrics/Documents/!!ResearchBMECOGSCI/gnet,0,0,0,prototype2.png,no,mono,no,18,no,black,no,no,768,1203,3.5.6,legacy,xpyriment,osweb,1.3.13,0,right,right,right,,25077,21295,25077,,2,legacy,680,1280,24,720,24,0,0,1280,1647594077592,1024,2,48000,-16,experiment,p5sarrshacol2.png,1,odd,Win32,177,133205,130194,176,177,243259,244761,238268,134723,238268,177,,,,,,visual_patterns,0,0,0,yes,1366
undefined,undefined,undefined,undefined,white,no,Mozilla,Netscape,"5.0 (Windows NT 10.0; Win64; x64) AppleWebKit/537.36 (KHTML, like Gecko) Chrome/99.0.4844.74 Safari/537.36",xpyriment,legacy,legacy,0,uniform,0,0,0,0,24,24,24,0,0,13,13,13,13,13,0,13,0,,,,,,0,,18-02-22,18-02-22,10:00:15,Fri Mar 18 2022 10:00:15 GMT+0100 (közép-európai téli idő),The main experiment item,yes,0,0,C:/Users/rrics/Documents/!!ResearchBMECOGSCI/gnet,0,0,0,prototype2.png,no,mono,no,18,no,black,no,no,768,1203,3.5.6,legacy,xpyriment,osweb,1.3.13,0,right,right,right,,25077,21295,25077,,2,legacy,680,1280,24,720,24,0,0,1280,1647594077592,1024,2,48000,-16,experiment,p8sarr1.png,1,odd,Win32,177,133205,130194,176,177,249783,251288,244793,134723,244793,177,,,,,,visual_patterns,0,0,0,yes,1366
undefined,undefined,undefined,undefined,white,no,Mozilla,Netscape,"5.0 (Windows NT 10.0; Win64; x64) AppleWebKit/537.36 (KHTML, like Gecko) Chrome/99.0.4844.74 Safari/537.36",xpyriment,legacy,legacy,0,uniform,0,0,0,0,24,24,24,0,0,14,14,14,14,14,0,14,0,,,,,,0,,18-02-22,18-02-22,10:00:15,Fri Mar 18 2022 10:00:15 GMT+0100 (közép-európai téli idő),The main experiment item,yes,0,0,C:/Users/rrics/Documents/!!ResearchBMECOGSCI/gnet,0,0,0,prototype2.png,no,mono,no,18,no,black,no,no,768,1203,3.5.6,legacy,xpyriment,osweb,1.3.13,0,right,right,right,,25077,21295,25077,,2,legacy,680,1280,24,720,24,0,0,1280,1647594077592,1024,2,48000,-16,experiment,p3sarrcol1.png,1,odd,Win32,177,133205,130194,176,177,256300,257815,251303,134723,251303,177,,,,,,visual_patterns,0,0,0,yes,1366
undefined,undefined,undefined,undefined,white,no,Mozilla,Netscape,"5.0 (Windows NT 10.0; Win64; x64) AppleWebKit/537.36 (KHTML, like Gecko) Chrome/99.0.4844.74 Safari/537.36",xpyriment,legacy,legacy,0,uniform,0,0,0,0,24,24,24,0,0,15,15,15,15,15,0,15,0,,,,,,0,,18-02-22,18-02-22,10:00:15,Fri Mar 18 2022 10:00:15 GMT+0100 (közép-európai téli idő),The main experiment item,yes,0,0,C:/Users/rrics/Documents/!!ResearchBMECOGSCI/gnet,0,0,0,prototype2.png,no,mono,no,18,no,black,no,no,768,1203,3.5.6,legacy,xpyriment,osweb,1.3.13,0,right,right,right,,25077,21295,25077,,2,legacy,680,1280,24,720,24,0,0,1280,1647594077592,1024,2,48000,-16,experiment,prototype1.png,1,odd,Win32,177,133205,130194,176,177,262877,264392,257878,134723,257877,177,,,,,,visual_patterns,0,0,0,yes,1366
undefined,undefined,undefined,undefined,white,no,Mozilla,Netscape,"5.0 (Windows NT 10.0; Win64; x64) AppleWebKit/537.36 (KHTML, like Gecko) Chrome/99.0.4844.74 Safari/537.36",xpyriment,legacy,legacy,0,uniform,0,0,0,0,24,24,24,0,0,16,16,16,16,16,0,16,0,,,,,,0,,18-02-22,18-02-22,10:00:15,Fri Mar 18 2022 10:00:15 GMT+0100 (közép-európai téli idő),The main experiment item,yes,0,0,C:/Users/rrics/Documents/!!ResearchBMECOGSCI/gnet,0,0,0,prototype2.png,no,mono,no,18,no,black,no,no,768,1203,3.5.6,legacy,xpyriment,osweb,1.3.13,0,right,right,right,,25077,21295,25077,,2,legacy,680,1280,24,720,24,0,0,1280,1647594077592,1024,2,48000,-16,experiment,p2sarr2.png,1,odd,Win32,177,133205,130194,176,177,269421,270936,264428,134723,264428,177,,,,,,visual_patterns,0,0,0,yes,1366
undefined,undefined,undefined,undefined,white,no,Mozilla,Netscape,"5.0 (Windows NT 10.0; Win64; x64) AppleWebKit/537.36 (KHTML, like Gecko) Chrome/99.0.4844.74 Safari/537.36",xpyriment,legacy,legacy,0,uniform,0,0,0,0,24,24,24,0,0,17,17,17,17,17,0,17,0,,,,,,0,,18-02-22,18-02-22,10:00:15,Fri Mar 18 2022 10:00:15 GMT+0100 (közép-európai téli idő),The main experiment item,yes,0,0,C:/Users/rrics/Documents/!!ResearchBMECOGSCI/gnet,0,0,0,prototype2.png,no,mono,no,18,no,black,no,no,768,1203,3.5.6,legacy,xpyriment,osweb,1.3.13,0,right,right,right,,25077,21295,25077,,2,legacy,680,1280,24,720,24,0,0,1280,1647594077592,1024,2,48000,-16,experiment,p3sarrsha2.png,1,odd,Win32,177,133205,130194,176,177,275956,277463,270963,134723,270963,177,,,,,,visual_patterns,0,0,0,yes,1366
undefined,undefined,undefined,undefined,white,no,Mozilla,Netscape,"5.0 (Windows NT 10.0; Win64; x64) AppleWebKit/537.36 (KHTML, like Gecko) Chrome/99.0.4844.74 Safari/537.36",xpyriment,legacy,legacy,0,uniform,0,0,0,0,24,24,24,0,0,18,18,18,18,18,0,18,0,,,,,,0,,18-02-22,18-02-22,10:00:15,Fri Mar 18 2022 10:00:15 GMT+0100 (közép-európai téli idő),The main experiment item,yes,0,0,C:/Users/rrics/Documents/!!ResearchBMECOGSCI/gnet,0,0,0,prototype2.png,no,mono,no,18,no,black,no,no,768,1203,3.5.6,legacy,xpyriment,osweb,1.3.13,0,right,right,right,,25077,21295,25077,,2,legacy,680,1280,24,720,24,0,0,1280,1647594077592,1024,2,48000,-16,experiment,prototype4.png,1,odd,Win32,177,133205,130194,176,177,282480,283989,277480,134723,277480,177,,,,,,visual_patterns,0,0,0,yes,1366
undefined,undefined,undefined,undefined,white,no,Mozilla,Netscape,"5.0 (Windows NT 10.0; Win64; x64) AppleWebKit/537.36 (KHTML, like Gecko) Chrome/99.0.4844.74 Safari/537.36",xpyriment,legacy,legacy,0,uniform,0,0,0,0,24,24,24,0,0,19,19,19,19,19,0,19,0,,,,,,0,,18-02-22,18-02-22,10:00:15,Fri Mar 18 2022 10:00:15 GMT+0100 (közép-európai téli idő),The main experiment item,yes,0,0,C:/Users/rrics/Documents/!!ResearchBMECOGSCI/gnet,0,0,0,prototype2.png,no,mono,no,18,no,black,no,no,768,1203,3.5.6,legacy,xpyriment,osweb,1.3.13,0,right,right,right,,25077,21295,25077,,2,legacy,680,1280,24,720,24,0,0,1280,1647594077592,1024,2,48000,-16,experiment,p3sarrsha1.png,1,odd,Win32,177,133205,130194,176,177,289009,290517,284015,134723,284015,177,,,,,,visual_patterns,0,0,0,yes,1366
undefined,undefined,undefined,undefined,white,no,Mozilla,Netscape,"5.0 (Windows NT 10.0; Win64; x64) AppleWebKit/537.36 (KHTML, like Gecko) Chrome/99.0.4844.74 Safari/537.36",xpyriment,legacy,legacy,0,uniform,0,0,0,0,24,24,24,0,0,20,20,20,20,20,0,20,0,,,,,,0,,18-02-22,18-02-22,10:00:15,Fri Mar 18 2022 10:00:15 GMT+0100 (közép-európai téli idő),The main experiment item,yes,0,0,C:/Users/rrics/Documents/!!ResearchBMECOGSCI/gnet,0,0,0,prototype2.png,no,mono,no,18,no,black,no,no,768,1203,3.5.6,legacy,xpyriment,osweb,1.3.13,0,right,right,right,,25077,21295,25077,,2,legacy,680,1280,24,720,24,0,0,1280,1647594077592,1024,2,48000,-16,experiment,prototype2.png,1,odd,Win32,177,133205,130194,176,177,295579,297093,290576,134723,290576,177,,,,,,visual_patterns,0,0,0,yes,1366
undefined,undefined,undefined,undefined,white,no,Mozilla,Netscape,"5.0 (Windows NT 10.0; Win64; x64) AppleWebKit/537.36 (KHTML, like Gecko) Chrome/99.0.4844.74 Safari/537.36",xpyriment,legacy,legacy,0,uniform,0,0,0,0,24,24,24,0,0,21,21,21,21,21,0,21,0,,,,,,0,,18-02-22,18-02-22,10:00:15,Fri Mar 18 2022 10:00:15 GMT+0100 (közép-európai téli idő),The main experiment item,yes,0,0,C:/Users/rrics/Documents/!!ResearchBMECOGSCI/gnet,0,0,0,prototype2.png,no,mono,no,18,no,black,no,no,768,1203,3.5.6,legacy,xpyriment,osweb,1.3.13,0,right,right,right,,25077,21295,25077,,2,legacy,680,1280,24,720,24,0,0,1280,1647594077592,1024,2,48000,-16,experiment,p4sarrcol2.png,1,odd,Win32,177,133205,130194,176,177,302115,303620,297124,134723,297123,177,,,,,,visual_patterns,0,0,0,yes,1366
undefined,undefined,undefined,undefined,white,no,Mozilla,Netscape,"5.0 (Windows NT 10.0; Win64; x64) AppleWebKit/537.36 (KHTML, like Gecko) Chrome/99.0.4844.74 Safari/537.36",xpyriment,legacy,legacy,0,uniform,0,0,0,0,24,24,24,0,0,22,22,22,22,22,0,22,0,,,,,,0,,18-02-22,18-02-22,10:00:15,Fri Mar 18 2022 10:00:15 GMT+0100 (közép-európai téli idő),The main experiment item,yes,0,0,C:/Users/rrics/Documents/!!ResearchBMECOGSCI/gnet,0,0,0,prototype2.png,no,mono,no,18,no,black,no,no,768,1203,3.5.6,legacy,xpyriment,osweb,1.3.13,0,right,right,right,,25077,21295,25077,,2,legacy,680,1280,24,720,24,0,0,1280,1647594077592,1024,2,48000,-16,experiment,p5sarrshacol1.png,1,odd,Win32,177,133205,130194,176,177,308645,310147,303646,134723,303645,177,,,,,,visual_patterns,0,0,0,yes,1366
undefined,undefined,undefined,undefined,white,no,Mozilla,Netscape,"5.0 (Windows NT 10.0; Win64; x64) AppleWebKit/537.36 (KHTML, like Gecko) Chrome/99.0.4844.74 Safari/537.36",xpyriment,legacy,legacy,0,uniform,0,0,0,0,24,24,24,0,0,23,23,23,23,23,0,23,0,,,,,,0,,18-02-22,18-02-22,10:00:15,Fri Mar 18 2022 10:00:15 GMT+0100 (közép-európai téli idő),The main experiment item,yes,0,0,C:/Users/rrics/Documents/!!ResearchBMECOGSCI/gnet,0,0,0,prototype2.png,no,mono,no,18,no,black,no,no,768,1203,3.5.6,legacy,xpyriment,osweb,1.3.13,0,right,right,right,,25077,21295,25077,,2,legacy,680,1280,24,720,24,0,0,1280,1647594077592,1024,2,48000,-16,experiment,prototype2.png,1,odd,Win32,177,133205,130194,176,177,315167,316674,310170,134723,310170,177,,,,,,visual_patterns,0,0,0,yes,1366
undefined,undefined,undefined,undefined,white,no,Mozilla,Netscape,"5.0 (Windows NT 10.0; Win64; x64) AppleWebKit/537.36 (KHTML, like Gecko) Chrome/99.0.4844.74 Safari/537.36",xpyriment,legacy,legacy,0,uniform,0,0,0,0,24,24,24,0,0,24,24,24,24,24,0,24,0,,,,,,0,,18-02-22,18-02-22,10:00:15,Fri Mar 18 2022 10:00:15 GMT+0100 (közép-európai téli idő),The main experiment item,yes,0,0,C:/Users/rrics/Documents/!!ResearchBMECOGSCI/gnet,0,0,0,prototype2.png,no,mono,no,18,no,black,no,no,768,1203,3.5.6,legacy,xpyriment,osweb,1.3.13,0,right,right,right,,25077,21295,25077,,2,legacy,680,1280,24,720,24,0,0,1280,1647594077592,1024,2,48000,-16,experiment,p4sarrsha2.png,1,odd,Win32,177,133205,130194,176,177,321697,323201,316697,134723,316697,177,,,,,,visual_patterns,0,0,0,yes,1366
undefined,undefined,undefined,undefined,white,no,Mozilla,Netscape,"5.0 (Windows NT 10.0; Win64; x64) AppleWebKit/537.36 (KHTML, like Gecko) Chrome/99.0.4844.74 Safari/537.36",xpyriment,legacy,legacy,0,uniform,0,0,0,0,24,24,24,0,0,25,25,25,25,25,0,25,0,,,,,,0,,18-02-22,18-02-22,10:00:15,Fri Mar 18 2022 10:00:15 GMT+0100 (közép-európai téli idő),The main experiment item,yes,0,0,C:/Users/rrics/Documents/!!ResearchBMECOGSCI/gnet,0,0,0,prototype2.png,no,mono,no,18,no,black,no,no,768,1203,3.5.6,legacy,xpyriment,osweb,1.3.13,0,right,right,right,,25077,21295,25077,,2,legacy,680,1280,24,720,24,0,0,1280,1647594077592,1024,2,48000,-16,experiment,p9sarr1.png,1,odd,Win32,177,133205,130194,176,177,328278,329795,323277,134723,323276,177,,,,,,visual_patterns,0,0,0,yes,1366
undefined,undefined,undefined,undefined,white,no,Mozilla,Netscape,"5.0 (Windows NT 10.0; Win64; x64) AppleWebKit/537.36 (KHTML, like Gecko) Chrome/99.0.4844.74 Safari/537.36",xpyriment,legacy,legacy,0,uniform,0,0,0,0,24,24,24,0,0,26,26,26,26,26,0,26,0,,,,,,0,,18-02-22,18-02-22,10:00:15,Fri Mar 18 2022 10:00:15 GMT+0100 (közép-európai téli idő),The main experiment item,yes,0,0,C:/Users/rrics/Documents/!!ResearchBMECOGSCI/gnet,0,0,0,prototype2.png,no,mono,no,18,no,black,no,no,768,1203,3.5.6,legacy,xpyriment,osweb,1.3.13,0,right,right,right,,25077,21295,25077,,2,legacy,680,1280,24,720,24,0,0,1280,1647594077592,1024,2,48000,-16,experiment,prototype1.png,1,odd,Win32,177,133205,130194,176,177,334812,336322,329813,134723,329813,177,,,,,,visual_patterns,0,0,0,yes,1366
undefined,undefined,undefined,undefined,white,no,Mozilla,Netscape,"5.0 (Windows NT 10.0; Win64; x64) AppleWebKit/537.36 (KHTML, like Gecko) Chrome/99.0.4844.74 Safari/537.36",xpyriment,legacy,legacy,0,uniform,0,0,0,0,24,24,24,0,0,27,27,27,27,27,0,27,0,,,,,,0,,18-02-22,18-02-22,10:00:15,Fri Mar 18 2022 10:00:15 GMT+0100 (közép-európai téli idő),The main experiment item,yes,0,0,C:/Users/rrics/Documents/!!ResearchBMECOGSCI/gnet,0,0,0,prototype2.png,no,mono,no,18,no,black,no,no,768,1203,3.5.6,legacy,xpyriment,osweb,1.3.13,0,right,right,right,,25077,21295,25077,,2,legacy,680,1280,24,720,24,0,0,1280,1647594077592,1024,2,48000,-16,experiment,p4sarrcol1.png,1,odd,Win32,177,133205,130194,176,177,341346,342849,336351,134723,336350,177,,,,,,visual_patterns,0,0,0,yes,1366
undefined,undefined,undefined,undefined,white,no,Mozilla,Netscape,"5.0 (Windows NT 10.0; Win64; x64) AppleWebKit/537.36 (KHTML, like Gecko) Chrome/99.0.4844.74 Safari/537.36",xpyriment,legacy,legacy,0,uniform,0,0,0,0,24,24,24,0,0,28,28,28,28,28,0,28,0,,,,,,0,,18-02-22,18-02-22,10:00:15,Fri Mar 18 2022 10:00:15 GMT+0100 (közép-európai téli idő),The main experiment item,yes,0,0,C:/Users/rrics/Documents/!!ResearchBMECOGSCI/gnet,0,0,0,prototype2.png,no,mono,no,18,no,black,no,no,768,1203,3.5.6,legacy,xpyriment,osweb,1.3.13,0,right,right,right,,25077,21295,25077,,2,legacy,680,1280,24,720,24,0,0,1280,1647594077592,1024,2,48000,-16,experiment,prototype4.png,1,odd,Win32,177,133205,130194,176,177,347868,349375,342866,134723,342866,177,,,,,,visual_patterns,0,0,0,yes,1366
undefined,undefined,undefined,undefined,white,no,Mozilla,Netscape,"5.0 (Windows NT 10.0; Win64; x64) AppleWebKit/537.36 (KHTML, like Gecko) Chrome/99.0.4844.74 Safari/537.36",xpyriment,legacy,legacy,0,uniform,0,0,0,0,24,24,24,0,0,29,29,29,29,29,0,29,0,,,,,,0,,18-02-22,18-02-22,10:00:15,Fri Mar 18 2022 10:00:15 GMT+0100 (közép-európai téli idő),The main experiment item,yes,0,0,C:/Users/rrics/Documents/!!ResearchBMECOGSCI/gnet,0,0,0,prototype2.png,no,mono,no,18,no,black,no,no,768,1203,3.5.6,legacy,xpyriment,osweb,1.3.13,0,right,right,right,,25077,21295,25077,,2,legacy,680,1280,24,720,24,0,0,1280,1647594077592,1024,2,48000,-16,experiment,prototype5.png,1,odd,Win32,177,133205,130194,176,177,354393,355902,349395,134723,349394,177,,,,,,visual_patterns,0,0,0,yes,1366
undefined,undefined,undefined,undefined,white,no,Mozilla,Netscape,"5.0 (Windows NT 10.0; Win64; x64) AppleWebKit/537.36 (KHTML, like Gecko) Chrome/99.0.4844.74 Safari/537.36",xpyriment,legacy,legacy,0,uniform,0,0,0,0,24,24,24,0,0,30,30,30,30,30,0,30,0,,,,,,0,,18-02-22,18-02-22,10:00:15,Fri Mar 18 2022 10:00:15 GMT+0100 (közép-európai téli idő),The main experiment item,yes,0,0,C:/Users/rrics/Documents/!!ResearchBMECOGSCI/gnet,0,0,0,prototype2.png,no,mono,no,18,no,black,no,no,768,1203,3.5.6,legacy,xpyriment,osweb,1.3.13,0,right,right,right,,25077,21295,25077,,2,legacy,680,1280,24,720,24,0,0,1280,1647594077592,1024,2,48000,-16,experiment,p5sarrcol2.png,1,odd,Win32,177,133205,130194,176,177,360925,362429,355929,134723,355929,177,,,,,,visual_patterns,0,0,0,yes,1366
undefined,undefined,undefined,undefined,white,no,Mozilla,Netscape,"5.0 (Windows NT 10.0; Win64; x64) AppleWebKit/537.36 (KHTML, like Gecko) Chrome/99.0.4844.74 Safari/537.36",xpyriment,legacy,legacy,0,uniform,0,0,0,0,24,24,24,0,0,31,31,31,31,31,0,31,0,,,,,,0,,18-02-22,18-02-22,10:00:15,Fri Mar 18 2022 10:00:15 GMT+0100 (közép-európai téli idő),The main experiment item,yes,0,0,C:/Users/rrics/Documents/!!ResearchBMECOGSCI/gnet,0,0,0,prototype2.png,no,mono,no,18,no,black,no,no,768,1203,3.5.6,legacy,xpyriment,osweb,1.3.13,0,right,right,right,,25077,21295,25077,,2,legacy,680,1280,24,720,24,0,0,1280,1647594077592,1024,2,48000,-16,experiment,p2sarrsha2.png,1,odd,Win32,177,133205,130194,176,177,367450,368956,362458,134723,362458,177,,,,,,visual_patterns,0,0,0,yes,1366
undefined,undefined,undefined,undefined,white,no,Mozilla,Netscape,"5.0 (Windows NT 10.0; Win64; x64) AppleWebKit/537.36 (KHTML, like Gecko) Chrome/99.0.4844.74 Safari/537.36",xpyriment,legacy,legacy,0,uniform,0,0,0,0,24,24,24,0,0,32,32,32,32,32,0,32,0,,,,,,0,,18-02-22,18-02-22,10:00:15,Fri Mar 18 2022 10:00:15 GMT+0100 (közép-európai téli idő),The main experiment item,yes,0,0,C:/Users/rrics/Documents/!!ResearchBMECOGSCI/gnet,0,0,0,prototype2.png,no,mono,no,18,no,black,no,no,768,1203,3.5.6,legacy,xpyriment,osweb,1.3.13,0,right,right,right,,25077,21295,25077,,2,legacy,680,1280,24,720,24,0,0,1280,1647594077592,1024,2,48000,-16,experiment,p5sarr1.png,1,odd,Win32,177,133205,130194,176,177,373980,375483,368978,134723,368978,177,,,,,,visual_patterns,0,0,0,yes,1366
undefined,undefined,undefined,undefined,white,no,Mozilla,Netscape,"5.0 (Windows NT 10.0; Win64; x64) AppleWebKit/537.36 (KHTML, like Gecko) Chrome/99.0.4844.74 Safari/537.36",xpyriment,legacy,legacy,0,uniform,0,0,0,0,24,24,24,0,0,33,33,33,33,33,0,33,0,,,,,,0,,18-02-22,18-02-22,10:00:15,Fri Mar 18 2022 10:00:15 GMT+0100 (közép-európai téli idő),The main experiment item,yes,0,0,C:/Users/rrics/Documents/!!ResearchBMECOGSCI/gnet,0,0,0,prototype2.png,no,mono,no,18,no,black,no,no,768,1203,3.5.6,legacy,xpyriment,osweb,1.3.13,0,right,right,right,,25077,21295,25077,,2,legacy,680,1280,24,720,24,0,0,1280,1647594077592,1024,2,48000,-16,experiment,p3sarrshacol1.png,1,odd,Win32,177,133205,130194,176,177,380504,382010,375510,134723,375510,177,,,,,,visual_patterns,0,0,0,yes,1366
undefined,undefined,undefined,undefined,white,no,Mozilla,Netscape,"5.0 (Windows NT 10.0; Win64; x64) AppleWebKit/537.36 (KHTML, like Gecko) Chrome/99.0.4844.74 Safari/537.36",xpyriment,legacy,legacy,0,uniform,0,0,0,0,24,24,24,0,0,34,34,34,34,34,0,34,0,,,,,,0,,18-02-22,18-02-22,10:00:15,Fri Mar 18 2022 10:00:15 GMT+0100 (közép-európai téli idő),The main experiment item,yes,0,0,C:/Users/rrics/Documents/!!ResearchBMECOGSCI/gnet,0,0,0,prototype2.png,no,mono,no,18,no,black,no,no,768,1203,3.5.6,legacy,xpyriment,osweb,1.3.13,0,right,right,right,,25077,21295,25077,,2,legacy,680,1280,24,720,24,0,0,1280,1647594077592,1024,2,48000,-16,experiment,prototype1.png,1,odd,Win32,177,133205,130194,176,177,387030,388537,382031,134723,382030,177,,,,,,visual_patterns,0,0,0,yes,1366
undefined,undefined,undefined,undefined,white,no,Mozilla,Netscape,"5.0 (Windows NT 10.0; Win64; x64) AppleWebKit/537.36 (KHTML, like Gecko) Chrome/99.0.4844.74 Safari/537.36",xpyriment,legacy,legacy,0,uniform,0,0,0,0,24,24,24,0,0,35,35,35,35,35,0,35,0,,,,,,0,,18-02-22,18-02-22,10:00:15,Fri Mar 18 2022 10:00:15 GMT+0100 (közép-európai téli idő),The main experiment item,yes,0,0,C:/Users/rrics/Documents/!!ResearchBMECOGSCI/gnet,0,0,0,prototype2.png,no,mono,no,18,no,black,no,no,768,1203,3.5.6,legacy,xpyriment,osweb,1.3.13,0,right,right,right,,25077,21295,25077,,2,legacy,680,1280,24,720,24,0,0,1280,1647594077592,1024,2,48000,-16,experiment,p4sarrshacol1.png,1,odd,Win32,177,133205,130194,176,177,393564,395081,388564,134723,388564,177,,,,,,visual_patterns,0,0,0,yes,1366
undefined,undefined,undefined,undefined,white,no,Mozilla,Netscape,"5.0 (Windows NT 10.0; Win64; x64) AppleWebKit/537.36 (KHTML, like Gecko) Chrome/99.0.4844.74 Safari/537.36",xpyriment,legacy,legacy,0,uniform,0,0,0,0,24,24,24,0,0,36,36,36,36,36,0,36,0,,,,,,0,,18-02-22,18-02-22,10:00:15,Fri Mar 18 2022 10:00:15 GMT+0100 (közép-európai téli idő),The main experiment item,yes,0,0,C:/Users/rrics/Documents/!!ResearchBMECOGSCI/gnet,0,0,0,prototype2.png,no,mono,no,18,no,black,no,no,768,1203,3.5.6,legacy,xpyriment,osweb,1.3.13,0,right,right,right,,25077,21295,25077,,2,legacy,680,1280,24,720,24,0,0,1280,1647594077592,1024,2,48000,-16,experiment,prototype3.png,1,odd,Win32,177,133205,130194,176,177,400107,401624,395110,134723,395110,177,,,,,,visual_patterns,0,0,0,yes,1366
undefined,undefined,undefined,undefined,white,no,Mozilla,Netscape,"5.0 (Windows NT 10.0; Win64; x64) AppleWebKit/537.36 (KHTML, like Gecko) Chrome/99.0.4844.74 Safari/537.36",xpyriment,legacy,legacy,0,uniform,0,0,0,0,24,24,24,0,0,37,37,37,37,37,0,37,0,,,,,,0,,18-02-22,18-02-22,10:00:15,Fri Mar 18 2022 10:00:15 GMT+0100 (közép-európai téli idő),The main experiment item,yes,0,0,C:/Users/rrics/Documents/!!ResearchBMECOGSCI/gnet,0,0,0,prototype2.png,no,mono,no,18,no,black,no,no,768,1203,3.5.6,legacy,xpyriment,osweb,1.3.13,0,right,right,right,,25077,21295,25077,,2,legacy,680,1280,24,720,24,0,0,1280,1647594077592,1024,2,48000,-16,experiment,prototype3.png,1,odd,Win32,177,133205,130194,176,177,406652,408168,401649,134723,401648,177,,,,,,visual_patterns,0,0,0,yes,1366
undefined,undefined,undefined,undefined,white,no,Mozilla,Netscape,"5.0 (Windows NT 10.0; Win64; x64) AppleWebKit/537.36 (KHTML, like Gecko) Chrome/99.0.4844.74 Safari/537.36",xpyriment,legacy,legacy,0,uniform,0,0,0,0,24,24,24,0,0,38,38,38,38,38,0,38,0,,,,,,0,,18-02-22,18-02-22,10:00:15,Fri Mar 18 2022 10:00:15 GMT+0100 (közép-európai téli idő),The main experiment item,yes,0,0,C:/Users/rrics/Documents/!!ResearchBMECOGSCI/gnet,0,0,0,prototype2.png,no,mono,no,18,no,black,no,no,768,1203,3.5.6,legacy,xpyriment,osweb,1.3.13,0,right,right,right,,25077,21295,25077,,2,legacy,680,1280,24,720,24,0,0,1280,1647594077592,1024,2,48000,-16,experiment,p7sarr1.png,1,odd,Win32,177,133205,130194,176,177,413184,414695,408192,134723,408191,177,,,,,,visual_patterns,0,0,0,yes,1366
undefined,undefined,undefined,undefined,white,no,Mozilla,Netscape,"5.0 (Windows NT 10.0; Win64; x64) AppleWebKit/537.36 (KHTML, like Gecko) Chrome/99.0.4844.74 Safari/537.36",xpyriment,legacy,legacy,0,uniform,0,0,0,0,24,24,24,0,0,39,39,39,39,39,0,39,0,,,,,,0,,18-02-22,18-02-22,10:00:15,Fri Mar 18 2022 10:00:15 GMT+0100 (közép-európai téli idő),The main experiment item,yes,0,0,C:/Users/rrics/Documents/!!ResearchBMECOGSCI/gnet,0,0,0,prototype2.png,no,mono,no,18,no,black,no,no,768,1203,3.5.6,legacy,xpyriment,osweb,1.3.13,0,right,right,right,,25077,21295,25077,,2,legacy,680,1280,24,720,24,0,0,1280,1647594077592,1024,2,48000,-16,experiment,p1sarrsha1.png,1,odd,Win32,177,133205,130194,176,177,419720,421222,414722,134723,414722,177,,,,,,visual_patterns,0,0,0,yes,1366
undefined,undefined,undefined,undefined,white,no,Mozilla,Netscape,"5.0 (Windows NT 10.0; Win64; x64) AppleWebKit/537.36 (KHTML, like Gecko) Chrome/99.0.4844.74 Safari/537.36",xpyriment,legacy,legacy,0,uniform,0,0,0,0,24,24,24,0,0,40,40,40,40,40,0,40,0,,,,,,0,,18-02-22,18-02-22,10:00:15,Fri Mar 18 2022 10:00:15 GMT+0100 (közép-európai téli idő),The main experiment item,yes,0,0,C:/Users/rrics/Documents/!!ResearchBMECOGSCI/gnet,0,0,0,prototype2.png,no,mono,no,18,no,black,no,no,768,1203,3.5.6,legacy,xpyriment,osweb,1.3.13,0,right,right,right,,25077,21295,25077,,2,legacy,680,1280,24,720,24,0,0,1280,1647594077592,1024,2,48000,-16,experiment,prototype5.png,1,odd,Win32,177,133205,130194,176,177,426260,427765,421258,134723,421258,177,,,,,,visual_patterns,0,0,0,yes,1366
undefined,undefined,undefined,undefined,white,no,Mozilla,Netscape,"5.0 (Windows NT 10.0; Win64; x64) AppleWebKit/537.36 (KHTML, like Gecko) Chrome/99.0.4844.74 Safari/537.36",xpyriment,legacy,legacy,0,uniform,0,0,0,0,24,24,24,0,0,41,41,41,41,41,0,41,0,,,,,,0,,18-02-22,18-02-22,10:00:15,Fri Mar 18 2022 10:00:15 GMT+0100 (közép-európai téli idő),The main experiment item,yes,0,0,C:/Users/rrics/Documents/!!ResearchBMECOGSCI/gnet,0,0,0,prototype2.png,no,mono,no,18,no,black,no,no,768,1203,3.5.6,legacy,xpyriment,osweb,1.3.13,0,right,right,right,,25077,21295,25077,,2,legacy,680,1280,24,720,24,0,0,1280,1647594077592,1024,2,48000,-16,experiment,p3sarrshacol2.png,1,odd,Win32,177,133205,130194,176,177,432794,434309,427810,134723,427810,177,,,,,,visual_patterns,0,0,0,yes,1366
undefined,undefined,undefined,undefined,white,no,Mozilla,Netscape,"5.0 (Windows NT 10.0; Win64; x64) AppleWebKit/537.36 (KHTML, like Gecko) Chrome/99.0.4844.74 Safari/537.36",xpyriment,legacy,legacy,0,uniform,0,0,0,0,24,24,24,0,0,42,42,42,42,42,0,42,0,,,,,,0,,18-02-22,18-02-22,10:00:15,Fri Mar 18 2022 10:00:15 GMT+0100 (közép-európai téli idő),The main experiment item,yes,0,0,C:/Users/rrics/Documents/!!ResearchBMECOGSCI/gnet,0,0,0,prototype2.png,no,mono,no,18,no,black,no,no,768,1203,3.5.6,legacy,xpyriment,osweb,1.3.13,0,right,right,right,,25077,21295,25077,,2,legacy,680,1280,24,720,24,0,0,1280,1647594077592,1024,2,48000,-16,experiment,p3sarrcol2.png,1,odd,Win32,177,133205,130194,176,177,439330,440836,434330,134723,434330,177,,,,,,visual_patterns,0,0,0,yes,1366
undefined,undefined,undefined,undefined,white,no,Mozilla,Netscape,"5.0 (Windows NT 10.0; Win64; x64) AppleWebKit/537.36 (KHTML, like Gecko) Chrome/99.0.4844.74 Safari/537.36",xpyriment,legacy,legacy,0,uniform,0,0,0,0,24,24,24,0,0,43,43,43,43,43,0,43,0,,,,,,0,,18-02-22,18-02-22,10:00:15,Fri Mar 18 2022 10:00:15 GMT+0100 (közép-európai téli idő),The main experiment item,yes,0,0,C:/Users/rrics/Documents/!!ResearchBMECOGSCI/gnet,0,0,0,prototype2.png,no,mono,no,18,no,black,no,no,768,1203,3.5.6,legacy,xpyriment,osweb,1.3.13,0,right,right,right,,25077,21295,25077,,2,legacy,680,1280,24,720,24,0,0,1280,1647594077592,1024,2,48000,-16,experiment,p3sarr2.png,1,odd,Win32,177,133205,130194,176,177,445854,447363,440863,134723,440863,177,,,,,,visual_patterns,0,0,0,yes,1366
undefined,undefined,undefined,undefined,white,no,Mozilla,Netscape,"5.0 (Windows NT 10.0; Win64; x64) AppleWebKit/537.36 (KHTML, like Gecko) Chrome/99.0.4844.74 Safari/537.36",xpyriment,legacy,legacy,0,uniform,0,0,0,0,24,24,24,0,0,44,44,44,44,44,0,44,0,,,,,,0,,18-02-22,18-02-22,10:00:15,Fri Mar 18 2022 10:00:15 GMT+0100 (közép-európai téli idő),The main experiment item,yes,0,0,C:/Users/rrics/Documents/!!ResearchBMECOGSCI/gnet,0,0,0,prototype2.png,no,mono,no,18,no,black,no,no,768,1203,3.5.6,legacy,xpyriment,osweb,1.3.13,0,right,right,right,,25077,21295,25077,,2,legacy,680,1280,24,720,24,0,0,1280,1647594077592,1024,2,48000,-16,experiment,p2sarrsha1.png,1,odd,Win32,177,133205,130194,176,177,452387,453890,447390,134723,447390,177,,,,,,visual_patterns,0,0,0,yes,1366
undefined,undefined,undefined,undefined,white,no,Mozilla,Netscape,"5.0 (Windows NT 10.0; Win64; x64) AppleWebKit/537.36 (KHTML, like Gecko) Chrome/99.0.4844.74 Safari/537.36",xpyriment,legacy,legacy,0,uniform,0,0,0,0,24,24,24,0,0,45,45,45,45,45,0,45,0,,,,,,0,,18-02-22,18-02-22,10:00:15,Fri Mar 18 2022 10:00:15 GMT+0100 (közép-európai téli idő),The main experiment item,yes,0,0,C:/Users/rrics/Documents/!!ResearchBMECOGSCI/gnet,0,0,0,prototype2.png,no,mono,no,18,no,black,no,no,768,1203,3.5.6,legacy,xpyriment,osweb,1.3.13,0,right,right,right,,25077,21295,25077,,2,legacy,680,1280,24,720,24,0,0,1280,1647594077592,1024,2,48000,-16,experiment,p4sarrsha1.png,1,odd,Win32,177,133205,130194,176,177,458958,460467,453962,134723,453962,177,,,,,,visual_patterns,0,0,0,yes,1366
undefined,undefined,undefined,undefined,white,no,Mozilla,Netscape,"5.0 (Windows NT 10.0; Win64; x64) AppleWebKit/537.36 (KHTML, like Gecko) Chrome/99.0.4844.74 Safari/537.36",xpyriment,legacy,legacy,0,uniform,0,0,0,0,24,24,24,0,0,46,46,46,46,46,0,46,0,,,,,,0,,18-02-22,18-02-22,10:00:15,Fri Mar 18 2022 10:00:15 GMT+0100 (közép-európai téli idő),The main experiment item,yes,0,0,C:/Users/rrics/Documents/!!ResearchBMECOGSCI/gnet,0,0,0,prototype2.png,no,mono,no,18,no,black,no,no,768,1203,3.5.6,legacy,xpyriment,osweb,1.3.13,0,right,right,right,,25077,21295,25077,,2,legacy,680,1280,24,720,24,0,0,1280,1647594077592,1024,2,48000,-16,experiment,p1sarrcol1.png,1,odd,Win32,177,133205,130194,176,177,465489,466994,460489,134723,460489,177,,,,,,visual_patterns,0,0,0,yes,1366
undefined,undefined,undefined,undefined,white,no,Mozilla,Netscape,"5.0 (Windows NT 10.0; Win64; x64) AppleWebKit/537.36 (KHTML, like Gecko) Chrome/99.0.4844.74 Safari/537.36",xpyriment,legacy,legacy,0,uniform,0,0,0,0,24,24,24,0,0,47,47,47,47,47,0,47,0,,,,,,0,,18-02-22,18-02-22,10:00:15,Fri Mar 18 2022 10:00:15 GMT+0100 (közép-európai téli idő),The main experiment item,yes,0,0,C:/Users/rrics/Documents/!!ResearchBMECOGSCI/gnet,0,0,0,prototype2.png,no,mono,no,18,no,black,no,no,768,1203,3.5.6,legacy,xpyriment,osweb,1.3.13,0,right,right,right,,25077,21295,25077,,2,legacy,680,1280,24,720,24,0,0,1280,1647594077592,1024,2,48000,-16,experiment,p1sarrsha2.png,1,odd,Win32,177,133205,130194,176,177,472020,473537,467037,134723,467037,177,,,,,,visual_patterns,0,0,0,yes,1366
undefined,undefined,undefined,undefined,white,no,Mozilla,Netscape,"5.0 (Windows NT 10.0; Win64; x64) AppleWebKit/537.36 (KHTML, like Gecko) Chrome/99.0.4844.74 Safari/537.36",xpyriment,legacy,legacy,0,uniform,0,0,0,0,24,24,24,0,0,48,48,48,48,48,0,48,0,,,,,,0,,18-02-22,18-02-22,10:00:15,Fri Mar 18 2022 10:00:15 GMT+0100 (közép-európai téli idő),The main experiment item,yes,0,0,C:/Users/rrics/Documents/!!ResearchBMECOGSCI/gnet,0,0,0,prototype2.png,no,mono,no,18,no,black,no,no,768,1203,3.5.6,legacy,xpyriment,osweb,1.3.13,0,right,right,right,,25077,21295,25077,,2,legacy,680,1280,24,720,24,0,0,1280,1647594077592,1024,2,48000,-16,experiment,p7sarr2.png,1,odd,Win32,177,133205,130194,176,177,478558,480064,473564,134723,473564,177,,,,,,visual_patterns,0,0,0,yes,1366
undefined,undefined,undefined,undefined,white,no,Mozilla,Netscape,"5.0 (Windows NT 10.0; Win64; x64) AppleWebKit/537.36 (KHTML, like Gecko) Chrome/99.0.4844.74 Safari/537.36",xpyriment,legacy,legacy,0,uniform,0,0,0,0,24,24,24,0,0,49,49,49,49,49,0,49,0,,,,,,0,,18-02-22,18-02-22,10:00:15,Fri Mar 18 2022 10:00:15 GMT+0100 (közép-európai téli idő),The main experiment item,yes,0,0,C:/Users/rrics/Documents/!!ResearchBMECOGSCI/gnet,0,0,0,prototype2.png,no,mono,no,18,no,black,no,no,768,1203,3.5.6,legacy,xpyriment,osweb,1.3.13,0,right,right,right,,25077,21295,25077,,2,legacy,680,1280,24,720,24,0,0,1280,1647594077592,1024,2,48000,-16,experiment,p4sarr1.png,1,odd,Win32,177,133205,130194,176,177,485107,486624,480107,134723,480107,177,,,,,,visual_patterns,0,0,0,yes,1366
undefined,undefined,undefined,undefined,white,no,Mozilla,Netscape,"5.0 (Windows NT 10.0; Win64; x64) AppleWebKit/537.36 (KHTML, like Gecko) Chrome/99.0.4844.74 Safari/537.36",xpyriment,legacy,legacy,0,uniform,0,0,0,0,24,24,24,0,0,50,50,50,50,50,0,50,0,,,,,,0,,18-02-22,18-02-22,10:00:15,Fri Mar 18 2022 10:00:15 GMT+0100 (közép-európai téli idő),The main experiment item,yes,0,0,C:/Users/rrics/Documents/!!ResearchBMECOGSCI/gnet,0,0,0,prototype2.png,no,mono,no,18,no,black,no,no,768,1203,3.5.6,legacy,xpyriment,osweb,1.3.13,0,right,right,right,,25077,21295,25077,,2,legacy,680,1280,24,720,24,0,0,1280,1647594077592,1024,2,48000,-16,experiment,p10sarr1.png,1,odd,Win32,177,133205,130194,176,177,491649,493151,486647,134723,486647,177,,,,,,visual_patterns,0,0,0,yes,1366
undefined,undefined,undefined,undefined,white,no,Mozilla,Netscape,"5.0 (Windows NT 10.0; Win64; x64) AppleWebKit/537.36 (KHTML, like Gecko) Chrome/99.0.4844.74 Safari/537.36",xpyriment,legacy,legacy,0,uniform,0,0,0,0,24,24,24,0,0,51,51,51,51,51,0,51,0,,,,,,0,,18-02-22,18-02-22,10:00:15,Fri Mar 18 2022 10:00:15 GMT+0100 (közép-európai téli idő),The main experiment item,yes,0,0,C:/Users/rrics/Documents/!!ResearchBMECOGSCI/gnet,0,0,0,prototype2.png,no,mono,no,18,no,black,no,no,768,1203,3.5.6,legacy,xpyriment,osweb,1.3.13,0,right,right,right,,25077,21295,25077,,2,legacy,680,1280,24,720,24,0,0,1280,1647594077592,1024,2,48000,-16,experiment,prototype3.png,1,odd,Win32,177,133205,130194,176,177,498169,499678,493165,134723,493165,177,,,,,,visual_patterns,0,0,0,yes,1366
undefined,undefined,undefined,undefined,white,no,Mozilla,Netscape,"5.0 (Windows NT 10.0; Win64; x64) AppleWebKit/537.36 (KHTML, like Gecko) Chrome/99.0.4844.74 Safari/537.36",xpyriment,legacy,legacy,0,uniform,0,0,0,0,24,24,24,0,0,52,52,52,52,52,0,52,0,,,,,,0,,18-02-22,18-02-22,10:00:15,Fri Mar 18 2022 10:00:15 GMT+0100 (közép-európai téli idő),The main experiment item,yes,0,0,C:/Users/rrics/Documents/!!ResearchBMECOGSCI/gnet,0,0,0,prototype2.png,no,mono,no,18,no,black,no,no,768,1203,3.5.6,legacy,xpyriment,osweb,1.3.13,0,right,right,right,,25077,21295,25077,,2,legacy,680,1280,24,720,24,0,0,1280,1647594077592,1024,2,48000,-16,experiment,p1sarr1.png,1,odd,Win32,177,133205,130194,176,177,504695,506205,499706,134723,499706,177,,,,,,visual_patterns,0,0,0,yes,1366
undefined,undefined,undefined,undefined,white,no,Mozilla,Netscape,"5.0 (Windows NT 10.0; Win64; x64) AppleWebKit/537.36 (KHTML, like Gecko) Chrome/99.0.4844.74 Safari/537.36",xpyriment,legacy,legacy,0,uniform,0,0,0,0,24,24,24,0,0,53,53,53,53,53,0,53,0,,,,,,0,,18-02-22,18-02-22,10:00:15,Fri Mar 18 2022 10:00:15 GMT+0100 (közép-európai téli idő),The main experiment item,yes,0,0,C:/Users/rrics/Documents/!!ResearchBMECOGSCI/gnet,0,0,0,prototype2.png,no,mono,no,18,no,black,no,no,768,1203,3.5.6,legacy,xpyriment,osweb,1.3.13,0,right,right,right,,25077,21295,25077,,2,legacy,680,1280,24,720,24,0,0,1280,1647594077592,1024,2,48000,-16,experiment,p1sarrcol2.png,1,odd,Win32,177,133205,130194,176,177,511227,512732,506230,134723,506230,177,,,,,,visual_patterns,0,0,0,yes,1366
undefined,undefined,undefined,undefined,white,no,Mozilla,Netscape,"5.0 (Windows NT 10.0; Win64; x64) AppleWebKit/537.36 (KHTML, like Gecko) Chrome/99.0.4844.74 Safari/537.36",xpyriment,legacy,legacy,0,uniform,0,0,0,0,24,24,24,0,0,54,54,54,54,54,0,54,0,,,,,,0,,18-02-22,18-02-22,10:00:15,Fri Mar 18 2022 10:00:15 GMT+0100 (közép-európai téli idő),The main experiment item,yes,0,0,C:/Users/rrics/Documents/!!ResearchBMECOGSCI/gnet,0,0,0,prototype2.png,no,mono,no,18,no,black,no,no,768,1203,3.5.6,legacy,xpyriment,osweb,1.3.13,0,right,right,right,,25077,21295,25077,,2,legacy,680,1280,24,720,24,0,0,1280,1647594077592,1024,2,48000,-16,experiment,p2sarrcol2.png,1,odd,Win32,177,133205,130194,176,177,517753,519259,512755,134723,512755,177,,,,,,visual_patterns,0,0,0,yes,1366
undefined,undefined,undefined,undefined,white,no,Mozilla,Netscape,"5.0 (Windows NT 10.0; Win64; x64) AppleWebKit/537.36 (KHTML, like Gecko) Chrome/99.0.4844.74 Safari/537.36",xpyriment,legacy,legacy,0,uniform,0,0,0,0,24,24,24,0,0,55,55,55,55,55,0,55,0,,,,,,0,,18-02-22,18-02-22,10:00:15,Fri Mar 18 2022 10:00:15 GMT+0100 (közép-európai téli idő),The main experiment item,yes,0,0,C:/Users/rrics/Documents/!!ResearchBMECOGSCI/gnet,0,0,0,prototype2.png,no,mono,no,18,no,black,no,no,768,1203,3.5.6,legacy,xpyriment,osweb,1.3.13,0,right,right,right,,25077,21295,25077,,2,legacy,680,1280,24,720,24,0,0,1280,1647594077592,1024,2,48000,-16,experiment,prototype4.png,1,odd,Win32,177,133205,130194,176,177,524279,525786,519277,134723,519277,177,,,,,,visual_patterns,0,0,0,yes,1366
undefined,undefined,undefined,undefined,white,no,Mozilla,Netscape,"5.0 (Windows NT 10.0; Win64; x64) AppleWebKit/537.36 (KHTML, like Gecko) Chrome/99.0.4844.74 Safari/537.36",xpyriment,legacy,legacy,0,uniform,0,0,0,0,24,24,24,0,0,56,56,56,56,56,0,56,0,,,,,,0,,18-02-22,18-02-22,10:00:15,Fri Mar 18 2022 10:00:15 GMT+0100 (közép-európai téli idő),The main experiment item,yes,0,0,C:/Users/rrics/Documents/!!ResearchBMECOGSCI/gnet,0,0,0,prototype2.png,no,mono,no,18,no,black,no,no,768,1203,3.5.6,legacy,xpyriment,osweb,1.3.13,0,right,right,right,,25077,21295,25077,,2,legacy,680,1280,24,720,24,0,0,1280,1647594077592,1024,2,48000,-16,experiment,p2sarrshacol1.png,1,odd,Win32,177,133205,130194,176,177,530804,532313,525811,134723,525810,177,,,,,,visual_patterns,0,0,0,yes,1366
undefined,undefined,undefined,undefined,white,no,Mozilla,Netscape,"5.0 (Windows NT 10.0; Win64; x64) AppleWebKit/537.36 (KHTML, like Gecko) Chrome/99.0.4844.74 Safari/537.36",xpyriment,legacy,legacy,0,uniform,0,0,0,0,24,24,24,0,0,57,57,57,57,57,0,57,0,,,,,,0,,18-02-22,18-02-22,10:00:15,Fri Mar 18 2022 10:00:15 GMT+0100 (közép-európai téli idő),The main experiment item,yes,0,0,C:/Users/rrics/Documents/!!ResearchBMECOGSCI/gnet,0,0,0,prototype2.png,no,mono,no,18,no,black,no,no,768,1203,3.5.6,legacy,xpyriment,osweb,1.3.13,0,right,right,right,,25077,21295,25077,,2,legacy,680,1280,24,720,24,0,0,1280,1647594077592,1024,2,48000,-16,experiment,prototype5.png,1,odd,Win32,177,133205,130194,176,177,537338,538839,532338,134723,532338,177,,,,,,visual_patterns,0,0,0,yes,1366
undefined,undefined,undefined,undefined,white,no,Mozilla,Netscape,"5.0 (Windows NT 10.0; Win64; x64) AppleWebKit/537.36 (KHTML, like Gecko) Chrome/99.0.4844.74 Safari/537.36",xpyriment,legacy,legacy,0,uniform,0,0,0,0,24,24,24,0,0,58,58,58,58,58,0,58,0,,,,,,0,,18-02-22,18-02-22,10:00:15,Fri Mar 18 2022 10:00:15 GMT+0100 (közép-európai téli idő),The main experiment item,yes,0,0,C:/Users/rrics/Documents/!!ResearchBMECOGSCI/gnet,0,0,0,prototype2.png,no,mono,no,18,no,black,no,no,768,1203,3.5.6,legacy,xpyriment,osweb,1.3.13,0,right,right,right,,25077,21295,25077,,2,legacy,680,1280,24,720,24,0,0,1280,1647594077592,1024,2,48000,-16,experiment,prototype2.png,1,odd,Win32,177,133205,130194,176,177,543851,545367,538847,134723,538847,177,,,,,,visual_patterns,0,0,0,yes,1366
undefined,undefined,undefined,undefined,white,no,Mozilla,Netscape,"5.0 (Windows NT 10.0; Win64; x64) AppleWebKit/537.36 (KHTML, like Gecko) Chrome/99.0.4844.74 Safari/537.36",xpyriment,legacy,legacy,0,uniform,0,0,0,0,24,24,24,0,0,59,59,59,59,59,0,59,0,,,,,,0,,18-02-22,18-02-22,10:00:15,Fri Mar 18 2022 10:00:15 GMT+0100 (közép-európai téli idő),The main experiment item,yes,0,0,C:/Users/rrics/Documents/!!ResearchBMECOGSCI/gnet,0,0,0,prototype2.png,no,mono,no,18,no,black,no,no,768,1203,3.5.6,legacy,xpyriment,osweb,1.3.13,0,right,right,right,,25077,21295,25077,,2,legacy,680,1280,24,720,24,0,0,1280,1647594077592,1024,2,48000,-16,experiment,prototype5.png,1,odd,Win32,177,133205,130194,176,177,550389,551894,545388,134723,545388,177,,,,,,visual_patterns,0,0,0,yes,1366
undefined,undefined,undefined,undefined,white,no,Mozilla,Netscape,"5.0 (Windows NT 10.0; Win64; x64) AppleWebKit/537.36 (KHTML, like Gecko) Chrome/99.0.4844.74 Safari/537.36",xpyriment,legacy,legacy,0,uniform,0,0,0,0,24,24,24,0,0,60,60,60,60,60,0,60,0,,,,,,0,,18-02-22,18-02-22,10:00:15,Fri Mar 18 2022 10:00:15 GMT+0100 (közép-európai téli idő),The main experiment item,yes,0,0,C:/Users/rrics/Documents/!!ResearchBMECOGSCI/gnet,0,0,0,prototype2.png,no,mono,no,18,no,black,no,no,768,1203,3.5.6,legacy,xpyriment,osweb,1.3.13,0,right,right,right,,25077,21295,25077,,2,legacy,680,1280,24,720,24,0,0,1280,1647594077592,1024,2,48000,-16,experiment,p1sarrshacol2.png,1,odd,Win32,177,133205,130194,176,177,556951,558454,551953,134723,551953,177,,,,,,visual_patterns,0,0,0,yes,1366
undefined,undefined,undefined,undefined,white,no,Mozilla,Netscape,"5.0 (Windows NT 10.0; Win64; x64) AppleWebKit/537.36 (KHTML, like Gecko) Chrome/99.0.4844.74 Safari/537.36",xpyriment,legacy,legacy,0,uniform,0,0,0,0,24,24,24,0,0,61,61,61,61,61,0,61,0,,,,,,0,,18-02-22,18-02-22,10:00:15,Fri Mar 18 2022 10:00:15 GMT+0100 (közép-európai téli idő),The main experiment item,yes,0,0,C:/Users/rrics/Documents/!!ResearchBMECOGSCI/gnet,0,0,0,prototype2.png,no,mono,no,18,no,black,no,no,768,1203,3.5.6,legacy,xpyriment,osweb,1.3.13,0,right,right,right,,25077,21295,25077,,2,legacy,680,1280,24,720,24,0,0,1280,1647594077592,1024,2,48000,-16,experiment,p2sarrcol1.png,1,odd,Win32,177,133205,130194,176,177,563477,564981,558480,134723,558480,177,,,,,,visual_patterns,0,0,0,yes,1366
undefined,undefined,undefined,undefined,white,no,Mozilla,Netscape,"5.0 (Windows NT 10.0; Win64; x64) AppleWebKit/537.36 (KHTML, like Gecko) Chrome/99.0.4844.74 Safari/537.36",xpyriment,legacy,legacy,0,uniform,0,0,0,0,24,24,24,0,0,62,62,62,62,62,0,62,0,,,,,,0,,18-02-22,18-02-22,10:00:15,Fri Mar 18 2022 10:00:15 GMT+0100 (közép-európai téli idő),The main experiment item,yes,0,0,C:/Users/rrics/Documents/!!ResearchBMECOGSCI/gnet,0,0,0,prototype2.png,no,mono,no,18,no,black,no,no,768,1203,3.5.6,legacy,xpyriment,osweb,1.3.13,0,right,right,right,,25077,21295,25077,,2,legacy,680,1280,24,720,24,0,0,1280,1647594077592,1024,2,48000,-16,experiment,p5sarr2.png,1,odd,Win32,177,133205,130194,176,177,570002,571508,565005,134723,565005,177,,,,,,visual_patterns,0,0,0,yes,1366
undefined,undefined,undefined,undefined,white,no,Mozilla,Netscape,"5.0 (Windows NT 10.0; Win64; x64) AppleWebKit/537.36 (KHTML, like Gecko) Chrome/99.0.4844.74 Safari/537.36",xpyriment,legacy,legacy,0,uniform,0,0,0,0,24,24,24,0,0,63,63,63,63,63,0,63,0,,,,,,0,,18-02-22,18-02-22,10:00:15,Fri Mar 18 2022 10:00:15 GMT+0100 (közép-európai téli idő),The main experiment item,yes,0,0,C:/Users/rrics/Documents/!!ResearchBMECOGSCI/gnet,0,0,0,prototype2.png,no,mono,no,18,no,black,no,no,768,1203,3.5.6,legacy,xpyriment,osweb,1.3.13,0,right,right,right,,25077,21295,25077,,2,legacy,680,1280,24,720,24,0,0,1280,1647594077592,1024,2,48000,-16,experiment,p10sarr2.png,1,odd,Win32,177,133205,130194,176,177,576530,578035,571542,134723,571541,177,,,,,,visual_patterns,0,0,0,yes,1366
undefined,undefined,undefined,undefined,white,no,Mozilla,Netscape,"5.0 (Windows NT 10.0; Win64; x64) AppleWebKit/537.36 (KHTML, like Gecko) Chrome/99.0.4844.74 Safari/537.36",xpyriment,legacy,legacy,0,uniform,0,0,0,0,24,24,24,0,0,64,64,64,64,64,0,64,0,,,,,,0,,18-02-22,18-02-22,10:00:15,Fri Mar 18 2022 10:00:15 GMT+0100 (közép-európai téli idő),The main experiment item,yes,0,0,C:/Users/rrics/Documents/!!ResearchBMECOGSCI/gnet,0,0,0,prototype2.png,no,mono,no,18,no,black,no,no,768,1203,3.5.6,legacy,xpyriment,osweb,1.3.13,0,right,right,right,,25077,21295,25077,,2,legacy,680,1280,24,720,24,0,0,1280,1647594077592,1024,2,48000,-16,experiment,prototype1.png,1,odd,Win32,177,133205,130194,176,177,583061,584562,578056,134723,578056,177,,,,,,visual_patterns,0,0,0,yes,1366
undefined,undefined,undefined,undefined,white,no,Mozilla,Netscape,"5.0 (Windows NT 10.0; Win64; x64) AppleWebKit/537.36 (KHTML, like Gecko) Chrome/99.0.4844.74 Safari/537.36",xpyriment,legacy,legacy,0,uniform,0,0,0,0,24,24,24,0,0,65,65,65,65,65,0,65,0,,,,,,0,,18-02-22,18-02-22,10:00:15,Fri Mar 18 2022 10:00:15 GMT+0100 (közép-európai téli idő),The main experiment item,yes,0,0,C:/Users/rrics/Documents/!!ResearchBMECOGSCI/gnet,0,0,0,prototype2.png,no,mono,no,18,no,black,no,no,768,1203,3.5.6,legacy,xpyriment,osweb,1.3.13,0,right,right,right,,25077,21295,25077,,2,legacy,680,1280,24,720,24,0,0,1280,1647594077592,1024,2,48000,-16,experiment,prototype4.png,1,odd,Win32,177,133205,130194,176,177,589624,591145,584625,134723,584624,177,,,,,,visual_patterns,0,0,0,yes,1366
undefined,undefined,undefined,undefined,white,no,Mozilla,Netscape,"5.0 (Windows NT 10.0; Win64; x64) AppleWebKit/537.36 (KHTML, like Gecko) Chrome/99.0.4844.74 Safari/537.36",xpyriment,legacy,legacy,0,uniform,0,0,0,0,24,24,24,0,0,66,66,66,66,66,0,66,0,,,,,,0,,18-02-22,18-02-22,10:00:15,Fri Mar 18 2022 10:00:15 GMT+0100 (közép-európai téli idő),The main experiment item,yes,0,0,C:/Users/rrics/Documents/!!ResearchBMECOGSCI/gnet,0,0,0,prototype2.png,no,mono,no,18,no,black,no,no,768,1203,3.5.6,legacy,xpyriment,osweb,1.3.13,0,right,right,right,,25077,21295,25077,,2,legacy,680,1280,24,720,24,0,0,1280,1647594077592,1024,2,48000,-16,experiment,p2sarrshacol2.png,1,odd,Win32,177,133205,130194,176,177,596165,597682,591169,134723,591169,177,,,,,,visual_patterns,0,0,0,yes,1366
undefined,undefined,undefined,undefined,white,no,Mozilla,Netscape,"5.0 (Windows NT 10.0; Win64; x64) AppleWebKit/537.36 (KHTML, like Gecko) Chrome/99.0.4844.74 Safari/537.36",xpyriment,legacy,legacy,0,uniform,0,0,0,0,24,24,24,0,0,67,67,67,67,67,0,67,0,,,,,,0,,18-02-22,18-02-22,10:00:15,Fri Mar 18 2022 10:00:15 GMT+0100 (közép-európai téli idő),The main experiment item,yes,0,0,C:/Users/rrics/Documents/!!ResearchBMECOGSCI/gnet,0,0,0,prototype2.png,no,mono,no,18,no,black,no,no,768,1203,3.5.6,legacy,xpyriment,osweb,1.3.13,0,right,right,right,,25077,21295,25077,,2,legacy,680,1280,24,720,24,0,0,1280,1647594077592,1024,2,48000,-16,experiment,p1sarr2.png,1,odd,Win32,177,133205,130194,176,177,602705,604209,597710,134723,597710,177,,,,,,visual_patterns,0,0,0,yes,1366
undefined,undefined,undefined,undefined,white,no,Mozilla,Netscape,"5.0 (Windows NT 10.0; Win64; x64) AppleWebKit/537.36 (KHTML, like Gecko) Chrome/99.0.4844.74 Safari/537.36",xpyriment,legacy,legacy,0,uniform,0,0,0,0,24,24,24,0,0,68,68,68,68,68,0,68,0,,,,,,0,,18-02-22,18-02-22,10:00:15,Fri Mar 18 2022 10:00:15 GMT+0100 (közép-európai téli idő),The main experiment item,yes,0,0,C:/Users/rrics/Documents/!!ResearchBMECOGSCI/gnet,0,0,0,prototype2.png,no,mono,no,18,no,black,no,no,768,1203,3.5.6,legacy,xpyriment,osweb,1.3.13,0,right,right,right,,25077,21295,25077,,2,legacy,680,1280,24,720,24,0,0,1280,1647594077592,1024,2,48000,-16,experiment,p6sarr2.png,1,odd,Win32,177,133205,130194,176,177,609227,610736,604231,134723,604231,177,,,,,,visual_patterns,0,0,0,yes,1366
undefined,undefined,undefined,undefined,white,no,Mozilla,Netscape,"5.0 (Windows NT 10.0; Win64; x64) AppleWebKit/537.36 (KHTML, like Gecko) Chrome/99.0.4844.74 Safari/537.36",xpyriment,legacy,legacy,0,uniform,0,0,0,0,24,24,24,0,0,69,69,69,69,69,0,69,0,,,,,,0,,18-02-22,18-02-22,10:00:15,Fri Mar 18 2022 10:00:15 GMT+0100 (közép-európai téli idő),The main experiment item,yes,0,0,C:/Users/rrics/Documents/!!ResearchBMECOGSCI/gnet,0,0,0,prototype2.png,no,mono,no,18,no,black,no,no,768,1203,3.5.6,legacy,xpyriment,osweb,1.3.13,0,right,right,right,,25077,21295,25077,,2,legacy,680,1280,24,720,24,0,0,1280,1647594077592,1024,2,48000,-16,experiment,prototype2.png,1,odd,Win32,177,133205,130194,176,177,615759,617263,610756,134723,610755,177,,,,,,visual_patterns,0,0,0,yes,1366
undefined,undefined,undefined,undefined,white,no,Mozilla,Netscape,"5.0 (Windows NT 10.0; Win64; x64) AppleWebKit/537.36 (KHTML, like Gecko) Chrome/99.0.4844.74 Safari/537.36",xpyriment,legacy,legacy,0,uniform,0,0,0,0,24,24,24,0,0,70,70,70,70,70,0,70,0,,,,,,0,,18-02-22,18-02-22,10:00:15,Fri Mar 18 2022 10:00:15 GMT+0100 (közép-európai téli idő),The main experiment item,yes,0,0,C:/Users/rrics/Documents/!!ResearchBMECOGSCI/gnet,0,0,0,prototype2.png,no,mono,no,18,no,black,no,no,768,1203,3.5.6,legacy,xpyriment,osweb,1.3.13,0,right,right,right,,25077,21295,25077,,2,legacy,680,1280,24,720,24,0,0,1280,1647594077592,1024,2,48000,-16,experiment,p1sarrshacol1.png,1,odd,Win32,177,133205,130194,176,177,622282,623790,617286,134723,617286,177,,,,,,visual_patterns,0,0,0,yes,1366
undefined,undefined,undefined,undefined,white,no,Mozilla,Netscape,"5.0 (Windows NT 10.0; Win64; x64) AppleWebKit/537.36 (KHTML, like Gecko) Chrome/99.0.4844.74 Safari/537.36",xpyriment,legacy,legacy,0,uniform,0,0,0,0,24,24,24,0,0,71,71,71,71,71,0,71,0,,,,,,0,,18-02-22,18-02-22,10:00:15,Fri Mar 18 2022 10:00:15 GMT+0100 (közép-európai téli idő),The main experiment item,yes,0,0,C:/Users/rrics/Documents/!!ResearchBMECOGSCI/gnet,0,0,0,prototype2.png,no,mono,no,18,no,black,no,no,768,1203,3.5.6,legacy,xpyriment,osweb,1.3.13,0,right,right,right,,25077,21295,25077,,2,legacy,680,1280,24,720,24,0,0,1280,1647594077592,1024,2,48000,-16,experiment,prototype1.png,1,odd,Win32,177,133205,130194,176,177,628814,630317,623811,134723,623811,177,,,,,,visual_patterns,0,0,0,yes,1366
undefined,undefined,undefined,undefined,white,no,Mozilla,Netscape,"5.0 (Windows NT 10.0; Win64; x64) AppleWebKit/537.36 (KHTML, like Gecko) Chrome/99.0.4844.74 Safari/537.36",xpyriment,legacy,legacy,0,uniform,0,0,0,0,24,24,24,0,0,72,72,72,72,72,0,72,0,,,,,,0,,18-02-22,18-02-22,10:00:15,Fri Mar 18 2022 10:00:15 GMT+0100 (közép-európai téli idő),The main experiment item,yes,0,0,C:/Users/rrics/Documents/!!ResearchBMECOGSCI/gnet,0,0,0,prototype2.png,no,mono,no,18,no,black,no,no,768,1203,3.5.6,legacy,xpyriment,osweb,1.3.13,0,right,right,right,,25077,21295,25077,,2,legacy,680,1280,24,720,24,0,0,1280,1647594077592,1024,2,48000,-16,experiment,prototype5.png,1,odd,Win32,177,133205,130194,176,177,635336,636844,630332,134723,630332,177,,,,,,visual_patterns,0,0,0,yes,1366
undefined,undefined,undefined,undefined,white,no,Mozilla,Netscape,"5.0 (Windows NT 10.0; Win64; x64) AppleWebKit/537.36 (KHTML, like Gecko) Chrome/99.0.4844.74 Safari/537.36",xpyriment,legacy,legacy,0,uniform,0,0,0,0,24,24,24,0,0,73,73,73,73,73,0,73,0,,,,,,0,,18-02-22,18-02-22,10:00:15,Fri Mar 18 2022 10:00:15 GMT+0100 (közép-európai téli idő),The main experiment item,yes,0,0,C:/Users/rrics/Documents/!!ResearchBMECOGSCI/gnet,0,0,0,prototype2.png,no,mono,no,18,no,black,no,no,768,1203,3.5.6,legacy,xpyriment,osweb,1.3.13,0,right,right,right,,25077,21295,25077,,2,legacy,680,1280,24,720,24,0,0,1280,1647594077592,1024,2,48000,-16,experiment,prototype3.png,1,odd,Win32,177,133205,130194,176,177,641863,643371,636862,134723,636862,177,,,,,,visual_patterns,0,0,0,yes,1366
undefined,undefined,undefined,undefined,white,no,Mozilla,Netscape,"5.0 (Windows NT 10.0; Win64; x64) AppleWebKit/537.36 (KHTML, like Gecko) Chrome/99.0.4844.74 Safari/537.36",xpyriment,legacy,legacy,0,uniform,0,0,0,0,24,24,24,0,0,74,74,74,74,74,0,74,0,,,,,,0,,18-02-22,18-02-22,10:00:15,Fri Mar 18 2022 10:00:15 GMT+0100 (közép-európai téli idő),The main experiment item,yes,0,0,C:/Users/rrics/Documents/!!ResearchBMECOGSCI/gnet,0,0,0,prototype2.png,no,mono,no,18,no,black,no,no,768,1203,3.5.6,legacy,xpyriment,osweb,1.3.13,0,right,right,right,,25077,21295,25077,,2,legacy,680,1280,24,720,24,0,0,1280,1647594077592,1024,2,48000,-16,experiment,prototype2.png,1,odd,Win32,177,133205,130194,176,177,648398,649914,643395,134723,643395,177,,,,,,visual_patterns,0,0,0,yes,1366
undefined,undefined,undefined,undefined,white,no,Mozilla,Netscape,"5.0 (Windows NT 10.0; Win64; x64) AppleWebKit/537.36 (KHTML, like Gecko) Chrome/99.0.4844.74 Safari/537.36",xpyriment,legacy,legacy,0,uniform,0,0,0,0,24,24,24,0,0,74,74,74,74,74,0,74,0,0,0,0,0,0,0,0,18-02-22,18-02-22,10:00:15,Fri Mar 18 2022 10:00:15 GMT+0100 (közép-európai téli idő),The main experiment item,yes,0,0,C:/Users/rrics/Documents/!!ResearchBMECOGSCI/gnet,0,0,0,prototype2.png,no,mono,no,18,no,black,no,no,768,1203,3.5.6,legacy,xpyriment,osweb,1.3.13,0,right,right,right,right,41385,21295,25077,41385,2,legacy,680,1280,24,720,24,0,0,1280,1647594077592,1024,2,48000,-16,experiment,p5sarrsha3.png,1,odd,Win32,177,133205,130194,176,177,648398,649914,643395,134723,643395,177,694401,695903,691403,649926,691403,visual_patterns,0,0,0,yes,1366
undefined,undefined,undefined,undefined,white,no,Mozilla,Netscape,"5.0 (Windows NT 10.0; Win64; x64) AppleWebKit/537.36 (KHTML, like Gecko) Chrome/99.0.4844.74 Safari/537.36",xpyriment,legacy,legacy,0,uniform,0,0,0,0,24,24,24,0,0,74,74,74,74,74,0,74,0,1,1,1,1,1,0,1,18-02-22,18-02-22,10:00:15,Fri Mar 18 2022 10:00:15 GMT+0100 (közép-európai téli idő),The main experiment item,yes,0,0,C:/Users/rrics/Documents/!!ResearchBMECOGSCI/gnet,0,0,0,prototype2.png,no,mono,no,18,no,black,no,no,768,1203,3.5.6,legacy,xpyriment,osweb,1.3.13,0,right,right,right,right,41385,21295,25077,41385,2,legacy,680,1280,24,720,24,0,0,1280,1647594077592,1024,2,48000,-16,experiment,p2sarrshacol1.png,1,odd,Win32,177,133205,130194,176,177,648398,649914,643395,134723,643395,177,698929,700431,695925,649926,695925,visual_patterns,0,0,0,yes,1366
undefined,undefined,undefined,undefined,white,no,Mozilla,Netscape,"5.0 (Windows NT 10.0; Win64; x64) AppleWebKit/537.36 (KHTML, like Gecko) Chrome/99.0.4844.74 Safari/537.36",xpyriment,legacy,legacy,0,uniform,0,0,0,0,24,24,24,0,0,74,74,74,74,74,0,74,0,2,2,2,2,2,0,2,18-02-22,18-02-22,10:00:15,Fri Mar 18 2022 10:00:15 GMT+0100 (közép-európai téli idő),The main experiment item,yes,0,0,C:/Users/rrics/Documents/!!ResearchBMECOGSCI/gnet,0,0,0,prototype2.png,no,mono,no,18,no,black,no,no,768,1203,3.5.6,legacy,xpyriment,osweb,1.3.13,0,right,right,right,right,41385,21295,25077,41385,2,legacy,680,1280,24,720,24,0,0,1280,1647594077592,1024,2,48000,-16,experiment,p4sarr4.png,1,odd,Win32,177,133205,130194,176,177,648398,649914,643395,134723,643395,177,703457,704960,700463,649926,700463,visual_patterns,0,0,0,yes,1366
undefined,undefined,undefined,undefined,white,no,Mozilla,Netscape,"5.0 (Windows NT 10.0; Win64; x64) AppleWebKit/537.36 (KHTML, like Gecko) Chrome/99.0.4844.74 Safari/537.36",xpyriment,legacy,legacy,0,uniform,0,0,0,0,24,24,24,0,0,74,74,74,74,74,0,74,0,3,3,3,3,3,0,3,18-02-22,18-02-22,10:00:15,Fri Mar 18 2022 10:00:15 GMT+0100 (közép-európai téli idő),The main experiment item,yes,0,0,C:/Users/rrics/Documents/!!ResearchBMECOGSCI/gnet,0,0,0,prototype2.png,no,mono,no,18,no,black,no,no,768,1203,3.5.6,legacy,xpyriment,osweb,1.3.13,0,right,right,right,right,41385,21295,25077,41385,2,legacy,680,1280,24,720,24,0,0,1280,1647594077592,1024,2,48000,-16,experiment,p5sarrsha2.png,1,odd,Win32,177,133205,130194,176,177,648398,649914,643395,134723,643395,177,707982,709489,704981,649926,704981,visual_patterns,0,0,0,yes,1366
undefined,undefined,undefined,undefined,white,no,Mozilla,Netscape,"5.0 (Windows NT 10.0; Win64; x64) AppleWebKit/537.36 (KHTML, like Gecko) Chrome/99.0.4844.74 Safari/537.36",xpyriment,legacy,legacy,0,uniform,0,0,0,0,24,24,24,0,0,74,74,74,74,74,0,74,0,4,4,4,4,4,0,4,18-02-22,18-02-22,10:00:15,Fri Mar 18 2022 10:00:15 GMT+0100 (közép-európai téli idő),The main experiment item,yes,0,0,C:/Users/rrics/Documents/!!ResearchBMECOGSCI/gnet,0,0,0,prototype2.png,no,mono,no,18,no,black,no,no,768,1203,3.5.6,legacy,xpyriment,osweb,1.3.13,0,right,right,right,right,41385,21295,25077,41385,2,legacy,680,1280,24,720,24,0,0,1280,1647594077592,1024,2,48000,-16,experiment,p7sarr2.png,1,odd,Win32,177,133205,130194,176,177,648398,649914,643395,134723,643395,177,712512,714018,709510,649926,709510,visual_patterns,0,0,0,yes,1366
undefined,undefined,undefined,undefined,white,no,Mozilla,Netscape,"5.0 (Windows NT 10.0; Win64; x64) AppleWebKit/537.36 (KHTML, like Gecko) Chrome/99.0.4844.74 Safari/537.36",xpyriment,legacy,legacy,0,uniform,0,0,0,0,24,24,24,0,0,74,74,74,74,74,0,74,0,5,5,5,5,5,0,5,18-02-22,18-02-22,10:00:15,Fri Mar 18 2022 10:00:15 GMT+0100 (közép-európai téli idő),The main experiment item,yes,0,0,C:/Users/rrics/Documents/!!ResearchBMECOGSCI/gnet,0,0,0,prototype2.png,no,mono,no,18,no,black,no,no,768,1203,3.5.6,legacy,xpyriment,osweb,1.3.13,0,right,right,right,right,41385,21295,25077,41385,2,legacy,680,1280,24,720,24,0,0,1280,1647594077592,1024,2,48000,-16,experiment,p1sarrsha4.png,1,odd,Win32,177,133205,130194,176,177,648398,649914,643395,134723,643395,177,717076,718580,714070,649926,714070,visual_patterns,0,0,0,yes,1366
undefined,undefined,undefined,undefined,white,no,Mozilla,Netscape,"5.0 (Windows NT 10.0; Win64; x64) AppleWebKit/537.36 (KHTML, like Gecko) Chrome/99.0.4844.74 Safari/537.36",xpyriment,legacy,legacy,0,uniform,0,0,0,0,24,24,24,0,0,74,74,74,74,74,0,74,0,6,6,6,6,6,0,6,18-02-22,18-02-22,10:00:15,Fri Mar 18 2022 10:00:15 GMT+0100 (közép-európai téli idő),The main experiment item,yes,0,0,C:/Users/rrics/Documents/!!ResearchBMECOGSCI/gnet,0,0,0,prototype2.png,no,mono,no,18,no,black,no,no,768,1203,3.5.6,legacy,xpyriment,osweb,1.3.13,0,right,right,right,right,41385,21295,25077,41385,2,legacy,680,1280,24,720,24,0,0,1280,1647594077592,1024,2,48000,-16,experiment,p3sarrcol2.png,1,odd,Win32,177,133205,130194,176,177,648398,649914,643395,134723,643395,177,721604,723109,718602,649926,718602,visual_patterns,0,0,0,yes,1366
undefined,undefined,undefined,undefined,white,no,Mozilla,Netscape,"5.0 (Windows NT 10.0; Win64; x64) AppleWebKit/537.36 (KHTML, like Gecko) Chrome/99.0.4844.74 Safari/537.36",xpyriment,legacy,legacy,0,uniform,0,0,0,0,24,24,24,0,0,74,74,74,74,74,0,74,0,7,7,7,7,7,0,7,18-02-22,18-02-22,10:00:15,Fri Mar 18 2022 10:00:15 GMT+0100 (közép-európai téli idő),The main experiment item,yes,0,0,C:/Users/rrics/Documents/!!ResearchBMECOGSCI/gnet,0,0,0,prototype2.png,no,mono,no,18,no,black,no,no,768,1203,3.5.6,legacy,xpyriment,osweb,1.3.13,0,right,right,right,right,41385,21295,25077,41385,2,legacy,680,1280,24,720,24,0,0,1280,1647594077592,1024,2,48000,-16,experiment,p3sarrcol3.png,1,odd,Win32,177,133205,130194,176,177,648398,649914,643395,134723,643395,177,726131,727638,723138,649926,723138,visual_patterns,0,0,0,yes,1366
undefined,undefined,undefined,undefined,white,no,Mozilla,Netscape,"5.0 (Windows NT 10.0; Win64; x64) AppleWebKit/537.36 (KHTML, like Gecko) Chrome/99.0.4844.74 Safari/537.36",xpyriment,legacy,legacy,0,uniform,0,0,0,0,24,24,24,0,0,74,74,74,74,74,0,74,0,8,8,8,8,8,0,8,18-02-22,18-02-22,10:00:15,Fri Mar 18 2022 10:00:15 GMT+0100 (közép-európai téli idő),The main experiment item,yes,0,0,C:/Users/rrics/Documents/!!ResearchBMECOGSCI/gnet,0,0,0,prototype2.png,no,mono,no,18,no,black,no,no,768,1203,3.5.6,legacy,xpyriment,osweb,1.3.13,0,right,right,right,right,41385,21295,25077,41385,2,legacy,680,1280,24,720,24,0,0,1280,1647594077592,1024,2,48000,-16,experiment,p1sarrsha1.png,1,odd,Win32,177,133205,130194,176,177,648398,649914,643395,134723,643395,177,730664,732167,727661,649926,727661,visual_patterns,0,0,0,yes,1366
undefined,undefined,undefined,undefined,white,no,Mozilla,Netscape,"5.0 (Windows NT 10.0; Win64; x64) AppleWebKit/537.36 (KHTML, like Gecko) Chrome/99.0.4844.74 Safari/537.36",xpyriment,legacy,legacy,0,uniform,0,0,0,0,24,24,24,0,0,74,74,74,74,74,0,74,0,9,9,9,9,9,0,9,18-02-22,18-02-22,10:00:15,Fri Mar 18 2022 10:00:15 GMT+0100 (közép-európai téli idő),The main experiment item,yes,0,0,C:/Users/rrics/Documents/!!ResearchBMECOGSCI/gnet,0,0,0,prototype2.png,no,mono,no,18,no,black,no,no,768,1203,3.5.6,legacy,xpyriment,osweb,1.3.13,0,right,right,right,right,41385,21295,25077,41385,2,legacy,680,1280,24,720,24,0,0,1280,1647594077592,1024,2,48000,-16,experiment,p4sarr1.png,1,odd,Win32,177,133205,130194,176,177,648398,649914,643395,134723,643395,177,735187,736696,732189,649926,732189,visual_patterns,0,0,0,yes,1366
undefined,undefined,undefined,undefined,white,no,Mozilla,Netscape,"5.0 (Windows NT 10.0; Win64; x64) AppleWebKit/537.36 (KHTML, like Gecko) Chrome/99.0.4844.74 Safari/537.36",xpyriment,legacy,legacy,0,uniform,0,0,0,0,24,24,24,0,0,74,74,74,74,74,0,74,0,10,10,10,10,10,0,10,18-02-22,18-02-22,10:00:15,Fri Mar 18 2022 10:00:15 GMT+0100 (közép-európai téli idő),The main experiment item,yes,0,0,C:/Users/rrics/Documents/!!ResearchBMECOGSCI/gnet,0,0,0,prototype2.png,no,mono,no,18,no,black,no,no,768,1203,3.5.6,legacy,xpyriment,osweb,1.3.13,0,right,right,right,right,41385,21295,25077,41385,2,legacy,680,1280,24,720,24,0,0,1280,1647594077592,1024,2,48000,-16,experiment,p9sarr2.png,1,odd,Win32,177,133205,130194,176,177,648398,649914,643395,134723,643395,177,739726,741241,736722,649926,736722,visual_patterns,0,0,0,yes,1366
undefined,undefined,undefined,undefined,white,no,Mozilla,Netscape,"5.0 (Windows NT 10.0; Win64; x64) AppleWebKit/537.36 (KHTML, like Gecko) Chrome/99.0.4844.74 Safari/537.36",xpyriment,legacy,legacy,0,uniform,0,0,0,0,24,24,24,0,0,74,74,74,74,74,0,74,0,11,11,11,11,11,0,11,18-02-22,18-02-22,10:00:15,Fri Mar 18 2022 10:00:15 GMT+0100 (közép-európai téli idő),The main experiment item,yes,0,0,C:/Users/rrics/Documents/!!ResearchBMECOGSCI/gnet,0,0,0,prototype2.png,no,mono,no,18,no,black,no,no,768,1203,3.5.6,legacy,xpyriment,osweb,1.3.13,0,right,right,right,right,41385,21295,25077,41385,2,legacy,680,1280,24,720,24,0,0,1280,1647594077592,1024,2,48000,-16,experiment,p1sarr2.png,1,odd,Win32,177,133205,130194,176,177,648398,649914,643395,134723,643395,177,744253,745754,741249,649926,741249,visual_patterns,0,0,0,yes,1366
undefined,undefined,undefined,undefined,white,no,Mozilla,Netscape,"5.0 (Windows NT 10.0; Win64; x64) AppleWebKit/537.36 (KHTML, like Gecko) Chrome/99.0.4844.74 Safari/537.36",xpyriment,legacy,legacy,0,uniform,0,0,0,0,24,24,24,0,0,74,74,74,74,74,0,74,0,12,12,12,12,12,0,12,18-02-22,18-02-22,10:00:15,Fri Mar 18 2022 10:00:15 GMT+0100 (közép-európai téli idő),The main experiment item,yes,0,0,C:/Users/rrics/Documents/!!ResearchBMECOGSCI/gnet,0,0,0,prototype2.png,no,mono,no,18,no,black,no,no,768,1203,3.5.6,legacy,xpyriment,osweb,1.3.13,0,right,right,right,right,41385,21295,25077,41385,2,legacy,680,1280,24,720,24,0,0,1280,1647594077592,1024,2,48000,-16,experiment,p3sarrcol4.png,1,odd,Win32,177,133205,130194,176,177,648398,649914,643395,134723,643395,177,748775,750282,745779,649926,745779,visual_patterns,0,0,0,yes,1366
undefined,undefined,undefined,undefined,white,no,Mozilla,Netscape,"5.0 (Windows NT 10.0; Win64; x64) AppleWebKit/537.36 (KHTML, like Gecko) Chrome/99.0.4844.74 Safari/537.36",xpyriment,legacy,legacy,0,uniform,0,0,0,0,24,24,24,0,0,74,74,74,74,74,0,74,0,13,13,13,13,13,0,13,18-02-22,18-02-22,10:00:15,Fri Mar 18 2022 10:00:15 GMT+0100 (közép-európai téli idő),The main experiment item,yes,0,0,C:/Users/rrics/Documents/!!ResearchBMECOGSCI/gnet,0,0,0,prototype2.png,no,mono,no,18,no,black,no,no,768,1203,3.5.6,legacy,xpyriment,osweb,1.3.13,0,right,right,right,right,41385,21295,25077,41385,2,legacy,680,1280,24,720,24,0,0,1280,1647594077592,1024,2,48000,-16,experiment,p2sarrshacol2.png,1,odd,Win32,177,133205,130194,176,177,648398,649914,643395,134723,643395,177,753304,754811,750304,649926,750304,visual_patterns,0,0,0,yes,1366
undefined,undefined,undefined,undefined,white,no,Mozilla,Netscape,"5.0 (Windows NT 10.0; Win64; x64) AppleWebKit/537.36 (KHTML, like Gecko) Chrome/99.0.4844.74 Safari/537.36",xpyriment,legacy,legacy,0,uniform,0,0,0,0,24,24,24,0,0,74,74,74,74,74,0,74,0,14,14,14,14,14,0,14,18-02-22,18-02-22,10:00:15,Fri Mar 18 2022 10:00:15 GMT+0100 (közép-európai téli idő),The main experiment item,yes,0,0,C:/Users/rrics/Documents/!!ResearchBMECOGSCI/gnet,0,0,0,prototype2.png,no,mono,no,18,no,black,no,no,768,1203,3.5.6,legacy,xpyriment,osweb,1.3.13,0,right,right,right,right,41385,21295,25077,41385,2,legacy,680,1280,24,720,24,0,0,1280,1647594077592,1024,2,48000,-16,experiment,p6sarr1.png,1,odd,Win32,177,133205,130194,176,177,648398,649914,643395,134723,643395,177,757837,759340,754832,649926,754832,visual_patterns,0,0,0,yes,1366
undefined,undefined,undefined,undefined,white,no,Mozilla,Netscape,"5.0 (Windows NT 10.0; Win64; x64) AppleWebKit/537.36 (KHTML, like Gecko) Chrome/99.0.4844.74 Safari/537.36",xpyriment,legacy,legacy,0,uniform,0,0,0,0,24,24,24,0,0,74,74,74,74,74,0,74,0,15,15,15,15,15,0,15,18-02-22,18-02-22,10:00:15,Fri Mar 18 2022 10:00:15 GMT+0100 (közép-európai téli idő),The main experiment item,yes,0,0,C:/Users/rrics/Documents/!!ResearchBMECOGSCI/gnet,0,0,0,prototype2.png,no,mono,no,18,no,black,no,no,768,1203,3.5.6,legacy,xpyriment,osweb,1.3.13,0,right,right,right,right,41385,21295,25077,41385,2,legacy,680,1280,24,720,24,0,0,1280,1647594077592,1024,2,48000,-16,experiment,p4sarrshacol3.png,1,odd,Win32,177,133205,130194,176,177,648398,649914,643395,134723,643395,177,762414,763920,759412,649926,759412,visual_patterns,0,0,0,yes,1366
undefined,undefined,undefined,undefined,white,no,Mozilla,Netscape,"5.0 (Windows NT 10.0; Win64; x64) AppleWebKit/537.36 (KHTML, like Gecko) Chrome/99.0.4844.74 Safari/537.36",xpyriment,legacy,legacy,0,uniform,0,0,0,0,24,24,24,0,0,74,74,74,74,74,0,74,0,16,16,16,16,16,0,16,18-02-22,18-02-22,10:00:15,Fri Mar 18 2022 10:00:15 GMT+0100 (közép-európai téli idő),The main experiment item,yes,0,0,C:/Users/rrics/Documents/!!ResearchBMECOGSCI/gnet,0,0,0,prototype2.png,no,mono,no,18,no,black,no,no,768,1203,3.5.6,legacy,xpyriment,osweb,1.3.13,0,right,right,right,right,41385,21295,25077,41385,2,legacy,680,1280,24,720,24,0,0,1280,1647594077592,1024,2,48000,-16,experiment,p4sarrshacol4.png,1,odd,Win32,177,133205,130194,176,177,648398,649914,643395,134723,643395,177,766945,768448,763951,649926,763951,visual_patterns,0,0,0,yes,1366
undefined,undefined,undefined,undefined,white,no,Mozilla,Netscape,"5.0 (Windows NT 10.0; Win64; x64) AppleWebKit/537.36 (KHTML, like Gecko) Chrome/99.0.4844.74 Safari/537.36",xpyriment,legacy,legacy,0,uniform,0,0,0,0,24,24,24,0,0,74,74,74,74,74,0,74,0,17,17,17,17,17,0,17,18-02-22,18-02-22,10:00:15,Fri Mar 18 2022 10:00:15 GMT+0100 (közép-európai téli idő),The main experiment item,yes,0,0,C:/Users/rrics/Documents/!!ResearchBMECOGSCI/gnet,0,0,0,prototype2.png,no,mono,no,18,no,black,no,no,768,1203,3.5.6,legacy,xpyriment,osweb,1.3.13,0,right,right,right,right,41385,21295,25077,41385,2,legacy,680,1280,24,720,24,0,0,1280,1647594077592,1024,2,48000,-16,experiment,p2sarrcol1.png,1,odd,Win32,177,133205,130194,176,177,648398,649914,643395,134723,643395,177,771471,772976,768472,649926,768471,visual_patterns,0,0,0,yes,1366
undefined,undefined,undefined,undefined,white,no,Mozilla,Netscape,"5.0 (Windows NT 10.0; Win64; x64) AppleWebKit/537.36 (KHTML, like Gecko) Chrome/99.0.4844.74 Safari/537.36",xpyriment,legacy,legacy,0,uniform,0,0,0,0,24,24,24,0,0,74,74,74,74,74,0,74,0,18,18,18,18,18,0,18,18-02-22,18-02-22,10:00:15,Fri Mar 18 2022 10:00:15 GMT+0100 (közép-európai téli idő),The main experiment item,yes,0,0,C:/Users/rrics/Documents/!!ResearchBMECOGSCI/gnet,0,0,0,prototype2.png,no,mono,no,18,no,black,no,no,768,1203,3.5.6,legacy,xpyriment,osweb,1.3.13,0,right,right,right,right,41385,21295,25077,41385,2,legacy,680,1280,24,720,24,0,0,1280,1647594077592,1024,2,48000,-16,experiment,p1sarr4.png,1,odd,Win32,177,133205,130194,176,177,648398,649914,643395,134723,643395,177,775991,777506,772988,649926,772988,visual_patterns,0,0,0,yes,1366
undefined,undefined,undefined,undefined,white,no,Mozilla,Netscape,"5.0 (Windows NT 10.0; Win64; x64) AppleWebKit/537.36 (KHTML, like Gecko) Chrome/99.0.4844.74 Safari/537.36",xpyriment,legacy,legacy,0,uniform,0,0,0,0,24,24,24,0,0,74,74,74,74,74,0,74,0,19,19,19,19,19,0,19,18-02-22,18-02-22,10:00:15,Fri Mar 18 2022 10:00:15 GMT+0100 (közép-európai téli idő),The main experiment item,yes,0,0,C:/Users/rrics/Documents/!!ResearchBMECOGSCI/gnet,0,0,0,prototype2.png,no,mono,no,18,no,black,no,no,768,1203,3.5.6,legacy,xpyriment,osweb,1.3.13,0,right,right,right,right,41385,21295,25077,41385,2,legacy,680,1280,24,720,24,0,0,1280,1647594077592,1024,2,48000,-16,experiment,p10sarr1.png,1,odd,Win32,177,133205,130194,176,177,648398,649914,643395,134723,643395,177,780529,782035,777530,649926,777530,visual_patterns,0,0,0,yes,1366
undefined,undefined,undefined,undefined,white,no,Mozilla,Netscape,"5.0 (Windows NT 10.0; Win64; x64) AppleWebKit/537.36 (KHTML, like Gecko) Chrome/99.0.4844.74 Safari/537.36",xpyriment,legacy,legacy,0,uniform,0,0,0,0,24,24,24,0,0,74,74,74,74,74,0,74,0,20,20,20,20,20,0,20,18-02-22,18-02-22,10:00:15,Fri Mar 18 2022 10:00:15 GMT+0100 (közép-európai téli idő),The main experiment item,yes,0,0,C:/Users/rrics/Documents/!!ResearchBMECOGSCI/gnet,0,0,0,prototype2.png,no,mono,no,18,no,black,no,no,768,1203,3.5.6,legacy,xpyriment,osweb,1.3.13,0,right,right,right,right,41385,21295,25077,41385,2,legacy,680,1280,24,720,24,0,0,1280,1647594077592,1024,2,48000,-16,experiment,p8sarr3.png,1,odd,Win32,177,133205,130194,176,177,648398,649914,643395,134723,643395,177,785113,786630,782118,649926,782118,visual_patterns,0,0,0,yes,1366
undefined,undefined,undefined,undefined,white,no,Mozilla,Netscape,"5.0 (Windows NT 10.0; Win64; x64) AppleWebKit/537.36 (KHTML, like Gecko) Chrome/99.0.4844.74 Safari/537.36",xpyriment,legacy,legacy,0,uniform,0,0,0,0,24,24,24,0,0,74,74,74,74,74,0,74,0,21,21,21,21,21,0,21,18-02-22,18-02-22,10:00:15,Fri Mar 18 2022 10:00:15 GMT+0100 (közép-európai téli idő),The main experiment item,yes,0,0,C:/Users/rrics/Documents/!!ResearchBMECOGSCI/gnet,0,0,0,prototype2.png,no,mono,no,18,no,black,no,no,768,1203,3.5.6,legacy,xpyriment,osweb,1.3.13,0,right,right,right,right,41385,21295,25077,41385,2,legacy,680,1280,24,720,24,0,0,1280,1647594077592,1024,2,48000,-16,experiment,p9sarr4.png,1,odd,Win32,177,133205,130194,176,177,648398,649914,643395,134723,643395,177,789654,791159,786656,649926,786656,visual_patterns,0,0,0,yes,1366
undefined,undefined,undefined,undefined,white,no,Mozilla,Netscape,"5.0 (Windows NT 10.0; Win64; x64) AppleWebKit/537.36 (KHTML, like Gecko) Chrome/99.0.4844.74 Safari/537.36",xpyriment,legacy,legacy,0,uniform,0,0,0,0,24,24,24,0,0,74,74,74,74,74,0,74,0,22,22,22,22,22,0,22,18-02-22,18-02-22,10:00:15,Fri Mar 18 2022 10:00:15 GMT+0100 (közép-európai téli idő),The main experiment item,yes,0,0,C:/Users/rrics/Documents/!!ResearchBMECOGSCI/gnet,0,0,0,prototype2.png,no,mono,no,18,no,black,no,no,768,1203,3.5.6,legacy,xpyriment,osweb,1.3.13,0,right,right,right,right,41385,21295,25077,41385,2,legacy,680,1280,24,720,24,0,0,1280,1647594077592,1024,2,48000,-16,experiment,p5sarrcol2.png,1,odd,Win32,177,133205,130194,176,177,648398,649914,643395,134723,643395,177,794187,795688,791183,649926,791183,visual_patterns,0,0,0,yes,1366
undefined,undefined,undefined,undefined,white,no,Mozilla,Netscape,"5.0 (Windows NT 10.0; Win64; x64) AppleWebKit/537.36 (KHTML, like Gecko) Chrome/99.0.4844.74 Safari/537.36",xpyriment,legacy,legacy,0,uniform,0,0,0,0,24,24,24,0,0,74,74,74,74,74,0,74,0,23,23,23,23,23,0,23,18-02-22,18-02-22,10:00:15,Fri Mar 18 2022 10:00:15 GMT+0100 (közép-európai téli idő),The main experiment item,yes,0,0,C:/Users/rrics/Documents/!!ResearchBMECOGSCI/gnet,0,0,0,prototype2.png,no,mono,no,18,no,black,no,no,768,1203,3.5.6,legacy,xpyriment,osweb,1.3.13,0,right,right,right,right,41385,21295,25077,41385,2,legacy,680,1280,24,720,24,0,0,1280,1647594077592,1024,2,48000,-16,experiment,p7sarr4.png,1,odd,Win32,177,133205,130194,176,177,648398,649914,643395,134723,643395,177,798715,800217,795714,649926,795714,visual_patterns,0,0,0,yes,1366
undefined,undefined,undefined,undefined,white,no,Mozilla,Netscape,"5.0 (Windows NT 10.0; Win64; x64) AppleWebKit/537.36 (KHTML, like Gecko) Chrome/99.0.4844.74 Safari/537.36",xpyriment,legacy,legacy,0,uniform,0,0,0,0,24,24,24,0,0,74,74,74,74,74,0,74,0,24,24,24,24,24,0,24,18-02-22,18-02-22,10:00:15,Fri Mar 18 2022 10:00:15 GMT+0100 (közép-európai téli idő),The main experiment item,yes,0,0,C:/Users/rrics/Documents/!!ResearchBMECOGSCI/gnet,0,0,0,prototype2.png,no,mono,no,18,no,black,no,no,768,1203,3.5.6,legacy,xpyriment,osweb,1.3.13,0,right,right,right,right,41385,21295,25077,41385,2,legacy,680,1280,24,720,24,0,0,1280,1647594077592,1024,2,48000,-16,experiment,p3sarrsha3.png,1,odd,Win32,177,133205,130194,176,177,648398,649914,643395,134723,643395,177,803243,804746,800246,649926,800246,visual_patterns,0,0,0,yes,1366
undefined,undefined,undefined,undefined,white,no,Mozilla,Netscape,"5.0 (Windows NT 10.0; Win64; x64) AppleWebKit/537.36 (KHTML, like Gecko) Chrome/99.0.4844.74 Safari/537.36",xpyriment,legacy,legacy,0,uniform,0,0,0,0,24,24,24,0,0,74,74,74,74,74,0,74,0,25,25,25,25,25,0,25,18-02-22,18-02-22,10:00:15,Fri Mar 18 2022 10:00:15 GMT+0100 (közép-európai téli idő),The main experiment item,yes,0,0,C:/Users/rrics/Documents/!!ResearchBMECOGSCI/gnet,0,0,0,prototype2.png,no,mono,no,18,no,black,no,no,768,1203,3.5.6,legacy,xpyriment,osweb,1.3.13,0,right,right,right,right,41385,21295,25077,41385,2,legacy,680,1280,24,720,24,0,0,1280,1647594077592,1024,2,48000,-16,experiment,p8sarr4.png,1,odd,Win32,177,133205,130194,176,177,648398,649914,643395,134723,643395,177,807810,809325,804813,649926,804813,visual_patterns,0,0,0,yes,1366
undefined,undefined,undefined,undefined,white,no,Mozilla,Netscape,"5.0 (Windows NT 10.0; Win64; x64) AppleWebKit/537.36 (KHTML, like Gecko) Chrome/99.0.4844.74 Safari/537.36",xpyriment,legacy,legacy,0,uniform,0,0,0,0,24,24,24,0,0,74,74,74,74,74,0,74,0,26,26,26,26,26,0,26,18-02-22,18-02-22,10:00:15,Fri Mar 18 2022 10:00:15 GMT+0100 (közép-európai téli idő),The main experiment item,yes,0,0,C:/Users/rrics/Documents/!!ResearchBMECOGSCI/gnet,0,0,0,prototype2.png,no,mono,no,18,no,black,no,no,768,1203,3.5.6,legacy,xpyriment,osweb,1.3.13,0,right,right,right,right,41385,21295,25077,41385,2,legacy,680,1280,24,720,24,0,0,1280,1647594077592,1024,2,48000,-16,experiment,p2sarrshacol4.png,1,odd,Win32,177,133205,130194,176,177,648398,649914,643395,134723,643395,177,812348,813854,809349,649926,809349,visual_patterns,0,0,0,yes,1366
undefined,undefined,undefined,undefined,white,no,Mozilla,Netscape,"5.0 (Windows NT 10.0; Win64; x64) AppleWebKit/537.36 (KHTML, like Gecko) Chrome/99.0.4844.74 Safari/537.36",xpyriment,legacy,legacy,0,uniform,0,0,0,0,24,24,24,0,0,74,74,74,74,74,0,74,0,27,27,27,27,27,0,27,18-02-22,18-02-22,10:00:15,Fri Mar 18 2022 10:00:15 GMT+0100 (közép-európai téli idő),The main experiment item,yes,0,0,C:/Users/rrics/Documents/!!ResearchBMECOGSCI/gnet,0,0,0,prototype2.png,no,mono,no,18,no,black,no,no,768,1203,3.5.6,legacy,xpyriment,osweb,1.3.13,0,right,right,right,right,41385,21295,25077,41385,2,legacy,680,1280,24,720,24,0,0,1280,1647594077592,1024,2,48000,-16,experiment,p4sarrshacol1.png,1,odd,Win32,177,133205,130194,176,177,648398,649914,643395,134723,643395,177,816879,818383,813879,649926,813879,visual_patterns,0,0,0,yes,1366
undefined,undefined,undefined,undefined,white,no,Mozilla,Netscape,"5.0 (Windows NT 10.0; Win64; x64) AppleWebKit/537.36 (KHTML, like Gecko) Chrome/99.0.4844.74 Safari/537.36",xpyriment,legacy,legacy,0,uniform,0,0,0,0,24,24,24,0,0,74,74,74,74,74,0,74,0,28,28,28,28,28,0,28,18-02-22,18-02-22,10:00:15,Fri Mar 18 2022 10:00:15 GMT+0100 (közép-európai téli idő),The main experiment item,yes,0,0,C:/Users/rrics/Documents/!!ResearchBMECOGSCI/gnet,0,0,0,prototype2.png,no,mono,no,18,no,black,no,no,768,1203,3.5.6,legacy,xpyriment,osweb,1.3.13,0,right,right,right,right,41385,21295,25077,41385,2,legacy,680,1280,24,720,24,0,0,1280,1647594077592,1024,2,48000,-16,experiment,p1sarrshacol3.png,1,odd,Win32,177,133205,130194,176,177,648398,649914,643395,134723,643395,177,821405,822911,818408,649926,818408,visual_patterns,0,0,0,yes,1366
undefined,undefined,undefined,undefined,white,no,Mozilla,Netscape,"5.0 (Windows NT 10.0; Win64; x64) AppleWebKit/537.36 (KHTML, like Gecko) Chrome/99.0.4844.74 Safari/537.36",xpyriment,legacy,legacy,0,uniform,0,0,0,0,24,24,24,0,0,74,74,74,74,74,0,74,0,29,29,29,29,29,0,29,18-02-22,18-02-22,10:00:15,Fri Mar 18 2022 10:00:15 GMT+0100 (közép-európai téli idő),The main experiment item,yes,0,0,C:/Users/rrics/Documents/!!ResearchBMECOGSCI/gnet,0,0,0,prototype2.png,no,mono,no,18,no,black,no,no,768,1203,3.5.6,legacy,xpyriment,osweb,1.3.13,0,right,right,right,right,41385,21295,25077,41385,2,legacy,680,1280,24,720,24,0,0,1280,1647594077592,1024,2,48000,-16,experiment,p2sarrsha1.png,1,odd,Win32,177,133205,130194,176,177,648398,649914,643395,134723,643395,177,825938,827440,822933,649926,822933,visual_patterns,0,0,0,yes,1366
undefined,undefined,undefined,undefined,white,no,Mozilla,Netscape,"5.0 (Windows NT 10.0; Win64; x64) AppleWebKit/537.36 (KHTML, like Gecko) Chrome/99.0.4844.74 Safari/537.36",xpyriment,legacy,legacy,0,uniform,0,0,0,0,24,24,24,0,0,74,74,74,74,74,0,74,0,30,30,30,30,30,0,30,18-02-22,18-02-22,10:00:15,Fri Mar 18 2022 10:00:15 GMT+0100 (közép-európai téli idő),The main experiment item,yes,0,0,C:/Users/rrics/Documents/!!ResearchBMECOGSCI/gnet,0,0,0,prototype2.png,no,mono,no,18,no,black,no,no,768,1203,3.5.6,legacy,xpyriment,osweb,1.3.13,0,right,right,right,right,41385,21295,25077,41385,2,legacy,680,1280,24,720,24,0,0,1280,1647594077592,1024,2,48000,-16,experiment,p3sarr2.png,1,odd,Win32,177,133205,130194,176,177,648398,649914,643395,134723,643395,177,830513,832019,827511,649926,827510,visual_patterns,0,0,0,yes,1366
undefined,undefined,undefined,undefined,white,no,Mozilla,Netscape,"5.0 (Windows NT 10.0; Win64; x64) AppleWebKit/537.36 (KHTML, like Gecko) Chrome/99.0.4844.74 Safari/537.36",xpyriment,legacy,legacy,0,uniform,0,0,0,0,24,24,24,0,0,74,74,74,74,74,0,74,0,31,31,31,31,31,0,31,18-02-22,18-02-22,10:00:15,Fri Mar 18 2022 10:00:15 GMT+0100 (közép-európai téli idő),The main experiment item,yes,0,0,C:/Users/rrics/Documents/!!ResearchBMECOGSCI/gnet,0,0,0,prototype2.png,no,mono,no,18,no,black,no,no,768,1203,3.5.6,legacy,xpyriment,osweb,1.3.13,0,right,right,right,right,41385,21295,25077,41385,2,legacy,680,1280,24,720,24,0,0,1280,1647594077592,1024,2,48000,-16,experiment,p3sarrshacol3.png,1,odd,Win32,177,133205,130194,176,177,648398,649914,643395,134723,643395,177,835040,836548,832048,649926,832048,visual_patterns,0,0,0,yes,1366
undefined,undefined,undefined,undefined,white,no,Mozilla,Netscape,"5.0 (Windows NT 10.0; Win64; x64) AppleWebKit/537.36 (KHTML, like Gecko) Chrome/99.0.4844.74 Safari/537.36",xpyriment,legacy,legacy,0,uniform,0,0,0,0,24,24,24,0,0,74,74,74,74,74,0,74,0,32,32,32,32,32,0,32,18-02-22,18-02-22,10:00:15,Fri Mar 18 2022 10:00:15 GMT+0100 (közép-európai téli idő),The main experiment item,yes,0,0,C:/Users/rrics/Documents/!!ResearchBMECOGSCI/gnet,0,0,0,prototype2.png,no,mono,no,18,no,black,no,no,768,1203,3.5.6,legacy,xpyriment,osweb,1.3.13,0,right,right,right,right,41385,21295,25077,41385,2,legacy,680,1280,24,720,24,0,0,1280,1647594077592,1024,2,48000,-16,experiment,p2sarrcol4.png,1,odd,Win32,177,133205,130194,176,177,648398,649914,643395,134723,643395,177,839572,841077,836576,649926,836576,visual_patterns,0,0,0,yes,1366
undefined,undefined,undefined,undefined,white,no,Mozilla,Netscape,"5.0 (Windows NT 10.0; Win64; x64) AppleWebKit/537.36 (KHTML, like Gecko) Chrome/99.0.4844.74 Safari/537.36",xpyriment,legacy,legacy,0,uniform,0,0,0,0,24,24,24,0,0,74,74,74,74,74,0,74,0,33,33,33,33,33,0,33,18-02-22,18-02-22,10:00:15,Fri Mar 18 2022 10:00:15 GMT+0100 (közép-európai téli idő),The main experiment item,yes,0,0,C:/Users/rrics/Documents/!!ResearchBMECOGSCI/gnet,0,0,0,prototype2.png,no,mono,no,18,no,black,no,no,768,1203,3.5.6,legacy,xpyriment,osweb,1.3.13,0,right,right,right,right,41385,21295,25077,41385,2,legacy,680,1280,24,720,24,0,0,1280,1647594077592,1024,2,48000,-16,experiment,p5sarrcol1.png,1,odd,Win32,177,133205,130194,176,177,648398,649914,643395,134723,643395,177,844108,845622,841104,649926,841104,visual_patterns,0,0,0,yes,1366
undefined,undefined,undefined,undefined,white,no,Mozilla,Netscape,"5.0 (Windows NT 10.0; Win64; x64) AppleWebKit/537.36 (KHTML, like Gecko) Chrome/99.0.4844.74 Safari/537.36",xpyriment,legacy,legacy,0,uniform,0,0,0,0,24,24,24,0,0,74,74,74,74,74,0,74,0,34,34,34,34,34,0,34,18-02-22,18-02-22,10:00:15,Fri Mar 18 2022 10:00:15 GMT+0100 (közép-európai téli idő),The main experiment item,yes,0,0,C:/Users/rrics/Documents/!!ResearchBMECOGSCI/gnet,0,0,0,prototype2.png,no,mono,no,18,no,black,no,no,768,1203,3.5.6,legacy,xpyriment,osweb,1.3.13,0,right,right,right,right,41385,21295,25077,41385,2,legacy,680,1280,24,720,24,0,0,1280,1647594077592,1024,2,48000,-16,experiment,p8sarr2.png,1,odd,Win32,177,133205,130194,176,177,648398,649914,643395,134723,643395,177,848648,850151,845645,649926,845645,visual_patterns,0,0,0,yes,1366
undefined,undefined,undefined,undefined,white,no,Mozilla,Netscape,"5.0 (Windows NT 10.0; Win64; x64) AppleWebKit/537.36 (KHTML, like Gecko) Chrome/99.0.4844.74 Safari/537.36",xpyriment,legacy,legacy,0,uniform,0,0,0,0,24,24,24,0,0,74,74,74,74,74,0,74,0,35,35,35,35,35,0,35,18-02-22,18-02-22,10:00:15,Fri Mar 18 2022 10:00:15 GMT+0100 (közép-európai téli idő),The main experiment item,yes,0,0,C:/Users/rrics/Documents/!!ResearchBMECOGSCI/gnet,0,0,0,prototype2.png,no,mono,no,18,no,black,no,no,768,1203,3.5.6,legacy,xpyriment,osweb,1.3.13,0,right,right,right,right,41385,21295,25077,41385,2,legacy,680,1280,24,720,24,0,0,1280,1647594077592,1024,2,48000,-16,experiment,p5sarr3.png,1,odd,Win32,177,133205,130194,176,177,648398,649914,643395,134723,643395,177,853212,854714,850215,649926,850214,visual_patterns,0,0,0,yes,1366
undefined,undefined,undefined,undefined,white,no,Mozilla,Netscape,"5.0 (Windows NT 10.0; Win64; x64) AppleWebKit/537.36 (KHTML, like Gecko) Chrome/99.0.4844.74 Safari/537.36",xpyriment,legacy,legacy,0,uniform,0,0,0,0,24,24,24,0,0,74,74,74,74,74,0,74,0,36,36,36,36,36,0,36,18-02-22,18-02-22,10:00:15,Fri Mar 18 2022 10:00:15 GMT+0100 (közép-európai téli idő),The main experiment item,yes,0,0,C:/Users/rrics/Documents/!!ResearchBMECOGSCI/gnet,0,0,0,prototype2.png,no,mono,no,18,no,black,no,no,768,1203,3.5.6,legacy,xpyriment,osweb,1.3.13,0,right,right,right,right,41385,21295,25077,41385,2,legacy,680,1280,24,720,24,0,0,1280,1647594077592,1024,2,48000,-16,experiment,p7sarr1.png,1,odd,Win32,177,133205,130194,176,177,648398,649914,643395,134723,643395,177,857742,859259,854737,649926,854737,visual_patterns,0,0,0,yes,1366
undefined,undefined,undefined,undefined,white,no,Mozilla,Netscape,"5.0 (Windows NT 10.0; Win64; x64) AppleWebKit/537.36 (KHTML, like Gecko) Chrome/99.0.4844.74 Safari/537.36",xpyriment,legacy,legacy,0,uniform,0,0,0,0,24,24,24,0,0,74,74,74,74,74,0,74,0,37,37,37,37,37,0,37,18-02-22,18-02-22,10:00:15,Fri Mar 18 2022 10:00:15 GMT+0100 (közép-európai téli idő),The main experiment item,yes,0,0,C:/Users/rrics/Documents/!!ResearchBMECOGSCI/gnet,0,0,0,prototype2.png,no,mono,no,18,no,black,no,no,768,1203,3.5.6,legacy,xpyriment,osweb,1.3.13,0,right,right,right,right,41385,21295,25077,41385,2,legacy,680,1280,24,720,24,0,0,1280,1647594077592,1024,2,48000,-16,experiment,p1sarrcol4.png,1,odd,Win32,177,133205,130194,176,177,648398,649914,643395,134723,643395,177,862287,863788,859343,649926,859343,visual_patterns,0,0,0,yes,1366
undefined,undefined,undefined,undefined,white,no,Mozilla,Netscape,"5.0 (Windows NT 10.0; Win64; x64) AppleWebKit/537.36 (KHTML, like Gecko) Chrome/99.0.4844.74 Safari/537.36",xpyriment,legacy,legacy,0,uniform,0,0,0,0,24,24,24,0,0,74,74,74,74,74,0,74,0,38,38,38,38,38,0,38,18-02-22,18-02-22,10:00:15,Fri Mar 18 2022 10:00:15 GMT+0100 (közép-európai téli idő),The main experiment item,yes,0,0,C:/Users/rrics/Documents/!!ResearchBMECOGSCI/gnet,0,0,0,prototype2.png,no,mono,no,18,no,black,no,no,768,1203,3.5.6,legacy,xpyriment,osweb,1.3.13,0,right,right,right,right,41385,21295,25077,41385,2,legacy,680,1280,24,720,24,0,0,1280,1647594077592,1024,2,48000,-16,experiment,p3sarrsha4.png,1,odd,Win32,177,133205,130194,176,177,648398,649914,643395,134723,643395,177,866817,868333,863818,649926,863818,visual_patterns,0,0,0,yes,1366
undefined,undefined,undefined,undefined,white,no,Mozilla,Netscape,"5.0 (Windows NT 10.0; Win64; x64) AppleWebKit/537.36 (KHTML, like Gecko) Chrome/99.0.4844.74 Safari/537.36",xpyriment,legacy,legacy,0,uniform,0,0,0,0,24,24,24,0,0,74,74,74,74,74,0,74,0,39,39,39,39,39,0,39,18-02-22,18-02-22,10:00:15,Fri Mar 18 2022 10:00:15 GMT+0100 (közép-európai téli idő),The main experiment item,yes,0,0,C:/Users/rrics/Documents/!!ResearchBMECOGSCI/gnet,0,0,0,prototype2.png,no,mono,no,18,no,black,no,no,768,1203,3.5.6,legacy,xpyriment,osweb,1.3.13,0,right,right,right,right,41385,21295,25077,41385,2,legacy,680,1280,24,720,24,0,0,1280,1647594077592,1024,2,48000,-16,experiment,p3sarr1.png,1,odd,Win32,177,133205,130194,176,177,648398,649914,643395,134723,643395,177,871363,872879,868364,649926,868364,visual_patterns,0,0,0,yes,1366
undefined,undefined,undefined,undefined,white,no,Mozilla,Netscape,"5.0 (Windows NT 10.0; Win64; x64) AppleWebKit/537.36 (KHTML, like Gecko) Chrome/99.0.4844.74 Safari/537.36",xpyriment,legacy,legacy,0,uniform,0,0,0,0,24,24,24,0,0,74,74,74,74,74,0,74,0,40,40,40,40,40,0,40,18-02-22,18-02-22,10:00:15,Fri Mar 18 2022 10:00:15 GMT+0100 (közép-európai téli idő),The main experiment item,yes,0,0,C:/Users/rrics/Documents/!!ResearchBMECOGSCI/gnet,0,0,0,prototype2.png,no,mono,no,18,no,black,no,no,768,1203,3.5.6,legacy,xpyriment,osweb,1.3.13,0,right,right,right,right,41385,21295,25077,41385,2,legacy,680,1280,24,720,24,0,0,1280,1647594077592,1024,2,48000,-16,experiment,p2sarrsha3.png,1,odd,Win32,177,133205,130194,176,177,648398,649914,643395,134723,643395,177,875955,877458,872952,649926,872952,visual_patterns,0,0,0,yes,1366
undefined,undefined,undefined,undefined,white,no,Mozilla,Netscape,"5.0 (Windows NT 10.0; Win64; x64) AppleWebKit/537.36 (KHTML, like Gecko) Chrome/99.0.4844.74 Safari/537.36",xpyriment,legacy,legacy,0,uniform,0,0,0,0,24,24,24,0,0,74,74,74,74,74,0,74,0,41,41,41,41,41,0,41,18-02-22,18-02-22,10:00:15,Fri Mar 18 2022 10:00:15 GMT+0100 (közép-európai téli idő),The main experiment item,yes,0,0,C:/Users/rrics/Documents/!!ResearchBMECOGSCI/gnet,0,0,0,prototype2.png,no,mono,no,18,no,black,no,no,768,1203,3.5.6,legacy,xpyriment,osweb,1.3.13,0,right,right,right,right,41385,21295,25077,41385,2,legacy,680,1280,24,720,24,0,0,1280,1647594077592,1024,2,48000,-16,experiment,p9sarr3.png,1,odd,Win32,177,133205,130194,176,177,648398,649914,643395,134723,643395,177,880483,881987,877483,649926,877483,visual_patterns,0,0,0,yes,1366
undefined,undefined,undefined,undefined,white,no,Mozilla,Netscape,"5.0 (Windows NT 10.0; Win64; x64) AppleWebKit/537.36 (KHTML, like Gecko) Chrome/99.0.4844.74 Safari/537.36",xpyriment,legacy,legacy,0,uniform,0,0,0,0,24,24,24,0,0,74,74,74,74,74,0,74,0,42,42,42,42,42,0,42,18-02-22,18-02-22,10:00:15,Fri Mar 18 2022 10:00:15 GMT+0100 (közép-európai téli idő),The main experiment item,yes,0,0,C:/Users/rrics/Documents/!!ResearchBMECOGSCI/gnet,0,0,0,prototype2.png,no,mono,no,18,no,black,no,no,768,1203,3.5.6,legacy,xpyriment,osweb,1.3.13,0,right,right,right,right,41385,21295,25077,41385,2,legacy,680,1280,24,720,24,0,0,1280,1647594077592,1024,2,48000,-16,experiment,p10sarr4.png,1,odd,Win32,177,133205,130194,176,177,648398,649914,643395,134723,643395,177,885008,886516,882012,649926,882012,visual_patterns,0,0,0,yes,1366
undefined,undefined,undefined,undefined,white,no,Mozilla,Netscape,"5.0 (Windows NT 10.0; Win64; x64) AppleWebKit/537.36 (KHTML, like Gecko) Chrome/99.0.4844.74 Safari/537.36",xpyriment,legacy,legacy,0,uniform,0,0,0,0,24,24,24,0,0,74,74,74,74,74,0,74,0,43,43,43,43,43,0,43,18-02-22,18-02-22,10:00:15,Fri Mar 18 2022 10:00:15 GMT+0100 (közép-európai téli idő),The main experiment item,yes,0,0,C:/Users/rrics/Documents/!!ResearchBMECOGSCI/gnet,0,0,0,prototype2.png,no,mono,no,18,no,black,no,no,768,1203,3.5.6,legacy,xpyriment,osweb,1.3.13,0,right,right,right,right,41385,21295,25077,41385,2,legacy,680,1280,24,720,24,0,0,1280,1647594077592,1024,2,48000,-16,experiment,p4sarrcol1.png,1,odd,Win32,177,133205,130194,176,177,648398,649914,643395,134723,643395,177,889542,891045,886539,649926,886538,visual_patterns,0,0,0,yes,1366
undefined,undefined,undefined,undefined,white,no,Mozilla,Netscape,"5.0 (Windows NT 10.0; Win64; x64) AppleWebKit/537.36 (KHTML, like Gecko) Chrome/99.0.4844.74 Safari/537.36",xpyriment,legacy,legacy,0,uniform,0,0,0,0,24,24,24,0,0,74,74,74,74,74,0,74,0,44,44,44,44,44,0,44,18-02-22,18-02-22,10:00:15,Fri Mar 18 2022 10:00:15 GMT+0100 (közép-európai téli idő),The main experiment item,yes,0,0,C:/Users/rrics/Documents/!!ResearchBMECOGSCI/gnet,0,0,0,prototype2.png,no,mono,no,18,no,black,no,no,768,1203,3.5.6,legacy,xpyriment,osweb,1.3.13,0,right,right,right,right,41385,21295,25077,41385,2,legacy,680,1280,24,720,24,0,0,1280,1647594077592,1024,2,48000,-16,experiment,p5sarrshacol4.png,1,odd,Win32,177,133205,130194,176,177,648398,649914,643395,134723,643395,177,894072,895573,891074,649926,891074,visual_patterns,0,0,0,yes,1366
undefined,undefined,undefined,undefined,white,no,Mozilla,Netscape,"5.0 (Windows NT 10.0; Win64; x64) AppleWebKit/537.36 (KHTML, like Gecko) Chrome/99.0.4844.74 Safari/537.36",xpyriment,legacy,legacy,0,uniform,0,0,0,0,24,24,24,0,0,74,74,74,74,74,0,74,0,45,45,45,45,45,0,45,18-02-22,18-02-22,10:00:15,Fri Mar 18 2022 10:00:15 GMT+0100 (közép-európai téli idő),The main experiment item,yes,0,0,C:/Users/rrics/Documents/!!ResearchBMECOGSCI/gnet,0,0,0,prototype2.png,no,mono,no,18,no,black,no,no,768,1203,3.5.6,legacy,xpyriment,osweb,1.3.13,0,right,right,right,right,41385,21295,25077,41385,2,legacy,680,1280,24,720,24,0,0,1280,1647594077592,1024,2,48000,-16,experiment,p3sarr3.png,1,odd,Win32,177,133205,130194,176,177,648398,649914,643395,134723,643395,177,898634,900135,895634,649926,895634,visual_patterns,0,0,0,yes,1366
undefined,undefined,undefined,undefined,white,no,Mozilla,Netscape,"5.0 (Windows NT 10.0; Win64; x64) AppleWebKit/537.36 (KHTML, like Gecko) Chrome/99.0.4844.74 Safari/537.36",xpyriment,legacy,legacy,0,uniform,0,0,0,0,24,24,24,0,0,74,74,74,74,74,0,74,0,46,46,46,46,46,0,46,18-02-22,18-02-22,10:00:15,Fri Mar 18 2022 10:00:15 GMT+0100 (közép-európai téli idő),The main experiment item,yes,0,0,C:/Users/rrics/Documents/!!ResearchBMECOGSCI/gnet,0,0,0,prototype2.png,no,mono,no,18,no,black,no,no,768,1203,3.5.6,legacy,xpyriment,osweb,1.3.13,0,right,right,right,right,41385,21295,25077,41385,2,legacy,680,1280,24,720,24,0,0,1280,1647594077592,1024,2,48000,-16,experiment,p2sarr3.png,1,odd,Win32,177,133205,130194,176,177,648398,649914,643395,134723,643395,177,903145,904648,900146,649926,900146,visual_patterns,0,0,0,yes,1366
undefined,undefined,undefined,undefined,white,no,Mozilla,Netscape,"5.0 (Windows NT 10.0; Win64; x64) AppleWebKit/537.36 (KHTML, like Gecko) Chrome/99.0.4844.74 Safari/537.36",xpyriment,legacy,legacy,0,uniform,0,0,0,0,24,24,24,0,0,74,74,74,74,74,0,74,0,47,47,47,47,47,0,47,18-02-22,18-02-22,10:00:15,Fri Mar 18 2022 10:00:15 GMT+0100 (közép-európai téli idő),The main experiment item,yes,0,0,C:/Users/rrics/Documents/!!ResearchBMECOGSCI/gnet,0,0,0,prototype2.png,no,mono,no,18,no,black,no,no,768,1203,3.5.6,legacy,xpyriment,osweb,1.3.13,0,right,right,right,right,41385,21295,25077,41385,2,legacy,680,1280,24,720,24,0,0,1280,1647594077592,1024,2,48000,-16,experiment,p4sarr2.png,1,odd,Win32,177,133205,130194,176,177,648398,649914,643395,134723,643395,177,907668,909177,904668,649926,904667,visual_patterns,0,0,0,yes,1366
undefined,undefined,undefined,undefined,white,no,Mozilla,Netscape,"5.0 (Windows NT 10.0; Win64; x64) AppleWebKit/537.36 (KHTML, like Gecko) Chrome/99.0.4844.74 Safari/537.36",xpyriment,legacy,legacy,0,uniform,0,0,0,0,24,24,24,0,0,74,74,74,74,74,0,74,0,48,48,48,48,48,0,48,18-02-22,18-02-22,10:00:15,Fri Mar 18 2022 10:00:15 GMT+0100 (közép-európai téli idő),The main experiment item,yes,0,0,C:/Users/rrics/Documents/!!ResearchBMECOGSCI/gnet,0,0,0,prototype2.png,no,mono,no,18,no,black,no,no,768,1203,3.5.6,legacy,xpyriment,osweb,1.3.13,0,right,right,right,right,41385,21295,25077,41385,2,legacy,680,1280,24,720,24,0,0,1280,1647594077592,1024,2,48000,-16,experiment,p2sarrshacol3.png,1,odd,Win32,177,133205,130194,176,177,648398,649914,643395,134723,643395,177,912198,913706,909205,649926,909204,visual_patterns,0,0,0,yes,1366
