acc,accuracy,average_response_time,avg_rt,background,bidi,browser_codename,browser_name,browser_version,canvas_backend,clock_backend,color_backend,compensation,coordinates,count_end,count_experiment,count_osweb,count_prestudy,count_prestudy_isi,count_prestudy_sequence,count_prestudy_stimpres,count_start,count_study,count_study_coroutines,count_study_isi,count_study_logger,count_study_response,count_study_sequence,count_study_start,count_study_stimpres,count_test,count_test_coroutines,count_test_isi,count_test_logger,count_test_response,count_test_sequence,count_test_start,count_test_stimpres,date_startdate,date_startdateUTC,date_starttime,datetime,description,disable_garbage_collection,experiment_debug,experiment_parameters,experiment_path,experiment_pilot,experiment_taskname,experiment_taskversion,fampict,font_bold,font_family,font_italic,font_size,font_underline,foreground,form_clicks,fullscreen,height,jatosStudyResultId,jatosVersion,keyboard_backend,mouse_backend,opensesame_codename,opensesame_version,repeat_cycle,response,response_start,response_study_start,response_test_start,response_time,response_time_start,response_time_study_start,response_time_test_start,round_decimals,sampler_backend,screen_availableHeight,screen_availableWidth,screen_colorDepth,screen_height,screen_pixelDepth,screen_screenX,screen_screenY,screen_width,sessionid,sound_buf_size,sound_channels,sound_freq,sound_sample_size,start,stim,subject_nr,subject_parity,system_os,time_prestudy,time_prestudy_isi,time_prestudy_stimpres,time_start,time_study,time_study_isi,time_study_logger,time_study_response,time_study_start,time_study_stimpres,time_test,time_test_isi,time_test_logger,time_test_response,time_test_start,time_test_stimpres,title,total_correct,total_response_time,total_responses,uniform_coordinates,width
undefined,undefined,undefined,undefined,white,no,Mozilla,Netscape,"5.0 (Windows NT 10.0; Win64; x64) AppleWebKit/537.36 (KHTML, like Gecko) Chrome/99.0.4844.51 Safari/537.36 Edg/99.0.1150.39",xpyriment,legacy,legacy,0,uniform,0,0,0,0,24,24,24,0,0,0,0,0,0,0,0,0,0,,,,,,0,,18-02-22,18-02-22,11:03:26,Fri Mar 18 2022 11:03:26 GMT+0100 (közép-európai téli idő),The main experiment item,yes,0,0,C:/Users/rrics/Documents/!!ResearchBMECOGSCI/gnet,0,0,0,prototype4.png,no,mono,no,18,no,black,no,no,768,1204,3.5.6,legacy,xpyriment,osweb,1.3.13,0,space,space,space,,34384,63602,34384,,2,legacy,824,1536,24,864,24,0,0,1536,1647597839628,1024,2,48000,-16,experiment,p6sarr1.png,0,even,Win32,121,175427,172422,121,121,216352,217857,211350,176944,211350,121,,,,,,visual_patterns,0,0,0,yes,1366
undefined,undefined,undefined,undefined,white,no,Mozilla,Netscape,"5.0 (Windows NT 10.0; Win64; x64) AppleWebKit/537.36 (KHTML, like Gecko) Chrome/99.0.4844.51 Safari/537.36 Edg/99.0.1150.39",xpyriment,legacy,legacy,0,uniform,0,0,0,0,24,24,24,0,0,1,1,1,1,1,0,1,0,,,,,,0,,18-02-22,18-02-22,11:03:26,Fri Mar 18 2022 11:03:26 GMT+0100 (közép-európai téli idő),The main experiment item,yes,0,0,C:/Users/rrics/Documents/!!ResearchBMECOGSCI/gnet,0,0,0,prototype4.png,no,mono,no,18,no,black,no,no,768,1204,3.5.6,legacy,xpyriment,osweb,1.3.13,0,space,space,space,,34384,63602,34384,,2,legacy,824,1536,24,864,24,0,0,1536,1647597839628,1024,2,48000,-16,experiment,prototype3.png,0,even,Win32,121,175427,172422,121,121,222873,224383,217870,176944,217870,121,,,,,,visual_patterns,0,0,0,yes,1366
undefined,undefined,undefined,undefined,white,no,Mozilla,Netscape,"5.0 (Windows NT 10.0; Win64; x64) AppleWebKit/537.36 (KHTML, like Gecko) Chrome/99.0.4844.51 Safari/537.36 Edg/99.0.1150.39",xpyriment,legacy,legacy,0,uniform,0,0,0,0,24,24,24,0,0,2,2,2,2,2,0,2,0,,,,,,0,,18-02-22,18-02-22,11:03:26,Fri Mar 18 2022 11:03:26 GMT+0100 (közép-európai téli idő),The main experiment item,yes,0,0,C:/Users/rrics/Documents/!!ResearchBMECOGSCI/gnet,0,0,0,prototype4.png,no,mono,no,18,no,black,no,no,768,1204,3.5.6,legacy,xpyriment,osweb,1.3.13,0,space,space,space,,34384,63602,34384,,2,legacy,824,1536,24,864,24,0,0,1536,1647597839628,1024,2,48000,-16,experiment,p3sarr1.png,0,even,Win32,121,175427,172422,121,121,229394,230911,224396,176944,224396,121,,,,,,visual_patterns,0,0,0,yes,1366
undefined,undefined,undefined,undefined,white,no,Mozilla,Netscape,"5.0 (Windows NT 10.0; Win64; x64) AppleWebKit/537.36 (KHTML, like Gecko) Chrome/99.0.4844.51 Safari/537.36 Edg/99.0.1150.39",xpyriment,legacy,legacy,0,uniform,0,0,0,0,24,24,24,0,0,3,3,3,3,3,0,3,0,,,,,,0,,18-02-22,18-02-22,11:03:26,Fri Mar 18 2022 11:03:26 GMT+0100 (közép-európai téli idő),The main experiment item,yes,0,0,C:/Users/rrics/Documents/!!ResearchBMECOGSCI/gnet,0,0,0,prototype4.png,no,mono,no,18,no,black,no,no,768,1204,3.5.6,legacy,xpyriment,osweb,1.3.13,0,space,space,space,,34384,63602,34384,,2,legacy,824,1536,24,864,24,0,0,1536,1647597839628,1024,2,48000,-16,experiment,p9sarr2.png,0,even,Win32,121,175427,172422,121,121,235919,237422,230923,176944,230923,121,,,,,,visual_patterns,0,0,0,yes,1366
undefined,undefined,undefined,undefined,white,no,Mozilla,Netscape,"5.0 (Windows NT 10.0; Win64; x64) AppleWebKit/537.36 (KHTML, like Gecko) Chrome/99.0.4844.51 Safari/537.36 Edg/99.0.1150.39",xpyriment,legacy,legacy,0,uniform,0,0,0,0,24,24,24,0,0,4,4,4,4,4,0,4,0,,,,,,0,,18-02-22,18-02-22,11:03:26,Fri Mar 18 2022 11:03:26 GMT+0100 (közép-európai téli idő),The main experiment item,yes,0,0,C:/Users/rrics/Documents/!!ResearchBMECOGSCI/gnet,0,0,0,prototype4.png,no,mono,no,18,no,black,no,no,768,1204,3.5.6,legacy,xpyriment,osweb,1.3.13,0,space,space,space,,34384,63602,34384,,2,legacy,824,1536,24,864,24,0,0,1536,1647597839628,1024,2,48000,-16,experiment,p4sarr2.png,0,even,Win32,121,175427,172422,121,121,242435,243950,237435,176944,237435,121,,,,,,visual_patterns,0,0,0,yes,1366
undefined,undefined,undefined,undefined,white,no,Mozilla,Netscape,"5.0 (Windows NT 10.0; Win64; x64) AppleWebKit/537.36 (KHTML, like Gecko) Chrome/99.0.4844.51 Safari/537.36 Edg/99.0.1150.39",xpyriment,legacy,legacy,0,uniform,0,0,0,0,24,24,24,0,0,5,5,5,5,5,0,5,0,,,,,,0,,18-02-22,18-02-22,11:03:26,Fri Mar 18 2022 11:03:26 GMT+0100 (közép-európai téli idő),The main experiment item,yes,0,0,C:/Users/rrics/Documents/!!ResearchBMECOGSCI/gnet,0,0,0,prototype4.png,no,mono,no,18,no,black,no,no,768,1204,3.5.6,legacy,xpyriment,osweb,1.3.13,0,space,space,space,,34384,63602,34384,,2,legacy,824,1536,24,864,24,0,0,1536,1647597839628,1024,2,48000,-16,experiment,p4sarrshacol2.png,0,even,Win32,121,175427,172422,121,121,248962,250478,243962,176944,243962,121,,,,,,visual_patterns,0,0,0,yes,1366
undefined,undefined,undefined,undefined,white,no,Mozilla,Netscape,"5.0 (Windows NT 10.0; Win64; x64) AppleWebKit/537.36 (KHTML, like Gecko) Chrome/99.0.4844.51 Safari/537.36 Edg/99.0.1150.39",xpyriment,legacy,legacy,0,uniform,0,0,0,0,24,24,24,0,0,6,6,6,6,6,0,6,0,,,,,,0,,18-02-22,18-02-22,11:03:26,Fri Mar 18 2022 11:03:26 GMT+0100 (közép-európai téli idő),The main experiment item,yes,0,0,C:/Users/rrics/Documents/!!ResearchBMECOGSCI/gnet,0,0,0,prototype4.png,no,mono,no,18,no,black,no,no,768,1204,3.5.6,legacy,xpyriment,osweb,1.3.13,0,space,space,space,,34384,63602,34384,,2,legacy,824,1536,24,864,24,0,0,1536,1647597839628,1024,2,48000,-16,experiment,p5sarrsha2.png,0,even,Win32,121,175427,172422,121,121,255489,257005,250485,176944,250485,121,,,,,,visual_patterns,0,0,0,yes,1366
undefined,undefined,undefined,undefined,white,no,Mozilla,Netscape,"5.0 (Windows NT 10.0; Win64; x64) AppleWebKit/537.36 (KHTML, like Gecko) Chrome/99.0.4844.51 Safari/537.36 Edg/99.0.1150.39",xpyriment,legacy,legacy,0,uniform,0,0,0,0,24,24,24,0,0,7,7,7,7,7,0,7,0,,,,,,0,,18-02-22,18-02-22,11:03:26,Fri Mar 18 2022 11:03:26 GMT+0100 (közép-európai téli idő),The main experiment item,yes,0,0,C:/Users/rrics/Documents/!!ResearchBMECOGSCI/gnet,0,0,0,prototype4.png,no,mono,no,18,no,black,no,no,768,1204,3.5.6,legacy,xpyriment,osweb,1.3.13,0,space,space,space,,34384,63602,34384,,2,legacy,824,1536,24,864,24,0,0,1536,1647597839628,1024,2,48000,-16,experiment,p2sarr1.png,0,even,Win32,121,175427,172422,121,121,262014,263516,257016,176944,257016,121,,,,,,visual_patterns,0,0,0,yes,1366
undefined,undefined,undefined,undefined,white,no,Mozilla,Netscape,"5.0 (Windows NT 10.0; Win64; x64) AppleWebKit/537.36 (KHTML, like Gecko) Chrome/99.0.4844.51 Safari/537.36 Edg/99.0.1150.39",xpyriment,legacy,legacy,0,uniform,0,0,0,0,24,24,24,0,0,8,8,8,8,8,0,8,0,,,,,,0,,18-02-22,18-02-22,11:03:26,Fri Mar 18 2022 11:03:26 GMT+0100 (közép-európai téli idő),The main experiment item,yes,0,0,C:/Users/rrics/Documents/!!ResearchBMECOGSCI/gnet,0,0,0,prototype4.png,no,mono,no,18,no,black,no,no,768,1204,3.5.6,legacy,xpyriment,osweb,1.3.13,0,space,space,space,,34384,63602,34384,,2,legacy,824,1536,24,864,24,0,0,1536,1647597839628,1024,2,48000,-16,experiment,prototype4.png,0,even,Win32,121,175427,172422,121,121,268528,270044,263525,176944,263525,121,,,,,,visual_patterns,0,0,0,yes,1366
undefined,undefined,undefined,undefined,white,no,Mozilla,Netscape,"5.0 (Windows NT 10.0; Win64; x64) AppleWebKit/537.36 (KHTML, like Gecko) Chrome/99.0.4844.51 Safari/537.36 Edg/99.0.1150.39",xpyriment,legacy,legacy,0,uniform,0,0,0,0,24,24,24,0,0,9,9,9,9,9,0,9,0,,,,,,0,,18-02-22,18-02-22,11:03:26,Fri Mar 18 2022 11:03:26 GMT+0100 (közép-európai téli idő),The main experiment item,yes,0,0,C:/Users/rrics/Documents/!!ResearchBMECOGSCI/gnet,0,0,0,prototype4.png,no,mono,no,18,no,black,no,no,768,1204,3.5.6,legacy,xpyriment,osweb,1.3.13,0,space,space,space,,34384,63602,34384,,2,legacy,824,1536,24,864,24,0,0,1536,1647597839628,1024,2,48000,-16,experiment,p5sarrsha1.png,0,even,Win32,121,175427,172422,121,121,275056,276571,270052,176944,270052,121,,,,,,visual_patterns,0,0,0,yes,1366
undefined,undefined,undefined,undefined,white,no,Mozilla,Netscape,"5.0 (Windows NT 10.0; Win64; x64) AppleWebKit/537.36 (KHTML, like Gecko) Chrome/99.0.4844.51 Safari/537.36 Edg/99.0.1150.39",xpyriment,legacy,legacy,0,uniform,0,0,0,0,24,24,24,0,0,10,10,10,10,10,0,10,0,,,,,,0,,18-02-22,18-02-22,11:03:26,Fri Mar 18 2022 11:03:26 GMT+0100 (közép-európai téli idő),The main experiment item,yes,0,0,C:/Users/rrics/Documents/!!ResearchBMECOGSCI/gnet,0,0,0,prototype4.png,no,mono,no,18,no,black,no,no,768,1204,3.5.6,legacy,xpyriment,osweb,1.3.13,0,space,space,space,,34384,63602,34384,,2,legacy,824,1536,24,864,24,0,0,1536,1647597839628,1024,2,48000,-16,experiment,p5sarrcol1.png,0,even,Win32,121,175427,172422,121,121,281584,283099,276583,176944,276583,121,,,,,,visual_patterns,0,0,0,yes,1366
undefined,undefined,undefined,undefined,white,no,Mozilla,Netscape,"5.0 (Windows NT 10.0; Win64; x64) AppleWebKit/537.36 (KHTML, like Gecko) Chrome/99.0.4844.51 Safari/537.36 Edg/99.0.1150.39",xpyriment,legacy,legacy,0,uniform,0,0,0,0,24,24,24,0,0,11,11,11,11,11,0,11,0,,,,,,0,,18-02-22,18-02-22,11:03:26,Fri Mar 18 2022 11:03:26 GMT+0100 (közép-európai téli idő),The main experiment item,yes,0,0,C:/Users/rrics/Documents/!!ResearchBMECOGSCI/gnet,0,0,0,prototype4.png,no,mono,no,18,no,black,no,no,768,1204,3.5.6,legacy,xpyriment,osweb,1.3.13,0,space,space,space,,34384,63602,34384,,2,legacy,824,1536,24,864,24,0,0,1536,1647597839628,1024,2,48000,-16,experiment,p8sarr2.png,0,even,Win32,121,175427,172422,121,121,288112,289626,283111,176944,283111,121,,,,,,visual_patterns,0,0,0,yes,1366
undefined,undefined,undefined,undefined,white,no,Mozilla,Netscape,"5.0 (Windows NT 10.0; Win64; x64) AppleWebKit/537.36 (KHTML, like Gecko) Chrome/99.0.4844.51 Safari/537.36 Edg/99.0.1150.39",xpyriment,legacy,legacy,0,uniform,0,0,0,0,24,24,24,0,0,12,12,12,12,12,0,12,0,,,,,,0,,18-02-22,18-02-22,11:03:26,Fri Mar 18 2022 11:03:26 GMT+0100 (közép-európai téli idő),The main experiment item,yes,0,0,C:/Users/rrics/Documents/!!ResearchBMECOGSCI/gnet,0,0,0,prototype4.png,no,mono,no,18,no,black,no,no,768,1204,3.5.6,legacy,xpyriment,osweb,1.3.13,0,space,space,space,,34384,63602,34384,,2,legacy,824,1536,24,864,24,0,0,1536,1647597839628,1024,2,48000,-16,experiment,p5sarrshacol2.png,0,even,Win32,121,175427,172422,121,121,294639,296154,289637,176944,289637,121,,,,,,visual_patterns,0,0,0,yes,1366
undefined,undefined,undefined,undefined,white,no,Mozilla,Netscape,"5.0 (Windows NT 10.0; Win64; x64) AppleWebKit/537.36 (KHTML, like Gecko) Chrome/99.0.4844.51 Safari/537.36 Edg/99.0.1150.39",xpyriment,legacy,legacy,0,uniform,0,0,0,0,24,24,24,0,0,13,13,13,13,13,0,13,0,,,,,,0,,18-02-22,18-02-22,11:03:26,Fri Mar 18 2022 11:03:26 GMT+0100 (közép-európai téli idő),The main experiment item,yes,0,0,C:/Users/rrics/Documents/!!ResearchBMECOGSCI/gnet,0,0,0,prototype4.png,no,mono,no,18,no,black,no,no,768,1204,3.5.6,legacy,xpyriment,osweb,1.3.13,0,space,space,space,,34384,63602,34384,,2,legacy,824,1536,24,864,24,0,0,1536,1647597839628,1024,2,48000,-16,experiment,p8sarr1.png,0,even,Win32,121,175427,172422,121,121,301178,302682,296177,176944,296177,121,,,,,,visual_patterns,0,0,0,yes,1366
undefined,undefined,undefined,undefined,white,no,Mozilla,Netscape,"5.0 (Windows NT 10.0; Win64; x64) AppleWebKit/537.36 (KHTML, like Gecko) Chrome/99.0.4844.51 Safari/537.36 Edg/99.0.1150.39",xpyriment,legacy,legacy,0,uniform,0,0,0,0,24,24,24,0,0,14,14,14,14,14,0,14,0,,,,,,0,,18-02-22,18-02-22,11:03:26,Fri Mar 18 2022 11:03:26 GMT+0100 (közép-európai téli idő),The main experiment item,yes,0,0,C:/Users/rrics/Documents/!!ResearchBMECOGSCI/gnet,0,0,0,prototype4.png,no,mono,no,18,no,black,no,no,768,1204,3.5.6,legacy,xpyriment,osweb,1.3.13,0,space,space,space,,34384,63602,34384,,2,legacy,824,1536,24,864,24,0,0,1536,1647597839628,1024,2,48000,-16,experiment,p3sarrcol1.png,0,even,Win32,121,175427,172422,121,121,307690,309193,302693,176944,302693,121,,,,,,visual_patterns,0,0,0,yes,1366
undefined,undefined,undefined,undefined,white,no,Mozilla,Netscape,"5.0 (Windows NT 10.0; Win64; x64) AppleWebKit/537.36 (KHTML, like Gecko) Chrome/99.0.4844.51 Safari/537.36 Edg/99.0.1150.39",xpyriment,legacy,legacy,0,uniform,0,0,0,0,24,24,24,0,0,15,15,15,15,15,0,15,0,,,,,,0,,18-02-22,18-02-22,11:03:26,Fri Mar 18 2022 11:03:26 GMT+0100 (közép-európai téli idő),The main experiment item,yes,0,0,C:/Users/rrics/Documents/!!ResearchBMECOGSCI/gnet,0,0,0,prototype4.png,no,mono,no,18,no,black,no,no,768,1204,3.5.6,legacy,xpyriment,osweb,1.3.13,0,space,space,space,,34384,63602,34384,,2,legacy,824,1536,24,864,24,0,0,1536,1647597839628,1024,2,48000,-16,experiment,prototype1.png,0,even,Win32,121,175427,172422,121,121,314204,315720,309203,176944,309203,121,,,,,,visual_patterns,0,0,0,yes,1366
undefined,undefined,undefined,undefined,white,no,Mozilla,Netscape,"5.0 (Windows NT 10.0; Win64; x64) AppleWebKit/537.36 (KHTML, like Gecko) Chrome/99.0.4844.51 Safari/537.36 Edg/99.0.1150.39",xpyriment,legacy,legacy,0,uniform,0,0,0,0,24,24,24,0,0,16,16,16,16,16,0,16,0,,,,,,0,,18-02-22,18-02-22,11:03:26,Fri Mar 18 2022 11:03:26 GMT+0100 (közép-európai téli idő),The main experiment item,yes,0,0,C:/Users/rrics/Documents/!!ResearchBMECOGSCI/gnet,0,0,0,prototype4.png,no,mono,no,18,no,black,no,no,768,1204,3.5.6,legacy,xpyriment,osweb,1.3.13,0,space,space,space,,34384,63602,34384,,2,legacy,824,1536,24,864,24,0,0,1536,1647597839628,1024,2,48000,-16,experiment,p2sarr2.png,0,even,Win32,121,175427,172422,121,121,320733,322248,315732,176944,315732,121,,,,,,visual_patterns,0,0,0,yes,1366
undefined,undefined,undefined,undefined,white,no,Mozilla,Netscape,"5.0 (Windows NT 10.0; Win64; x64) AppleWebKit/537.36 (KHTML, like Gecko) Chrome/99.0.4844.51 Safari/537.36 Edg/99.0.1150.39",xpyriment,legacy,legacy,0,uniform,0,0,0,0,24,24,24,0,0,17,17,17,17,17,0,17,0,,,,,,0,,18-02-22,18-02-22,11:03:26,Fri Mar 18 2022 11:03:26 GMT+0100 (közép-európai téli idő),The main experiment item,yes,0,0,C:/Users/rrics/Documents/!!ResearchBMECOGSCI/gnet,0,0,0,prototype4.png,no,mono,no,18,no,black,no,no,768,1204,3.5.6,legacy,xpyriment,osweb,1.3.13,0,space,space,space,,34384,63602,34384,,2,legacy,824,1536,24,864,24,0,0,1536,1647597839628,1024,2,48000,-16,experiment,p3sarrsha2.png,0,even,Win32,121,175427,172422,121,121,327260,328776,322260,176944,322260,121,,,,,,visual_patterns,0,0,0,yes,1366
undefined,undefined,undefined,undefined,white,no,Mozilla,Netscape,"5.0 (Windows NT 10.0; Win64; x64) AppleWebKit/537.36 (KHTML, like Gecko) Chrome/99.0.4844.51 Safari/537.36 Edg/99.0.1150.39",xpyriment,legacy,legacy,0,uniform,0,0,0,0,24,24,24,0,0,18,18,18,18,18,0,18,0,,,,,,0,,18-02-22,18-02-22,11:03:26,Fri Mar 18 2022 11:03:26 GMT+0100 (közép-európai téli idő),The main experiment item,yes,0,0,C:/Users/rrics/Documents/!!ResearchBMECOGSCI/gnet,0,0,0,prototype4.png,no,mono,no,18,no,black,no,no,768,1204,3.5.6,legacy,xpyriment,osweb,1.3.13,0,space,space,space,,34384,63602,34384,,2,legacy,824,1536,24,864,24,0,0,1536,1647597839628,1024,2,48000,-16,experiment,prototype4.png,0,even,Win32,121,175427,172422,121,121,333803,335320,328796,176944,328796,121,,,,,,visual_patterns,0,0,0,yes,1366
undefined,undefined,undefined,undefined,white,no,Mozilla,Netscape,"5.0 (Windows NT 10.0; Win64; x64) AppleWebKit/537.36 (KHTML, like Gecko) Chrome/99.0.4844.51 Safari/537.36 Edg/99.0.1150.39",xpyriment,legacy,legacy,0,uniform,0,0,0,0,24,24,24,0,0,19,19,19,19,19,0,19,0,,,,,,0,,18-02-22,18-02-22,11:03:26,Fri Mar 18 2022 11:03:26 GMT+0100 (közép-európai téli idő),The main experiment item,yes,0,0,C:/Users/rrics/Documents/!!ResearchBMECOGSCI/gnet,0,0,0,prototype4.png,no,mono,no,18,no,black,no,no,768,1204,3.5.6,legacy,xpyriment,osweb,1.3.13,0,space,space,space,,34384,63602,34384,,2,legacy,824,1536,24,864,24,0,0,1536,1647597839628,1024,2,48000,-16,experiment,p3sarrsha1.png,0,even,Win32,121,175427,172422,121,121,340333,341848,335333,176944,335332,121,,,,,,visual_patterns,0,0,0,yes,1366
undefined,undefined,undefined,undefined,white,no,Mozilla,Netscape,"5.0 (Windows NT 10.0; Win64; x64) AppleWebKit/537.36 (KHTML, like Gecko) Chrome/99.0.4844.51 Safari/537.36 Edg/99.0.1150.39",xpyriment,legacy,legacy,0,uniform,0,0,0,0,24,24,24,0,0,20,20,20,20,20,0,20,0,,,,,,0,,18-02-22,18-02-22,11:03:26,Fri Mar 18 2022 11:03:26 GMT+0100 (közép-európai téli idő),The main experiment item,yes,0,0,C:/Users/rrics/Documents/!!ResearchBMECOGSCI/gnet,0,0,0,prototype4.png,no,mono,no,18,no,black,no,no,768,1204,3.5.6,legacy,xpyriment,osweb,1.3.13,0,space,space,space,,34384,63602,34384,,2,legacy,824,1536,24,864,24,0,0,1536,1647597839628,1024,2,48000,-16,experiment,prototype2.png,0,even,Win32,121,175427,172422,121,121,346857,348359,341857,176944,341857,121,,,,,,visual_patterns,0,0,0,yes,1366
undefined,undefined,undefined,undefined,white,no,Mozilla,Netscape,"5.0 (Windows NT 10.0; Win64; x64) AppleWebKit/537.36 (KHTML, like Gecko) Chrome/99.0.4844.51 Safari/537.36 Edg/99.0.1150.39",xpyriment,legacy,legacy,0,uniform,0,0,0,0,24,24,24,0,0,21,21,21,21,21,0,21,0,,,,,,0,,18-02-22,18-02-22,11:03:26,Fri Mar 18 2022 11:03:26 GMT+0100 (közép-európai téli idő),The main experiment item,yes,0,0,C:/Users/rrics/Documents/!!ResearchBMECOGSCI/gnet,0,0,0,prototype4.png,no,mono,no,18,no,black,no,no,768,1204,3.5.6,legacy,xpyriment,osweb,1.3.13,0,space,space,space,,34384,63602,34384,,2,legacy,824,1536,24,864,24,0,0,1536,1647597839628,1024,2,48000,-16,experiment,p4sarrcol2.png,0,even,Win32,121,175427,172422,121,121,353371,354886,348371,176944,348371,121,,,,,,visual_patterns,0,0,0,yes,1366
undefined,undefined,undefined,undefined,white,no,Mozilla,Netscape,"5.0 (Windows NT 10.0; Win64; x64) AppleWebKit/537.36 (KHTML, like Gecko) Chrome/99.0.4844.51 Safari/537.36 Edg/99.0.1150.39",xpyriment,legacy,legacy,0,uniform,0,0,0,0,24,24,24,0,0,22,22,22,22,22,0,22,0,,,,,,0,,18-02-22,18-02-22,11:03:26,Fri Mar 18 2022 11:03:26 GMT+0100 (közép-európai téli idő),The main experiment item,yes,0,0,C:/Users/rrics/Documents/!!ResearchBMECOGSCI/gnet,0,0,0,prototype4.png,no,mono,no,18,no,black,no,no,768,1204,3.5.6,legacy,xpyriment,osweb,1.3.13,0,space,space,space,,34384,63602,34384,,2,legacy,824,1536,24,864,24,0,0,1536,1647597839628,1024,2,48000,-16,experiment,p5sarrshacol1.png,0,even,Win32,121,175427,172422,121,121,359898,361414,354897,176944,354897,121,,,,,,visual_patterns,0,0,0,yes,1366
undefined,undefined,undefined,undefined,white,no,Mozilla,Netscape,"5.0 (Windows NT 10.0; Win64; x64) AppleWebKit/537.36 (KHTML, like Gecko) Chrome/99.0.4844.51 Safari/537.36 Edg/99.0.1150.39",xpyriment,legacy,legacy,0,uniform,0,0,0,0,24,24,24,0,0,23,23,23,23,23,0,23,0,,,,,,0,,18-02-22,18-02-22,11:03:26,Fri Mar 18 2022 11:03:26 GMT+0100 (közép-európai téli idő),The main experiment item,yes,0,0,C:/Users/rrics/Documents/!!ResearchBMECOGSCI/gnet,0,0,0,prototype4.png,no,mono,no,18,no,black,no,no,768,1204,3.5.6,legacy,xpyriment,osweb,1.3.13,0,space,space,space,,34384,63602,34384,,2,legacy,824,1536,24,864,24,0,0,1536,1647597839628,1024,2,48000,-16,experiment,prototype2.png,0,even,Win32,121,175427,172422,121,121,366427,367941,361423,176944,361423,121,,,,,,visual_patterns,0,0,0,yes,1366
undefined,undefined,undefined,undefined,white,no,Mozilla,Netscape,"5.0 (Windows NT 10.0; Win64; x64) AppleWebKit/537.36 (KHTML, like Gecko) Chrome/99.0.4844.51 Safari/537.36 Edg/99.0.1150.39",xpyriment,legacy,legacy,0,uniform,0,0,0,0,24,24,24,0,0,24,24,24,24,24,0,24,0,,,,,,0,,18-02-22,18-02-22,11:03:26,Fri Mar 18 2022 11:03:26 GMT+0100 (közép-európai téli idő),The main experiment item,yes,0,0,C:/Users/rrics/Documents/!!ResearchBMECOGSCI/gnet,0,0,0,prototype4.png,no,mono,no,18,no,black,no,no,768,1204,3.5.6,legacy,xpyriment,osweb,1.3.13,0,space,space,space,,34384,63602,34384,,2,legacy,824,1536,24,864,24,0,0,1536,1647597839628,1024,2,48000,-16,experiment,p4sarrsha2.png,0,even,Win32,121,175427,172422,121,121,372952,374453,367955,176944,367954,121,,,,,,visual_patterns,0,0,0,yes,1366
undefined,undefined,undefined,undefined,white,no,Mozilla,Netscape,"5.0 (Windows NT 10.0; Win64; x64) AppleWebKit/537.36 (KHTML, like Gecko) Chrome/99.0.4844.51 Safari/537.36 Edg/99.0.1150.39",xpyriment,legacy,legacy,0,uniform,0,0,0,0,24,24,24,0,0,25,25,25,25,25,0,25,0,,,,,,0,,18-02-22,18-02-22,11:03:26,Fri Mar 18 2022 11:03:26 GMT+0100 (közép-európai téli idő),The main experiment item,yes,0,0,C:/Users/rrics/Documents/!!ResearchBMECOGSCI/gnet,0,0,0,prototype4.png,no,mono,no,18,no,black,no,no,768,1204,3.5.6,legacy,xpyriment,osweb,1.3.13,0,space,space,space,,34384,63602,34384,,2,legacy,824,1536,24,864,24,0,0,1536,1647597839628,1024,2,48000,-16,experiment,p9sarr1.png,0,even,Win32,121,175427,172422,121,121,379461,380964,374461,176944,374461,121,,,,,,visual_patterns,0,0,0,yes,1366
undefined,undefined,undefined,undefined,white,no,Mozilla,Netscape,"5.0 (Windows NT 10.0; Win64; x64) AppleWebKit/537.36 (KHTML, like Gecko) Chrome/99.0.4844.51 Safari/537.36 Edg/99.0.1150.39",xpyriment,legacy,legacy,0,uniform,0,0,0,0,24,24,24,0,0,26,26,26,26,26,0,26,0,,,,,,0,,18-02-22,18-02-22,11:03:26,Fri Mar 18 2022 11:03:26 GMT+0100 (közép-európai téli idő),The main experiment item,yes,0,0,C:/Users/rrics/Documents/!!ResearchBMECOGSCI/gnet,0,0,0,prototype4.png,no,mono,no,18,no,black,no,no,768,1204,3.5.6,legacy,xpyriment,osweb,1.3.13,0,space,space,space,,34384,63602,34384,,2,legacy,824,1536,24,864,24,0,0,1536,1647597839628,1024,2,48000,-16,experiment,prototype1.png,0,even,Win32,121,175427,172422,121,121,385976,387498,380972,176944,380972,121,,,,,,visual_patterns,0,0,0,yes,1366
undefined,undefined,undefined,undefined,white,no,Mozilla,Netscape,"5.0 (Windows NT 10.0; Win64; x64) AppleWebKit/537.36 (KHTML, like Gecko) Chrome/99.0.4844.51 Safari/537.36 Edg/99.0.1150.39",xpyriment,legacy,legacy,0,uniform,0,0,0,0,24,24,24,0,0,27,27,27,27,27,0,27,0,,,,,,0,,18-02-22,18-02-22,11:03:26,Fri Mar 18 2022 11:03:26 GMT+0100 (közép-európai téli idő),The main experiment item,yes,0,0,C:/Users/rrics/Documents/!!ResearchBMECOGSCI/gnet,0,0,0,prototype4.png,no,mono,no,18,no,black,no,no,768,1204,3.5.6,legacy,xpyriment,osweb,1.3.13,0,space,space,space,,34384,63602,34384,,2,legacy,824,1536,24,864,24,0,0,1536,1647597839628,1024,2,48000,-16,experiment,p4sarrcol1.png,0,even,Win32,121,175427,172422,121,121,392516,394019,387509,176944,387509,121,,,,,,visual_patterns,0,0,0,yes,1366
undefined,undefined,undefined,undefined,white,no,Mozilla,Netscape,"5.0 (Windows NT 10.0; Win64; x64) AppleWebKit/537.36 (KHTML, like Gecko) Chrome/99.0.4844.51 Safari/537.36 Edg/99.0.1150.39",xpyriment,legacy,legacy,0,uniform,0,0,0,0,24,24,24,0,0,28,28,28,28,28,0,28,0,,,,,,0,,18-02-22,18-02-22,11:03:26,Fri Mar 18 2022 11:03:26 GMT+0100 (közép-európai téli idő),The main experiment item,yes,0,0,C:/Users/rrics/Documents/!!ResearchBMECOGSCI/gnet,0,0,0,prototype4.png,no,mono,no,18,no,black,no,no,768,1204,3.5.6,legacy,xpyriment,osweb,1.3.13,0,space,space,space,,34384,63602,34384,,2,legacy,824,1536,24,864,24,0,0,1536,1647597839628,1024,2,48000,-16,experiment,prototype4.png,0,even,Win32,121,175427,172422,121,121,399079,400580,394073,176944,394073,121,,,,,,visual_patterns,0,0,0,yes,1366
undefined,undefined,undefined,undefined,white,no,Mozilla,Netscape,"5.0 (Windows NT 10.0; Win64; x64) AppleWebKit/537.36 (KHTML, like Gecko) Chrome/99.0.4844.51 Safari/537.36 Edg/99.0.1150.39",xpyriment,legacy,legacy,0,uniform,0,0,0,0,24,24,24,0,0,29,29,29,29,29,0,29,0,,,,,,0,,18-02-22,18-02-22,11:03:26,Fri Mar 18 2022 11:03:26 GMT+0100 (közép-európai téli idő),The main experiment item,yes,0,0,C:/Users/rrics/Documents/!!ResearchBMECOGSCI/gnet,0,0,0,prototype4.png,no,mono,no,18,no,black,no,no,768,1204,3.5.6,legacy,xpyriment,osweb,1.3.13,0,space,space,space,,34384,63602,34384,,2,legacy,824,1536,24,864,24,0,0,1536,1647597839628,1024,2,48000,-16,experiment,prototype5.png,0,even,Win32,121,175427,172422,121,121,405592,407107,400589,176944,400589,121,,,,,,visual_patterns,0,0,0,yes,1366
undefined,undefined,undefined,undefined,white,no,Mozilla,Netscape,"5.0 (Windows NT 10.0; Win64; x64) AppleWebKit/537.36 (KHTML, like Gecko) Chrome/99.0.4844.51 Safari/537.36 Edg/99.0.1150.39",xpyriment,legacy,legacy,0,uniform,0,0,0,0,24,24,24,0,0,30,30,30,30,30,0,30,0,,,,,,0,,18-02-22,18-02-22,11:03:26,Fri Mar 18 2022 11:03:26 GMT+0100 (közép-európai téli idő),The main experiment item,yes,0,0,C:/Users/rrics/Documents/!!ResearchBMECOGSCI/gnet,0,0,0,prototype4.png,no,mono,no,18,no,black,no,no,768,1204,3.5.6,legacy,xpyriment,osweb,1.3.13,0,space,space,space,,34384,63602,34384,,2,legacy,824,1536,24,864,24,0,0,1536,1647597839628,1024,2,48000,-16,experiment,p5sarrcol2.png,0,even,Win32,121,175427,172422,121,121,412118,413635,407118,176944,407118,121,,,,,,visual_patterns,0,0,0,yes,1366
undefined,undefined,undefined,undefined,white,no,Mozilla,Netscape,"5.0 (Windows NT 10.0; Win64; x64) AppleWebKit/537.36 (KHTML, like Gecko) Chrome/99.0.4844.51 Safari/537.36 Edg/99.0.1150.39",xpyriment,legacy,legacy,0,uniform,0,0,0,0,24,24,24,0,0,31,31,31,31,31,0,31,0,,,,,,0,,18-02-22,18-02-22,11:03:26,Fri Mar 18 2022 11:03:26 GMT+0100 (közép-európai téli idő),The main experiment item,yes,0,0,C:/Users/rrics/Documents/!!ResearchBMECOGSCI/gnet,0,0,0,prototype4.png,no,mono,no,18,no,black,no,no,768,1204,3.5.6,legacy,xpyriment,osweb,1.3.13,0,space,space,space,,34384,63602,34384,,2,legacy,824,1536,24,864,24,0,0,1536,1647597839628,1024,2,48000,-16,experiment,p2sarrsha2.png,0,even,Win32,121,175427,172422,121,121,418647,420163,413647,176944,413647,121,,,,,,visual_patterns,0,0,0,yes,1366
undefined,undefined,undefined,undefined,white,no,Mozilla,Netscape,"5.0 (Windows NT 10.0; Win64; x64) AppleWebKit/537.36 (KHTML, like Gecko) Chrome/99.0.4844.51 Safari/537.36 Edg/99.0.1150.39",xpyriment,legacy,legacy,0,uniform,0,0,0,0,24,24,24,0,0,32,32,32,32,32,0,32,0,,,,,,0,,18-02-22,18-02-22,11:03:26,Fri Mar 18 2022 11:03:26 GMT+0100 (közép-európai téli idő),The main experiment item,yes,0,0,C:/Users/rrics/Documents/!!ResearchBMECOGSCI/gnet,0,0,0,prototype4.png,no,mono,no,18,no,black,no,no,768,1204,3.5.6,legacy,xpyriment,osweb,1.3.13,0,space,space,space,,34384,63602,34384,,2,legacy,824,1536,24,864,24,0,0,1536,1647597839628,1024,2,48000,-16,experiment,p5sarr1.png,0,even,Win32,121,175427,172422,121,121,425176,426690,420174,176944,420174,121,,,,,,visual_patterns,0,0,0,yes,1366
undefined,undefined,undefined,undefined,white,no,Mozilla,Netscape,"5.0 (Windows NT 10.0; Win64; x64) AppleWebKit/537.36 (KHTML, like Gecko) Chrome/99.0.4844.51 Safari/537.36 Edg/99.0.1150.39",xpyriment,legacy,legacy,0,uniform,0,0,0,0,24,24,24,0,0,33,33,33,33,33,0,33,0,,,,,,0,,18-02-22,18-02-22,11:03:26,Fri Mar 18 2022 11:03:26 GMT+0100 (közép-európai téli idő),The main experiment item,yes,0,0,C:/Users/rrics/Documents/!!ResearchBMECOGSCI/gnet,0,0,0,prototype4.png,no,mono,no,18,no,black,no,no,768,1204,3.5.6,legacy,xpyriment,osweb,1.3.13,0,space,space,space,,34384,63602,34384,,2,legacy,824,1536,24,864,24,0,0,1536,1647597839628,1024,2,48000,-16,experiment,p3sarrshacol1.png,0,even,Win32,121,175427,172422,121,121,431715,433218,426714,176944,426714,121,,,,,,visual_patterns,0,0,0,yes,1366
undefined,undefined,undefined,undefined,white,no,Mozilla,Netscape,"5.0 (Windows NT 10.0; Win64; x64) AppleWebKit/537.36 (KHTML, like Gecko) Chrome/99.0.4844.51 Safari/537.36 Edg/99.0.1150.39",xpyriment,legacy,legacy,0,uniform,0,0,0,0,24,24,24,0,0,34,34,34,34,34,0,34,0,,,,,,0,,18-02-22,18-02-22,11:03:26,Fri Mar 18 2022 11:03:26 GMT+0100 (közép-európai téli idő),The main experiment item,yes,0,0,C:/Users/rrics/Documents/!!ResearchBMECOGSCI/gnet,0,0,0,prototype4.png,no,mono,no,18,no,black,no,no,768,1204,3.5.6,legacy,xpyriment,osweb,1.3.13,0,space,space,space,,34384,63602,34384,,2,legacy,824,1536,24,864,24,0,0,1536,1647597839628,1024,2,48000,-16,experiment,prototype1.png,0,even,Win32,121,175427,172422,121,121,438228,439729,433227,176944,433227,121,,,,,,visual_patterns,0,0,0,yes,1366
undefined,undefined,undefined,undefined,white,no,Mozilla,Netscape,"5.0 (Windows NT 10.0; Win64; x64) AppleWebKit/537.36 (KHTML, like Gecko) Chrome/99.0.4844.51 Safari/537.36 Edg/99.0.1150.39",xpyriment,legacy,legacy,0,uniform,0,0,0,0,24,24,24,0,0,35,35,35,35,35,0,35,0,,,,,,0,,18-02-22,18-02-22,11:03:26,Fri Mar 18 2022 11:03:26 GMT+0100 (közép-európai téli idő),The main experiment item,yes,0,0,C:/Users/rrics/Documents/!!ResearchBMECOGSCI/gnet,0,0,0,prototype4.png,no,mono,no,18,no,black,no,no,768,1204,3.5.6,legacy,xpyriment,osweb,1.3.13,0,space,space,space,,34384,63602,34384,,2,legacy,824,1536,24,864,24,0,0,1536,1647597839628,1024,2,48000,-16,experiment,p4sarrshacol1.png,0,even,Win32,121,175427,172422,121,121,444740,446257,439741,176944,439741,121,,,,,,visual_patterns,0,0,0,yes,1366
undefined,undefined,undefined,undefined,white,no,Mozilla,Netscape,"5.0 (Windows NT 10.0; Win64; x64) AppleWebKit/537.36 (KHTML, like Gecko) Chrome/99.0.4844.51 Safari/537.36 Edg/99.0.1150.39",xpyriment,legacy,legacy,0,uniform,0,0,0,0,24,24,24,0,0,36,36,36,36,36,0,36,0,,,,,,0,,18-02-22,18-02-22,11:03:26,Fri Mar 18 2022 11:03:26 GMT+0100 (közép-európai téli idő),The main experiment item,yes,0,0,C:/Users/rrics/Documents/!!ResearchBMECOGSCI/gnet,0,0,0,prototype4.png,no,mono,no,18,no,black,no,no,768,1204,3.5.6,legacy,xpyriment,osweb,1.3.13,0,space,space,space,,34384,63602,34384,,2,legacy,824,1536,24,864,24,0,0,1536,1647597839628,1024,2,48000,-16,experiment,prototype3.png,0,even,Win32,121,175427,172422,121,121,451268,452784,446265,176944,446265,121,,,,,,visual_patterns,0,0,0,yes,1366
undefined,undefined,undefined,undefined,white,no,Mozilla,Netscape,"5.0 (Windows NT 10.0; Win64; x64) AppleWebKit/537.36 (KHTML, like Gecko) Chrome/99.0.4844.51 Safari/537.36 Edg/99.0.1150.39",xpyriment,legacy,legacy,0,uniform,0,0,0,0,24,24,24,0,0,37,37,37,37,37,0,37,0,,,,,,0,,18-02-22,18-02-22,11:03:26,Fri Mar 18 2022 11:03:26 GMT+0100 (közép-európai téli idő),The main experiment item,yes,0,0,C:/Users/rrics/Documents/!!ResearchBMECOGSCI/gnet,0,0,0,prototype4.png,no,mono,no,18,no,black,no,no,768,1204,3.5.6,legacy,xpyriment,osweb,1.3.13,0,space,space,space,,34384,63602,34384,,2,legacy,824,1536,24,864,24,0,0,1536,1647597839628,1024,2,48000,-16,experiment,prototype3.png,0,even,Win32,121,175427,172422,121,121,457797,459312,452793,176944,452793,121,,,,,,visual_patterns,0,0,0,yes,1366
undefined,undefined,undefined,undefined,white,no,Mozilla,Netscape,"5.0 (Windows NT 10.0; Win64; x64) AppleWebKit/537.36 (KHTML, like Gecko) Chrome/99.0.4844.51 Safari/537.36 Edg/99.0.1150.39",xpyriment,legacy,legacy,0,uniform,0,0,0,0,24,24,24,0,0,38,38,38,38,38,0,38,0,,,,,,0,,18-02-22,18-02-22,11:03:26,Fri Mar 18 2022 11:03:26 GMT+0100 (közép-európai téli idő),The main experiment item,yes,0,0,C:/Users/rrics/Documents/!!ResearchBMECOGSCI/gnet,0,0,0,prototype4.png,no,mono,no,18,no,black,no,no,768,1204,3.5.6,legacy,xpyriment,osweb,1.3.13,0,space,space,space,,34384,63602,34384,,2,legacy,824,1536,24,864,24,0,0,1536,1647597839628,1024,2,48000,-16,experiment,p7sarr1.png,0,even,Win32,121,175427,172422,121,121,464325,465840,459323,176944,459323,121,,,,,,visual_patterns,0,0,0,yes,1366
undefined,undefined,undefined,undefined,white,no,Mozilla,Netscape,"5.0 (Windows NT 10.0; Win64; x64) AppleWebKit/537.36 (KHTML, like Gecko) Chrome/99.0.4844.51 Safari/537.36 Edg/99.0.1150.39",xpyriment,legacy,legacy,0,uniform,0,0,0,0,24,24,24,0,0,39,39,39,39,39,0,39,0,,,,,,0,,18-02-22,18-02-22,11:03:26,Fri Mar 18 2022 11:03:26 GMT+0100 (közép-európai téli idő),The main experiment item,yes,0,0,C:/Users/rrics/Documents/!!ResearchBMECOGSCI/gnet,0,0,0,prototype4.png,no,mono,no,18,no,black,no,no,768,1204,3.5.6,legacy,xpyriment,osweb,1.3.13,0,space,space,space,,34384,63602,34384,,2,legacy,824,1536,24,864,24,0,0,1536,1647597839628,1024,2,48000,-16,experiment,p1sarrsha1.png,0,even,Win32,121,175427,172422,121,121,470848,472351,465851,176944,465851,121,,,,,,visual_patterns,0,0,0,yes,1366
undefined,undefined,undefined,undefined,white,no,Mozilla,Netscape,"5.0 (Windows NT 10.0; Win64; x64) AppleWebKit/537.36 (KHTML, like Gecko) Chrome/99.0.4844.51 Safari/537.36 Edg/99.0.1150.39",xpyriment,legacy,legacy,0,uniform,0,0,0,0,24,24,24,0,0,40,40,40,40,40,0,40,0,,,,,,0,,18-02-22,18-02-22,11:03:26,Fri Mar 18 2022 11:03:26 GMT+0100 (közép-európai téli idő),The main experiment item,yes,0,0,C:/Users/rrics/Documents/!!ResearchBMECOGSCI/gnet,0,0,0,prototype4.png,no,mono,no,18,no,black,no,no,768,1204,3.5.6,legacy,xpyriment,osweb,1.3.13,0,space,space,space,,34384,63602,34384,,2,legacy,824,1536,24,864,24,0,0,1536,1647597839628,1024,2,48000,-16,experiment,prototype5.png,0,even,Win32,121,175427,172422,121,121,477359,478861,472360,176944,472360,121,,,,,,visual_patterns,0,0,0,yes,1366
undefined,undefined,undefined,undefined,white,no,Mozilla,Netscape,"5.0 (Windows NT 10.0; Win64; x64) AppleWebKit/537.36 (KHTML, like Gecko) Chrome/99.0.4844.51 Safari/537.36 Edg/99.0.1150.39",xpyriment,legacy,legacy,0,uniform,0,0,0,0,24,24,24,0,0,41,41,41,41,41,0,41,0,,,,,,0,,18-02-22,18-02-22,11:03:26,Fri Mar 18 2022 11:03:26 GMT+0100 (közép-európai téli idő),The main experiment item,yes,0,0,C:/Users/rrics/Documents/!!ResearchBMECOGSCI/gnet,0,0,0,prototype4.png,no,mono,no,18,no,black,no,no,768,1204,3.5.6,legacy,xpyriment,osweb,1.3.13,0,space,space,space,,34384,63602,34384,,2,legacy,824,1536,24,864,24,0,0,1536,1647597839628,1024,2,48000,-16,experiment,p3sarrshacol2.png,0,even,Win32,121,175427,172422,121,121,483874,485389,478873,176944,478873,121,,,,,,visual_patterns,0,0,0,yes,1366
undefined,undefined,undefined,undefined,white,no,Mozilla,Netscape,"5.0 (Windows NT 10.0; Win64; x64) AppleWebKit/537.36 (KHTML, like Gecko) Chrome/99.0.4844.51 Safari/537.36 Edg/99.0.1150.39",xpyriment,legacy,legacy,0,uniform,0,0,0,0,24,24,24,0,0,42,42,42,42,42,0,42,0,,,,,,0,,18-02-22,18-02-22,11:03:26,Fri Mar 18 2022 11:03:26 GMT+0100 (közép-európai téli idő),The main experiment item,yes,0,0,C:/Users/rrics/Documents/!!ResearchBMECOGSCI/gnet,0,0,0,prototype4.png,no,mono,no,18,no,black,no,no,768,1204,3.5.6,legacy,xpyriment,osweb,1.3.13,0,space,space,space,,34384,63602,34384,,2,legacy,824,1536,24,864,24,0,0,1536,1647597839628,1024,2,48000,-16,experiment,p3sarrcol2.png,0,even,Win32,121,175427,172422,121,121,490400,491907,485397,176944,485397,121,,,,,,visual_patterns,0,0,0,yes,1366
undefined,undefined,undefined,undefined,white,no,Mozilla,Netscape,"5.0 (Windows NT 10.0; Win64; x64) AppleWebKit/537.36 (KHTML, like Gecko) Chrome/99.0.4844.51 Safari/537.36 Edg/99.0.1150.39",xpyriment,legacy,legacy,0,uniform,0,0,0,0,24,24,24,0,0,43,43,43,43,43,0,43,0,,,,,,0,,18-02-22,18-02-22,11:03:26,Fri Mar 18 2022 11:03:26 GMT+0100 (közép-európai téli idő),The main experiment item,yes,0,0,C:/Users/rrics/Documents/!!ResearchBMECOGSCI/gnet,0,0,0,prototype4.png,no,mono,no,18,no,black,no,no,768,1204,3.5.6,legacy,xpyriment,osweb,1.3.13,0,space,space,space,,34384,63602,34384,,2,legacy,824,1536,24,864,24,0,0,1536,1647597839628,1024,2,48000,-16,experiment,p3sarr2.png,0,even,Win32,121,175427,172422,121,121,496930,498445,491930,176944,491930,121,,,,,,visual_patterns,0,0,0,yes,1366
undefined,undefined,undefined,undefined,white,no,Mozilla,Netscape,"5.0 (Windows NT 10.0; Win64; x64) AppleWebKit/537.36 (KHTML, like Gecko) Chrome/99.0.4844.51 Safari/537.36 Edg/99.0.1150.39",xpyriment,legacy,legacy,0,uniform,0,0,0,0,24,24,24,0,0,44,44,44,44,44,0,44,0,,,,,,0,,18-02-22,18-02-22,11:03:26,Fri Mar 18 2022 11:03:26 GMT+0100 (közép-európai téli idő),The main experiment item,yes,0,0,C:/Users/rrics/Documents/!!ResearchBMECOGSCI/gnet,0,0,0,prototype4.png,no,mono,no,18,no,black,no,no,768,1204,3.5.6,legacy,xpyriment,osweb,1.3.13,0,space,space,space,,34384,63602,34384,,2,legacy,824,1536,24,864,24,0,0,1536,1647597839628,1024,2,48000,-16,experiment,p2sarrsha1.png,0,even,Win32,121,175427,172422,121,121,503454,504956,498456,176944,498456,121,,,,,,visual_patterns,0,0,0,yes,1366
undefined,undefined,undefined,undefined,white,no,Mozilla,Netscape,"5.0 (Windows NT 10.0; Win64; x64) AppleWebKit/537.36 (KHTML, like Gecko) Chrome/99.0.4844.51 Safari/537.36 Edg/99.0.1150.39",xpyriment,legacy,legacy,0,uniform,0,0,0,0,24,24,24,0,0,45,45,45,45,45,0,45,0,,,,,,0,,18-02-22,18-02-22,11:03:26,Fri Mar 18 2022 11:03:26 GMT+0100 (közép-európai téli idő),The main experiment item,yes,0,0,C:/Users/rrics/Documents/!!ResearchBMECOGSCI/gnet,0,0,0,prototype4.png,no,mono,no,18,no,black,no,no,768,1204,3.5.6,legacy,xpyriment,osweb,1.3.13,0,space,space,space,,34384,63602,34384,,2,legacy,824,1536,24,864,24,0,0,1536,1647597839628,1024,2,48000,-16,experiment,p4sarrsha1.png,0,even,Win32,121,175427,172422,121,121,509967,511483,504968,176944,504968,121,,,,,,visual_patterns,0,0,0,yes,1366
undefined,undefined,undefined,undefined,white,no,Mozilla,Netscape,"5.0 (Windows NT 10.0; Win64; x64) AppleWebKit/537.36 (KHTML, like Gecko) Chrome/99.0.4844.51 Safari/537.36 Edg/99.0.1150.39",xpyriment,legacy,legacy,0,uniform,0,0,0,0,24,24,24,0,0,46,46,46,46,46,0,46,0,,,,,,0,,18-02-22,18-02-22,11:03:26,Fri Mar 18 2022 11:03:26 GMT+0100 (közép-európai téli idő),The main experiment item,yes,0,0,C:/Users/rrics/Documents/!!ResearchBMECOGSCI/gnet,0,0,0,prototype4.png,no,mono,no,18,no,black,no,no,768,1204,3.5.6,legacy,xpyriment,osweb,1.3.13,0,space,space,space,,34384,63602,34384,,2,legacy,824,1536,24,864,24,0,0,1536,1647597839628,1024,2,48000,-16,experiment,p1sarrcol1.png,0,even,Win32,121,175427,172422,121,121,516496,518011,511495,176944,511495,121,,,,,,visual_patterns,0,0,0,yes,1366
undefined,undefined,undefined,undefined,white,no,Mozilla,Netscape,"5.0 (Windows NT 10.0; Win64; x64) AppleWebKit/537.36 (KHTML, like Gecko) Chrome/99.0.4844.51 Safari/537.36 Edg/99.0.1150.39",xpyriment,legacy,legacy,0,uniform,0,0,0,0,24,24,24,0,0,47,47,47,47,47,0,47,0,,,,,,0,,18-02-22,18-02-22,11:03:26,Fri Mar 18 2022 11:03:26 GMT+0100 (közép-európai téli idő),The main experiment item,yes,0,0,C:/Users/rrics/Documents/!!ResearchBMECOGSCI/gnet,0,0,0,prototype4.png,no,mono,no,18,no,black,no,no,768,1204,3.5.6,legacy,xpyriment,osweb,1.3.13,0,space,space,space,,34384,63602,34384,,2,legacy,824,1536,24,864,24,0,0,1536,1647597839628,1024,2,48000,-16,experiment,p1sarrsha2.png,0,even,Win32,121,175427,172422,121,121,523023,524538,518024,176944,518024,121,,,,,,visual_patterns,0,0,0,yes,1366
undefined,undefined,undefined,undefined,white,no,Mozilla,Netscape,"5.0 (Windows NT 10.0; Win64; x64) AppleWebKit/537.36 (KHTML, like Gecko) Chrome/99.0.4844.51 Safari/537.36 Edg/99.0.1150.39",xpyriment,legacy,legacy,0,uniform,0,0,0,0,24,24,24,0,0,48,48,48,48,48,0,48,0,,,,,,0,,18-02-22,18-02-22,11:03:26,Fri Mar 18 2022 11:03:26 GMT+0100 (közép-európai téli idő),The main experiment item,yes,0,0,C:/Users/rrics/Documents/!!ResearchBMECOGSCI/gnet,0,0,0,prototype4.png,no,mono,no,18,no,black,no,no,768,1204,3.5.6,legacy,xpyriment,osweb,1.3.13,0,space,space,space,,34384,63602,34384,,2,legacy,824,1536,24,864,24,0,0,1536,1647597839628,1024,2,48000,-16,experiment,p7sarr2.png,0,even,Win32,121,175427,172422,121,121,529551,531066,524549,176944,524549,121,,,,,,visual_patterns,0,0,0,yes,1366
undefined,undefined,undefined,undefined,white,no,Mozilla,Netscape,"5.0 (Windows NT 10.0; Win64; x64) AppleWebKit/537.36 (KHTML, like Gecko) Chrome/99.0.4844.51 Safari/537.36 Edg/99.0.1150.39",xpyriment,legacy,legacy,0,uniform,0,0,0,0,24,24,24,0,0,49,49,49,49,49,0,49,0,,,,,,0,,18-02-22,18-02-22,11:03:26,Fri Mar 18 2022 11:03:26 GMT+0100 (közép-európai téli idő),The main experiment item,yes,0,0,C:/Users/rrics/Documents/!!ResearchBMECOGSCI/gnet,0,0,0,prototype4.png,no,mono,no,18,no,black,no,no,768,1204,3.5.6,legacy,xpyriment,osweb,1.3.13,0,space,space,space,,34384,63602,34384,,2,legacy,824,1536,24,864,24,0,0,1536,1647597839628,1024,2,48000,-16,experiment,p4sarr1.png,0,even,Win32,121,175427,172422,121,121,536079,537601,531078,176944,531077,121,,,,,,visual_patterns,0,0,0,yes,1366
undefined,undefined,undefined,undefined,white,no,Mozilla,Netscape,"5.0 (Windows NT 10.0; Win64; x64) AppleWebKit/537.36 (KHTML, like Gecko) Chrome/99.0.4844.51 Safari/537.36 Edg/99.0.1150.39",xpyriment,legacy,legacy,0,uniform,0,0,0,0,24,24,24,0,0,50,50,50,50,50,0,50,0,,,,,,0,,18-02-22,18-02-22,11:03:26,Fri Mar 18 2022 11:03:26 GMT+0100 (közép-európai téli idő),The main experiment item,yes,0,0,C:/Users/rrics/Documents/!!ResearchBMECOGSCI/gnet,0,0,0,prototype4.png,no,mono,no,18,no,black,no,no,768,1204,3.5.6,legacy,xpyriment,osweb,1.3.13,0,space,space,space,,34384,63602,34384,,2,legacy,824,1536,24,864,24,0,0,1536,1647597839628,1024,2,48000,-16,experiment,p10sarr1.png,0,even,Win32,121,175427,172422,121,121,542613,544121,537610,176944,537610,121,,,,,,visual_patterns,0,0,0,yes,1366
undefined,undefined,undefined,undefined,white,no,Mozilla,Netscape,"5.0 (Windows NT 10.0; Win64; x64) AppleWebKit/537.36 (KHTML, like Gecko) Chrome/99.0.4844.51 Safari/537.36 Edg/99.0.1150.39",xpyriment,legacy,legacy,0,uniform,0,0,0,0,24,24,24,0,0,51,51,51,51,51,0,51,0,,,,,,0,,18-02-22,18-02-22,11:03:26,Fri Mar 18 2022 11:03:26 GMT+0100 (közép-európai téli idő),The main experiment item,yes,0,0,C:/Users/rrics/Documents/!!ResearchBMECOGSCI/gnet,0,0,0,prototype4.png,no,mono,no,18,no,black,no,no,768,1204,3.5.6,legacy,xpyriment,osweb,1.3.13,0,space,space,space,,34384,63602,34384,,2,legacy,824,1536,24,864,24,0,0,1536,1647597839628,1024,2,48000,-16,experiment,prototype3.png,0,even,Win32,121,175427,172422,121,121,549134,550648,544130,176944,544130,121,,,,,,visual_patterns,0,0,0,yes,1366
undefined,undefined,undefined,undefined,white,no,Mozilla,Netscape,"5.0 (Windows NT 10.0; Win64; x64) AppleWebKit/537.36 (KHTML, like Gecko) Chrome/99.0.4844.51 Safari/537.36 Edg/99.0.1150.39",xpyriment,legacy,legacy,0,uniform,0,0,0,0,24,24,24,0,0,52,52,52,52,52,0,52,0,,,,,,0,,18-02-22,18-02-22,11:03:26,Fri Mar 18 2022 11:03:26 GMT+0100 (közép-európai téli idő),The main experiment item,yes,0,0,C:/Users/rrics/Documents/!!ResearchBMECOGSCI/gnet,0,0,0,prototype4.png,no,mono,no,18,no,black,no,no,768,1204,3.5.6,legacy,xpyriment,osweb,1.3.13,0,space,space,space,,34384,63602,34384,,2,legacy,824,1536,24,864,24,0,0,1536,1647597839628,1024,2,48000,-16,experiment,p1sarr1.png,0,even,Win32,121,175427,172422,121,121,555661,557177,550660,176944,550660,121,,,,,,visual_patterns,0,0,0,yes,1366
undefined,undefined,undefined,undefined,white,no,Mozilla,Netscape,"5.0 (Windows NT 10.0; Win64; x64) AppleWebKit/537.36 (KHTML, like Gecko) Chrome/99.0.4844.51 Safari/537.36 Edg/99.0.1150.39",xpyriment,legacy,legacy,0,uniform,0,0,0,0,24,24,24,0,0,53,53,53,53,53,0,53,0,,,,,,0,,18-02-22,18-02-22,11:03:26,Fri Mar 18 2022 11:03:26 GMT+0100 (közép-európai téli idő),The main experiment item,yes,0,0,C:/Users/rrics/Documents/!!ResearchBMECOGSCI/gnet,0,0,0,prototype4.png,no,mono,no,18,no,black,no,no,768,1204,3.5.6,legacy,xpyriment,osweb,1.3.13,0,space,space,space,,34384,63602,34384,,2,legacy,824,1536,24,864,24,0,0,1536,1647597839628,1024,2,48000,-16,experiment,p1sarrcol2.png,0,even,Win32,121,175427,172422,121,121,562197,563704,557197,176944,557197,121,,,,,,visual_patterns,0,0,0,yes,1366
undefined,undefined,undefined,undefined,white,no,Mozilla,Netscape,"5.0 (Windows NT 10.0; Win64; x64) AppleWebKit/537.36 (KHTML, like Gecko) Chrome/99.0.4844.51 Safari/537.36 Edg/99.0.1150.39",xpyriment,legacy,legacy,0,uniform,0,0,0,0,24,24,24,0,0,54,54,54,54,54,0,54,0,,,,,,0,,18-02-22,18-02-22,11:03:26,Fri Mar 18 2022 11:03:26 GMT+0100 (közép-európai téli idő),The main experiment item,yes,0,0,C:/Users/rrics/Documents/!!ResearchBMECOGSCI/gnet,0,0,0,prototype4.png,no,mono,no,18,no,black,no,no,768,1204,3.5.6,legacy,xpyriment,osweb,1.3.13,0,space,space,space,,34384,63602,34384,,2,legacy,824,1536,24,864,24,0,0,1536,1647597839628,1024,2,48000,-16,experiment,p2sarrcol2.png,0,even,Win32,121,175427,172422,121,121,568715,570232,563715,176944,563714,121,,,,,,visual_patterns,0,0,0,yes,1366
undefined,undefined,undefined,undefined,white,no,Mozilla,Netscape,"5.0 (Windows NT 10.0; Win64; x64) AppleWebKit/537.36 (KHTML, like Gecko) Chrome/99.0.4844.51 Safari/537.36 Edg/99.0.1150.39",xpyriment,legacy,legacy,0,uniform,0,0,0,0,24,24,24,0,0,55,55,55,55,55,0,55,0,,,,,,0,,18-02-22,18-02-22,11:03:26,Fri Mar 18 2022 11:03:26 GMT+0100 (közép-európai téli idő),The main experiment item,yes,0,0,C:/Users/rrics/Documents/!!ResearchBMECOGSCI/gnet,0,0,0,prototype4.png,no,mono,no,18,no,black,no,no,768,1204,3.5.6,legacy,xpyriment,osweb,1.3.13,0,space,space,space,,34384,63602,34384,,2,legacy,824,1536,24,864,24,0,0,1536,1647597839628,1024,2,48000,-16,experiment,prototype4.png,0,even,Win32,121,175427,172422,121,121,575244,576760,570241,176944,570241,121,,,,,,visual_patterns,0,0,0,yes,1366
undefined,undefined,undefined,undefined,white,no,Mozilla,Netscape,"5.0 (Windows NT 10.0; Win64; x64) AppleWebKit/537.36 (KHTML, like Gecko) Chrome/99.0.4844.51 Safari/537.36 Edg/99.0.1150.39",xpyriment,legacy,legacy,0,uniform,0,0,0,0,24,24,24,0,0,56,56,56,56,56,0,56,0,,,,,,0,,18-02-22,18-02-22,11:03:26,Fri Mar 18 2022 11:03:26 GMT+0100 (közép-európai téli idő),The main experiment item,yes,0,0,C:/Users/rrics/Documents/!!ResearchBMECOGSCI/gnet,0,0,0,prototype4.png,no,mono,no,18,no,black,no,no,768,1204,3.5.6,legacy,xpyriment,osweb,1.3.13,0,space,space,space,,34384,63602,34384,,2,legacy,824,1536,24,864,24,0,0,1536,1647597839628,1024,2,48000,-16,experiment,p2sarrshacol1.png,0,even,Win32,121,175427,172422,121,121,581769,583271,576772,176944,576772,121,,,,,,visual_patterns,0,0,0,yes,1366
undefined,undefined,undefined,undefined,white,no,Mozilla,Netscape,"5.0 (Windows NT 10.0; Win64; x64) AppleWebKit/537.36 (KHTML, like Gecko) Chrome/99.0.4844.51 Safari/537.36 Edg/99.0.1150.39",xpyriment,legacy,legacy,0,uniform,0,0,0,0,24,24,24,0,0,57,57,57,57,57,0,57,0,,,,,,0,,18-02-22,18-02-22,11:03:26,Fri Mar 18 2022 11:03:26 GMT+0100 (közép-európai téli idő),The main experiment item,yes,0,0,C:/Users/rrics/Documents/!!ResearchBMECOGSCI/gnet,0,0,0,prototype4.png,no,mono,no,18,no,black,no,no,768,1204,3.5.6,legacy,xpyriment,osweb,1.3.13,0,space,space,space,,34384,63602,34384,,2,legacy,824,1536,24,864,24,0,0,1536,1647597839628,1024,2,48000,-16,experiment,prototype5.png,0,even,Win32,121,175427,172422,121,121,588283,589804,583280,176944,583280,121,,,,,,visual_patterns,0,0,0,yes,1366
undefined,undefined,undefined,undefined,white,no,Mozilla,Netscape,"5.0 (Windows NT 10.0; Win64; x64) AppleWebKit/537.36 (KHTML, like Gecko) Chrome/99.0.4844.51 Safari/537.36 Edg/99.0.1150.39",xpyriment,legacy,legacy,0,uniform,0,0,0,0,24,24,24,0,0,58,58,58,58,58,0,58,0,,,,,,0,,18-02-22,18-02-22,11:03:26,Fri Mar 18 2022 11:03:26 GMT+0100 (közép-európai téli idő),The main experiment item,yes,0,0,C:/Users/rrics/Documents/!!ResearchBMECOGSCI/gnet,0,0,0,prototype4.png,no,mono,no,18,no,black,no,no,768,1204,3.5.6,legacy,xpyriment,osweb,1.3.13,0,space,space,space,,34384,63602,34384,,2,legacy,824,1536,24,864,24,0,0,1536,1647597839628,1024,2,48000,-16,experiment,prototype2.png,0,even,Win32,121,175427,172422,121,121,594818,596326,589811,176944,589811,121,,,,,,visual_patterns,0,0,0,yes,1366
undefined,undefined,undefined,undefined,white,no,Mozilla,Netscape,"5.0 (Windows NT 10.0; Win64; x64) AppleWebKit/537.36 (KHTML, like Gecko) Chrome/99.0.4844.51 Safari/537.36 Edg/99.0.1150.39",xpyriment,legacy,legacy,0,uniform,0,0,0,0,24,24,24,0,0,59,59,59,59,59,0,59,0,,,,,,0,,18-02-22,18-02-22,11:03:26,Fri Mar 18 2022 11:03:26 GMT+0100 (közép-európai téli idő),The main experiment item,yes,0,0,C:/Users/rrics/Documents/!!ResearchBMECOGSCI/gnet,0,0,0,prototype4.png,no,mono,no,18,no,black,no,no,768,1204,3.5.6,legacy,xpyriment,osweb,1.3.13,0,space,space,space,,34384,63602,34384,,2,legacy,824,1536,24,864,24,0,0,1536,1647597839628,1024,2,48000,-16,experiment,prototype5.png,0,even,Win32,121,175427,172422,121,121,601339,602854,596334,176944,596334,121,,,,,,visual_patterns,0,0,0,yes,1366
undefined,undefined,undefined,undefined,white,no,Mozilla,Netscape,"5.0 (Windows NT 10.0; Win64; x64) AppleWebKit/537.36 (KHTML, like Gecko) Chrome/99.0.4844.51 Safari/537.36 Edg/99.0.1150.39",xpyriment,legacy,legacy,0,uniform,0,0,0,0,24,24,24,0,0,60,60,60,60,60,0,60,0,,,,,,0,,18-02-22,18-02-22,11:03:26,Fri Mar 18 2022 11:03:26 GMT+0100 (közép-európai téli idő),The main experiment item,yes,0,0,C:/Users/rrics/Documents/!!ResearchBMECOGSCI/gnet,0,0,0,prototype4.png,no,mono,no,18,no,black,no,no,768,1204,3.5.6,legacy,xpyriment,osweb,1.3.13,0,space,space,space,,34384,63602,34384,,2,legacy,824,1536,24,864,24,0,0,1536,1647597839628,1024,2,48000,-16,experiment,p1sarrshacol2.png,0,even,Win32,121,175427,172422,121,121,607867,609381,602865,176944,602865,121,,,,,,visual_patterns,0,0,0,yes,1366
undefined,undefined,undefined,undefined,white,no,Mozilla,Netscape,"5.0 (Windows NT 10.0; Win64; x64) AppleWebKit/537.36 (KHTML, like Gecko) Chrome/99.0.4844.51 Safari/537.36 Edg/99.0.1150.39",xpyriment,legacy,legacy,0,uniform,0,0,0,0,24,24,24,0,0,61,61,61,61,61,0,61,0,,,,,,0,,18-02-22,18-02-22,11:03:26,Fri Mar 18 2022 11:03:26 GMT+0100 (közép-európai téli idő),The main experiment item,yes,0,0,C:/Users/rrics/Documents/!!ResearchBMECOGSCI/gnet,0,0,0,prototype4.png,no,mono,no,18,no,black,no,no,768,1204,3.5.6,legacy,xpyriment,osweb,1.3.13,0,space,space,space,,34384,63602,34384,,2,legacy,824,1536,24,864,24,0,0,1536,1647597839628,1024,2,48000,-16,experiment,p2sarrcol1.png,0,even,Win32,121,175427,172422,121,121,614394,615909,609393,176944,609393,121,,,,,,visual_patterns,0,0,0,yes,1366
undefined,undefined,undefined,undefined,white,no,Mozilla,Netscape,"5.0 (Windows NT 10.0; Win64; x64) AppleWebKit/537.36 (KHTML, like Gecko) Chrome/99.0.4844.51 Safari/537.36 Edg/99.0.1150.39",xpyriment,legacy,legacy,0,uniform,0,0,0,0,24,24,24,0,0,62,62,62,62,62,0,62,0,,,,,,0,,18-02-22,18-02-22,11:03:26,Fri Mar 18 2022 11:03:26 GMT+0100 (közép-európai téli idő),The main experiment item,yes,0,0,C:/Users/rrics/Documents/!!ResearchBMECOGSCI/gnet,0,0,0,prototype4.png,no,mono,no,18,no,black,no,no,768,1204,3.5.6,legacy,xpyriment,osweb,1.3.13,0,space,space,space,,34384,63602,34384,,2,legacy,824,1536,24,864,24,0,0,1536,1647597839628,1024,2,48000,-16,experiment,p5sarr2.png,0,even,Win32,121,175427,172422,121,121,620921,622437,615920,176944,615920,121,,,,,,visual_patterns,0,0,0,yes,1366
undefined,undefined,undefined,undefined,white,no,Mozilla,Netscape,"5.0 (Windows NT 10.0; Win64; x64) AppleWebKit/537.36 (KHTML, like Gecko) Chrome/99.0.4844.51 Safari/537.36 Edg/99.0.1150.39",xpyriment,legacy,legacy,0,uniform,0,0,0,0,24,24,24,0,0,63,63,63,63,63,0,63,0,,,,,,0,,18-02-22,18-02-22,11:03:26,Fri Mar 18 2022 11:03:26 GMT+0100 (közép-európai téli idő),The main experiment item,yes,0,0,C:/Users/rrics/Documents/!!ResearchBMECOGSCI/gnet,0,0,0,prototype4.png,no,mono,no,18,no,black,no,no,768,1204,3.5.6,legacy,xpyriment,osweb,1.3.13,0,space,space,space,,34384,63602,34384,,2,legacy,824,1536,24,864,24,0,0,1536,1647597839628,1024,2,48000,-16,experiment,p10sarr2.png,0,even,Win32,121,175427,172422,121,121,627459,628964,622461,176944,622461,121,,,,,,visual_patterns,0,0,0,yes,1366
undefined,undefined,undefined,undefined,white,no,Mozilla,Netscape,"5.0 (Windows NT 10.0; Win64; x64) AppleWebKit/537.36 (KHTML, like Gecko) Chrome/99.0.4844.51 Safari/537.36 Edg/99.0.1150.39",xpyriment,legacy,legacy,0,uniform,0,0,0,0,24,24,24,0,0,64,64,64,64,64,0,64,0,,,,,,0,,18-02-22,18-02-22,11:03:26,Fri Mar 18 2022 11:03:26 GMT+0100 (közép-európai téli idő),The main experiment item,yes,0,0,C:/Users/rrics/Documents/!!ResearchBMECOGSCI/gnet,0,0,0,prototype4.png,no,mono,no,18,no,black,no,no,768,1204,3.5.6,legacy,xpyriment,osweb,1.3.13,0,space,space,space,,34384,63602,34384,,2,legacy,824,1536,24,864,24,0,0,1536,1647597839628,1024,2,48000,-16,experiment,prototype1.png,0,even,Win32,121,175427,172422,121,121,633975,635492,628973,176944,628973,121,,,,,,visual_patterns,0,0,0,yes,1366
undefined,undefined,undefined,undefined,white,no,Mozilla,Netscape,"5.0 (Windows NT 10.0; Win64; x64) AppleWebKit/537.36 (KHTML, like Gecko) Chrome/99.0.4844.51 Safari/537.36 Edg/99.0.1150.39",xpyriment,legacy,legacy,0,uniform,0,0,0,0,24,24,24,0,0,65,65,65,65,65,0,65,0,,,,,,0,,18-02-22,18-02-22,11:03:26,Fri Mar 18 2022 11:03:26 GMT+0100 (közép-európai téli idő),The main experiment item,yes,0,0,C:/Users/rrics/Documents/!!ResearchBMECOGSCI/gnet,0,0,0,prototype4.png,no,mono,no,18,no,black,no,no,768,1204,3.5.6,legacy,xpyriment,osweb,1.3.13,0,space,space,space,,34384,63602,34384,,2,legacy,824,1536,24,864,24,0,0,1536,1647597839628,1024,2,48000,-16,experiment,prototype4.png,0,even,Win32,121,175427,172422,121,121,640505,642019,635501,176944,635501,121,,,,,,visual_patterns,0,0,0,yes,1366
undefined,undefined,undefined,undefined,white,no,Mozilla,Netscape,"5.0 (Windows NT 10.0; Win64; x64) AppleWebKit/537.36 (KHTML, like Gecko) Chrome/99.0.4844.51 Safari/537.36 Edg/99.0.1150.39",xpyriment,legacy,legacy,0,uniform,0,0,0,0,24,24,24,0,0,66,66,66,66,66,0,66,0,,,,,,0,,18-02-22,18-02-22,11:03:26,Fri Mar 18 2022 11:03:26 GMT+0100 (közép-európai téli idő),The main experiment item,yes,0,0,C:/Users/rrics/Documents/!!ResearchBMECOGSCI/gnet,0,0,0,prototype4.png,no,mono,no,18,no,black,no,no,768,1204,3.5.6,legacy,xpyriment,osweb,1.3.13,0,space,space,space,,34384,63602,34384,,2,legacy,824,1536,24,864,24,0,0,1536,1647597839628,1024,2,48000,-16,experiment,p2sarrshacol2.png,0,even,Win32,121,175427,172422,121,121,647032,648547,642032,176944,642032,121,,,,,,visual_patterns,0,0,0,yes,1366
undefined,undefined,undefined,undefined,white,no,Mozilla,Netscape,"5.0 (Windows NT 10.0; Win64; x64) AppleWebKit/537.36 (KHTML, like Gecko) Chrome/99.0.4844.51 Safari/537.36 Edg/99.0.1150.39",xpyriment,legacy,legacy,0,uniform,0,0,0,0,24,24,24,0,0,67,67,67,67,67,0,67,0,,,,,,0,,18-02-22,18-02-22,11:03:26,Fri Mar 18 2022 11:03:26 GMT+0100 (közép-európai téli idő),The main experiment item,yes,0,0,C:/Users/rrics/Documents/!!ResearchBMECOGSCI/gnet,0,0,0,prototype4.png,no,mono,no,18,no,black,no,no,768,1204,3.5.6,legacy,xpyriment,osweb,1.3.13,0,space,space,space,,34384,63602,34384,,2,legacy,824,1536,24,864,24,0,0,1536,1647597839628,1024,2,48000,-16,experiment,p1sarr2.png,0,even,Win32,121,175427,172422,121,121,653558,655075,648560,176944,648560,121,,,,,,visual_patterns,0,0,0,yes,1366
undefined,undefined,undefined,undefined,white,no,Mozilla,Netscape,"5.0 (Windows NT 10.0; Win64; x64) AppleWebKit/537.36 (KHTML, like Gecko) Chrome/99.0.4844.51 Safari/537.36 Edg/99.0.1150.39",xpyriment,legacy,legacy,0,uniform,0,0,0,0,24,24,24,0,0,68,68,68,68,68,0,68,0,,,,,,0,,18-02-22,18-02-22,11:03:26,Fri Mar 18 2022 11:03:26 GMT+0100 (közép-európai téli idő),The main experiment item,yes,0,0,C:/Users/rrics/Documents/!!ResearchBMECOGSCI/gnet,0,0,0,prototype4.png,no,mono,no,18,no,black,no,no,768,1204,3.5.6,legacy,xpyriment,osweb,1.3.13,0,space,space,space,,34384,63602,34384,,2,legacy,824,1536,24,864,24,0,0,1536,1647597839628,1024,2,48000,-16,experiment,p6sarr2.png,0,even,Win32,121,175427,172422,121,121,660097,661603,655098,176944,655098,121,,,,,,visual_patterns,0,0,0,yes,1366
undefined,undefined,undefined,undefined,white,no,Mozilla,Netscape,"5.0 (Windows NT 10.0; Win64; x64) AppleWebKit/537.36 (KHTML, like Gecko) Chrome/99.0.4844.51 Safari/537.36 Edg/99.0.1150.39",xpyriment,legacy,legacy,0,uniform,0,0,0,0,24,24,24,0,0,69,69,69,69,69,0,69,0,,,,,,0,,18-02-22,18-02-22,11:03:26,Fri Mar 18 2022 11:03:26 GMT+0100 (közép-európai téli idő),The main experiment item,yes,0,0,C:/Users/rrics/Documents/!!ResearchBMECOGSCI/gnet,0,0,0,prototype4.png,no,mono,no,18,no,black,no,no,768,1204,3.5.6,legacy,xpyriment,osweb,1.3.13,0,space,space,space,,34384,63602,34384,,2,legacy,824,1536,24,864,24,0,0,1536,1647597839628,1024,2,48000,-16,experiment,prototype2.png,0,even,Win32,121,175427,172422,121,121,666612,668113,661611,176944,661611,121,,,,,,visual_patterns,0,0,0,yes,1366
undefined,undefined,undefined,undefined,white,no,Mozilla,Netscape,"5.0 (Windows NT 10.0; Win64; x64) AppleWebKit/537.36 (KHTML, like Gecko) Chrome/99.0.4844.51 Safari/537.36 Edg/99.0.1150.39",xpyriment,legacy,legacy,0,uniform,0,0,0,0,24,24,24,0,0,70,70,70,70,70,0,70,0,,,,,,0,,18-02-22,18-02-22,11:03:26,Fri Mar 18 2022 11:03:26 GMT+0100 (közép-európai téli idő),The main experiment item,yes,0,0,C:/Users/rrics/Documents/!!ResearchBMECOGSCI/gnet,0,0,0,prototype4.png,no,mono,no,18,no,black,no,no,768,1204,3.5.6,legacy,xpyriment,osweb,1.3.13,0,space,space,space,,34384,63602,34384,,2,legacy,824,1536,24,864,24,0,0,1536,1647597839628,1024,2,48000,-16,experiment,p1sarrshacol1.png,0,even,Win32,121,175427,172422,121,121,673121,674625,668124,176944,668124,121,,,,,,visual_patterns,0,0,0,yes,1366
undefined,undefined,undefined,undefined,white,no,Mozilla,Netscape,"5.0 (Windows NT 10.0; Win64; x64) AppleWebKit/537.36 (KHTML, like Gecko) Chrome/99.0.4844.51 Safari/537.36 Edg/99.0.1150.39",xpyriment,legacy,legacy,0,uniform,0,0,0,0,24,24,24,0,0,71,71,71,71,71,0,71,0,,,,,,0,,18-02-22,18-02-22,11:03:26,Fri Mar 18 2022 11:03:26 GMT+0100 (közép-európai téli idő),The main experiment item,yes,0,0,C:/Users/rrics/Documents/!!ResearchBMECOGSCI/gnet,0,0,0,prototype4.png,no,mono,no,18,no,black,no,no,768,1204,3.5.6,legacy,xpyriment,osweb,1.3.13,0,space,space,space,,34384,63602,34384,,2,legacy,824,1536,24,864,24,0,0,1536,1647597839628,1024,2,48000,-16,experiment,prototype1.png,0,even,Win32,121,175427,172422,121,121,679637,681152,674634,176944,674634,121,,,,,,visual_patterns,0,0,0,yes,1366
undefined,undefined,undefined,undefined,white,no,Mozilla,Netscape,"5.0 (Windows NT 10.0; Win64; x64) AppleWebKit/537.36 (KHTML, like Gecko) Chrome/99.0.4844.51 Safari/537.36 Edg/99.0.1150.39",xpyriment,legacy,legacy,0,uniform,0,0,0,0,24,24,24,0,0,72,72,72,72,72,0,72,0,,,,,,0,,18-02-22,18-02-22,11:03:26,Fri Mar 18 2022 11:03:26 GMT+0100 (közép-európai téli idő),The main experiment item,yes,0,0,C:/Users/rrics/Documents/!!ResearchBMECOGSCI/gnet,0,0,0,prototype4.png,no,mono,no,18,no,black,no,no,768,1204,3.5.6,legacy,xpyriment,osweb,1.3.13,0,space,space,space,,34384,63602,34384,,2,legacy,824,1536,24,864,24,0,0,1536,1647597839628,1024,2,48000,-16,experiment,prototype5.png,0,even,Win32,121,175427,172422,121,121,686164,687680,681161,176944,681161,121,,,,,,visual_patterns,0,0,0,yes,1366
undefined,undefined,undefined,undefined,white,no,Mozilla,Netscape,"5.0 (Windows NT 10.0; Win64; x64) AppleWebKit/537.36 (KHTML, like Gecko) Chrome/99.0.4844.51 Safari/537.36 Edg/99.0.1150.39",xpyriment,legacy,legacy,0,uniform,0,0,0,0,24,24,24,0,0,73,73,73,73,73,0,73,0,,,,,,0,,18-02-22,18-02-22,11:03:26,Fri Mar 18 2022 11:03:26 GMT+0100 (közép-európai téli idő),The main experiment item,yes,0,0,C:/Users/rrics/Documents/!!ResearchBMECOGSCI/gnet,0,0,0,prototype4.png,no,mono,no,18,no,black,no,no,768,1204,3.5.6,legacy,xpyriment,osweb,1.3.13,0,space,space,space,,34384,63602,34384,,2,legacy,824,1536,24,864,24,0,0,1536,1647597839628,1024,2,48000,-16,experiment,prototype3.png,0,even,Win32,121,175427,172422,121,121,692693,694207,687688,176944,687688,121,,,,,,visual_patterns,0,0,0,yes,1366
undefined,undefined,undefined,undefined,white,no,Mozilla,Netscape,"5.0 (Windows NT 10.0; Win64; x64) AppleWebKit/537.36 (KHTML, like Gecko) Chrome/99.0.4844.51 Safari/537.36 Edg/99.0.1150.39",xpyriment,legacy,legacy,0,uniform,0,0,0,0,24,24,24,0,0,74,74,74,74,74,0,74,0,,,,,,0,,18-02-22,18-02-22,11:03:26,Fri Mar 18 2022 11:03:26 GMT+0100 (közép-európai téli idő),The main experiment item,yes,0,0,C:/Users/rrics/Documents/!!ResearchBMECOGSCI/gnet,0,0,0,prototype4.png,no,mono,no,18,no,black,no,no,768,1204,3.5.6,legacy,xpyriment,osweb,1.3.13,0,space,space,space,,34384,63602,34384,,2,legacy,824,1536,24,864,24,0,0,1536,1647597839628,1024,2,48000,-16,experiment,prototype2.png,0,even,Win32,121,175427,172422,121,121,699215,700718,694215,176944,694215,121,,,,,,visual_patterns,0,0,0,yes,1366
undefined,undefined,undefined,undefined,white,no,Mozilla,Netscape,"5.0 (Windows NT 10.0; Win64; x64) AppleWebKit/537.36 (KHTML, like Gecko) Chrome/99.0.4844.51 Safari/537.36 Edg/99.0.1150.39",xpyriment,legacy,legacy,0,uniform,0,0,0,0,24,24,24,0,0,74,74,74,74,74,0,74,0,0,0,0,0,0,0,0,18-02-22,18-02-22,11:03:26,Fri Mar 18 2022 11:03:26 GMT+0100 (közép-európai téli idő),The main experiment item,yes,0,0,C:/Users/rrics/Documents/!!ResearchBMECOGSCI/gnet,0,0,0,prototype4.png,no,mono,no,18,no,black,no,no,768,1204,3.5.6,legacy,xpyriment,osweb,1.3.13,0,space,space,space,space,64378,63602,34384,64378,2,legacy,824,1536,24,864,24,0,0,1536,1647597839628,1024,2,48000,-16,experiment,p5sarrsha3.png,0,even,Win32,121,175427,172422,121,121,699215,700718,694215,176944,694215,121,768153,769658,765151,700722,765151,visual_patterns,0,0,0,yes,1366
undefined,undefined,undefined,undefined,white,no,Mozilla,Netscape,"5.0 (Windows NT 10.0; Win64; x64) AppleWebKit/537.36 (KHTML, like Gecko) Chrome/99.0.4844.51 Safari/537.36 Edg/99.0.1150.39",xpyriment,legacy,legacy,0,uniform,0,0,0,0,24,24,24,0,0,74,74,74,74,74,0,74,0,1,1,1,1,1,0,1,18-02-22,18-02-22,11:03:26,Fri Mar 18 2022 11:03:26 GMT+0100 (közép-európai téli idő),The main experiment item,yes,0,0,C:/Users/rrics/Documents/!!ResearchBMECOGSCI/gnet,0,0,0,prototype4.png,no,mono,no,18,no,black,no,no,768,1204,3.5.6,legacy,xpyriment,osweb,1.3.13,0,space,space,space,space,64378,63602,34384,64378,2,legacy,824,1536,24,864,24,0,0,1536,1647597839628,1024,2,48000,-16,experiment,p2sarrshacol1.png,0,even,Win32,121,175427,172422,121,121,699215,700718,694215,176944,694215,121,772673,774187,769670,700722,769670,visual_patterns,0,0,0,yes,1366
undefined,undefined,undefined,undefined,white,no,Mozilla,Netscape,"5.0 (Windows NT 10.0; Win64; x64) AppleWebKit/537.36 (KHTML, like Gecko) Chrome/99.0.4844.51 Safari/537.36 Edg/99.0.1150.39",xpyriment,legacy,legacy,0,uniform,0,0,0,0,24,24,24,0,0,74,74,74,74,74,0,74,0,2,2,2,2,2,0,2,18-02-22,18-02-22,11:03:26,Fri Mar 18 2022 11:03:26 GMT+0100 (közép-európai téli idő),The main experiment item,yes,0,0,C:/Users/rrics/Documents/!!ResearchBMECOGSCI/gnet,0,0,0,prototype4.png,no,mono,no,18,no,black,no,no,768,1204,3.5.6,legacy,xpyriment,osweb,1.3.13,0,space,space,space,space,64378,63602,34384,64378,2,legacy,824,1536,24,864,24,0,0,1536,1647597839628,1024,2,48000,-16,experiment,p4sarr4.png,0,even,Win32,121,175427,172422,121,121,699215,700718,694215,176944,694215,121,777201,778717,774198,700722,774198,visual_patterns,0,0,0,yes,1366
undefined,undefined,undefined,undefined,white,no,Mozilla,Netscape,"5.0 (Windows NT 10.0; Win64; x64) AppleWebKit/537.36 (KHTML, like Gecko) Chrome/99.0.4844.51 Safari/537.36 Edg/99.0.1150.39",xpyriment,legacy,legacy,0,uniform,0,0,0,0,24,24,24,0,0,74,74,74,74,74,0,74,0,3,3,3,3,3,0,3,18-02-22,18-02-22,11:03:26,Fri Mar 18 2022 11:03:26 GMT+0100 (közép-európai téli idő),The main experiment item,yes,0,0,C:/Users/rrics/Documents/!!ResearchBMECOGSCI/gnet,0,0,0,prototype4.png,no,mono,no,18,no,black,no,no,768,1204,3.5.6,legacy,xpyriment,osweb,1.3.13,0,space,space,space,space,64378,63602,34384,64378,2,legacy,824,1536,24,864,24,0,0,1536,1647597839628,1024,2,48000,-16,experiment,p5sarrsha2.png,0,even,Win32,121,175427,172422,121,121,699215,700718,694215,176944,694215,121,781744,783246,778744,700722,778744,visual_patterns,0,0,0,yes,1366
undefined,undefined,undefined,undefined,white,no,Mozilla,Netscape,"5.0 (Windows NT 10.0; Win64; x64) AppleWebKit/537.36 (KHTML, like Gecko) Chrome/99.0.4844.51 Safari/537.36 Edg/99.0.1150.39",xpyriment,legacy,legacy,0,uniform,0,0,0,0,24,24,24,0,0,74,74,74,74,74,0,74,0,4,4,4,4,4,0,4,18-02-22,18-02-22,11:03:26,Fri Mar 18 2022 11:03:26 GMT+0100 (közép-európai téli idő),The main experiment item,yes,0,0,C:/Users/rrics/Documents/!!ResearchBMECOGSCI/gnet,0,0,0,prototype4.png,no,mono,no,18,no,black,no,no,768,1204,3.5.6,legacy,xpyriment,osweb,1.3.13,0,space,space,space,space,64378,63602,34384,64378,2,legacy,824,1536,24,864,24,0,0,1536,1647597839628,1024,2,48000,-16,experiment,p7sarr2.png,0,even,Win32,121,175427,172422,121,121,699215,700718,694215,176944,694215,121,786260,787776,783260,700722,783260,visual_patterns,0,0,0,yes,1366
undefined,undefined,undefined,undefined,white,no,Mozilla,Netscape,"5.0 (Windows NT 10.0; Win64; x64) AppleWebKit/537.36 (KHTML, like Gecko) Chrome/99.0.4844.51 Safari/537.36 Edg/99.0.1150.39",xpyriment,legacy,legacy,0,uniform,0,0,0,0,24,24,24,0,0,74,74,74,74,74,0,74,0,5,5,5,5,5,0,5,18-02-22,18-02-22,11:03:26,Fri Mar 18 2022 11:03:26 GMT+0100 (közép-európai téli idő),The main experiment item,yes,0,0,C:/Users/rrics/Documents/!!ResearchBMECOGSCI/gnet,0,0,0,prototype4.png,no,mono,no,18,no,black,no,no,768,1204,3.5.6,legacy,xpyriment,osweb,1.3.13,0,space,space,space,space,64378,63602,34384,64378,2,legacy,824,1536,24,864,24,0,0,1536,1647597839628,1024,2,48000,-16,experiment,p1sarrsha4.png,0,even,Win32,121,175427,172422,121,121,699215,700718,694215,176944,694215,121,790790,792305,787790,700722,787790,visual_patterns,0,0,0,yes,1366
undefined,undefined,undefined,undefined,white,no,Mozilla,Netscape,"5.0 (Windows NT 10.0; Win64; x64) AppleWebKit/537.36 (KHTML, like Gecko) Chrome/99.0.4844.51 Safari/537.36 Edg/99.0.1150.39",xpyriment,legacy,legacy,0,uniform,0,0,0,0,24,24,24,0,0,74,74,74,74,74,0,74,0,6,6,6,6,6,0,6,18-02-22,18-02-22,11:03:26,Fri Mar 18 2022 11:03:26 GMT+0100 (közép-európai téli idő),The main experiment item,yes,0,0,C:/Users/rrics/Documents/!!ResearchBMECOGSCI/gnet,0,0,0,prototype4.png,no,mono,no,18,no,black,no,no,768,1204,3.5.6,legacy,xpyriment,osweb,1.3.13,0,space,space,space,space,64378,63602,34384,64378,2,legacy,824,1536,24,864,24,0,0,1536,1647597839628,1024,2,48000,-16,experiment,p3sarrcol2.png,0,even,Win32,121,175427,172422,121,121,699215,700718,694215,176944,694215,121,795316,796818,792315,700722,792315,visual_patterns,0,0,0,yes,1366
undefined,undefined,undefined,undefined,white,no,Mozilla,Netscape,"5.0 (Windows NT 10.0; Win64; x64) AppleWebKit/537.36 (KHTML, like Gecko) Chrome/99.0.4844.51 Safari/537.36 Edg/99.0.1150.39",xpyriment,legacy,legacy,0,uniform,0,0,0,0,24,24,24,0,0,74,74,74,74,74,0,74,0,7,7,7,7,7,0,7,18-02-22,18-02-22,11:03:26,Fri Mar 18 2022 11:03:26 GMT+0100 (közép-európai téli idő),The main experiment item,yes,0,0,C:/Users/rrics/Documents/!!ResearchBMECOGSCI/gnet,0,0,0,prototype4.png,no,mono,no,18,no,black,no,no,768,1204,3.5.6,legacy,xpyriment,osweb,1.3.13,0,space,space,space,space,64378,63602,34384,64378,2,legacy,824,1536,24,864,24,0,0,1536,1647597839628,1024,2,48000,-16,experiment,p3sarrcol3.png,0,even,Win32,121,175427,172422,121,121,699215,700718,694215,176944,694215,121,799832,801347,796832,700722,796832,visual_patterns,0,0,0,yes,1366
undefined,undefined,undefined,undefined,white,no,Mozilla,Netscape,"5.0 (Windows NT 10.0; Win64; x64) AppleWebKit/537.36 (KHTML, like Gecko) Chrome/99.0.4844.51 Safari/537.36 Edg/99.0.1150.39",xpyriment,legacy,legacy,0,uniform,0,0,0,0,24,24,24,0,0,74,74,74,74,74,0,74,0,8,8,8,8,8,0,8,18-02-22,18-02-22,11:03:26,Fri Mar 18 2022 11:03:26 GMT+0100 (közép-európai téli idő),The main experiment item,yes,0,0,C:/Users/rrics/Documents/!!ResearchBMECOGSCI/gnet,0,0,0,prototype4.png,no,mono,no,18,no,black,no,no,768,1204,3.5.6,legacy,xpyriment,osweb,1.3.13,0,space,space,space,space,64378,63602,34384,64378,2,legacy,824,1536,24,864,24,0,0,1536,1647597839628,1024,2,48000,-16,experiment,p1sarrsha1.png,0,even,Win32,121,175427,172422,121,121,699215,700718,694215,176944,694215,121,804361,805884,801358,700722,801358,visual_patterns,0,0,0,yes,1366
undefined,undefined,undefined,undefined,white,no,Mozilla,Netscape,"5.0 (Windows NT 10.0; Win64; x64) AppleWebKit/537.36 (KHTML, like Gecko) Chrome/99.0.4844.51 Safari/537.36 Edg/99.0.1150.39",xpyriment,legacy,legacy,0,uniform,0,0,0,0,24,24,24,0,0,74,74,74,74,74,0,74,0,9,9,9,9,9,0,9,18-02-22,18-02-22,11:03:26,Fri Mar 18 2022 11:03:26 GMT+0100 (közép-európai téli idő),The main experiment item,yes,0,0,C:/Users/rrics/Documents/!!ResearchBMECOGSCI/gnet,0,0,0,prototype4.png,no,mono,no,18,no,black,no,no,768,1204,3.5.6,legacy,xpyriment,osweb,1.3.13,0,space,space,space,space,64378,63602,34384,64378,2,legacy,824,1536,24,864,24,0,0,1536,1647597839628,1024,2,48000,-16,experiment,p4sarr1.png,0,even,Win32,121,175427,172422,121,121,699215,700718,694215,176944,694215,121,808902,810406,805892,700722,805892,visual_patterns,0,0,0,yes,1366
undefined,undefined,undefined,undefined,white,no,Mozilla,Netscape,"5.0 (Windows NT 10.0; Win64; x64) AppleWebKit/537.36 (KHTML, like Gecko) Chrome/99.0.4844.51 Safari/537.36 Edg/99.0.1150.39",xpyriment,legacy,legacy,0,uniform,0,0,0,0,24,24,24,0,0,74,74,74,74,74,0,74,0,10,10,10,10,10,0,10,18-02-22,18-02-22,11:03:26,Fri Mar 18 2022 11:03:26 GMT+0100 (közép-európai téli idő),The main experiment item,yes,0,0,C:/Users/rrics/Documents/!!ResearchBMECOGSCI/gnet,0,0,0,prototype4.png,no,mono,no,18,no,black,no,no,768,1204,3.5.6,legacy,xpyriment,osweb,1.3.13,0,space,space,space,space,64378,63602,34384,64378,2,legacy,824,1536,24,864,24,0,0,1536,1647597839628,1024,2,48000,-16,experiment,p9sarr2.png,0,even,Win32,121,175427,172422,121,121,699215,700718,694215,176944,694215,121,813421,814936,810419,700722,810418,visual_patterns,0,0,0,yes,1366
undefined,undefined,undefined,undefined,white,no,Mozilla,Netscape,"5.0 (Windows NT 10.0; Win64; x64) AppleWebKit/537.36 (KHTML, like Gecko) Chrome/99.0.4844.51 Safari/537.36 Edg/99.0.1150.39",xpyriment,legacy,legacy,0,uniform,0,0,0,0,24,24,24,0,0,74,74,74,74,74,0,74,0,11,11,11,11,11,0,11,18-02-22,18-02-22,11:03:26,Fri Mar 18 2022 11:03:26 GMT+0100 (közép-európai téli idő),The main experiment item,yes,0,0,C:/Users/rrics/Documents/!!ResearchBMECOGSCI/gnet,0,0,0,prototype4.png,no,mono,no,18,no,black,no,no,768,1204,3.5.6,legacy,xpyriment,osweb,1.3.13,0,space,space,space,space,64378,63602,34384,64378,2,legacy,824,1536,24,864,24,0,0,1536,1647597839628,1024,2,48000,-16,experiment,p1sarr2.png,0,even,Win32,121,175427,172422,121,121,699215,700718,694215,176944,694215,121,817950,819465,814946,700722,814946,visual_patterns,0,0,0,yes,1366
undefined,undefined,undefined,undefined,white,no,Mozilla,Netscape,"5.0 (Windows NT 10.0; Win64; x64) AppleWebKit/537.36 (KHTML, like Gecko) Chrome/99.0.4844.51 Safari/537.36 Edg/99.0.1150.39",xpyriment,legacy,legacy,0,uniform,0,0,0,0,24,24,24,0,0,74,74,74,74,74,0,74,0,12,12,12,12,12,0,12,18-02-22,18-02-22,11:03:26,Fri Mar 18 2022 11:03:26 GMT+0100 (közép-európai téli idő),The main experiment item,yes,0,0,C:/Users/rrics/Documents/!!ResearchBMECOGSCI/gnet,0,0,0,prototype4.png,no,mono,no,18,no,black,no,no,768,1204,3.5.6,legacy,xpyriment,osweb,1.3.13,0,space,space,space,space,64378,63602,34384,64378,2,legacy,824,1536,24,864,24,0,0,1536,1647597839628,1024,2,48000,-16,experiment,p3sarrcol4.png,0,even,Win32,121,175427,172422,121,121,699215,700718,694215,176944,694215,121,822479,823993,819479,700722,819479,visual_patterns,0,0,0,yes,1366
undefined,undefined,undefined,undefined,white,no,Mozilla,Netscape,"5.0 (Windows NT 10.0; Win64; x64) AppleWebKit/537.36 (KHTML, like Gecko) Chrome/99.0.4844.51 Safari/537.36 Edg/99.0.1150.39",xpyriment,legacy,legacy,0,uniform,0,0,0,0,24,24,24,0,0,74,74,74,74,74,0,74,0,13,13,13,13,13,0,13,18-02-22,18-02-22,11:03:26,Fri Mar 18 2022 11:03:26 GMT+0100 (közép-európai téli idő),The main experiment item,yes,0,0,C:/Users/rrics/Documents/!!ResearchBMECOGSCI/gnet,0,0,0,prototype4.png,no,mono,no,18,no,black,no,no,768,1204,3.5.6,legacy,xpyriment,osweb,1.3.13,0,space,space,space,space,64378,63602,34384,64378,2,legacy,824,1536,24,864,24,0,0,1536,1647597839628,1024,2,48000,-16,experiment,p2sarrshacol2.png,0,even,Win32,121,175427,172422,121,121,699215,700718,694215,176944,694215,121,827005,828507,824006,700722,824006,visual_patterns,0,0,0,yes,1366
undefined,undefined,undefined,undefined,white,no,Mozilla,Netscape,"5.0 (Windows NT 10.0; Win64; x64) AppleWebKit/537.36 (KHTML, like Gecko) Chrome/99.0.4844.51 Safari/537.36 Edg/99.0.1150.39",xpyriment,legacy,legacy,0,uniform,0,0,0,0,24,24,24,0,0,74,74,74,74,74,0,74,0,14,14,14,14,14,0,14,18-02-22,18-02-22,11:03:26,Fri Mar 18 2022 11:03:26 GMT+0100 (közép-európai téli idő),The main experiment item,yes,0,0,C:/Users/rrics/Documents/!!ResearchBMECOGSCI/gnet,0,0,0,prototype4.png,no,mono,no,18,no,black,no,no,768,1204,3.5.6,legacy,xpyriment,osweb,1.3.13,0,space,space,space,space,64378,63602,34384,64378,2,legacy,824,1536,24,864,24,0,0,1536,1647597839628,1024,2,48000,-16,experiment,p6sarr1.png,0,even,Win32,121,175427,172422,121,121,699215,700718,694215,176944,694215,121,831519,833036,828517,700722,828517,visual_patterns,0,0,0,yes,1366
undefined,undefined,undefined,undefined,white,no,Mozilla,Netscape,"5.0 (Windows NT 10.0; Win64; x64) AppleWebKit/537.36 (KHTML, like Gecko) Chrome/99.0.4844.51 Safari/537.36 Edg/99.0.1150.39",xpyriment,legacy,legacy,0,uniform,0,0,0,0,24,24,24,0,0,74,74,74,74,74,0,74,0,15,15,15,15,15,0,15,18-02-22,18-02-22,11:03:26,Fri Mar 18 2022 11:03:26 GMT+0100 (közép-európai téli idő),The main experiment item,yes,0,0,C:/Users/rrics/Documents/!!ResearchBMECOGSCI/gnet,0,0,0,prototype4.png,no,mono,no,18,no,black,no,no,768,1204,3.5.6,legacy,xpyriment,osweb,1.3.13,0,space,space,space,space,64378,63602,34384,64378,2,legacy,824,1536,24,864,24,0,0,1536,1647597839628,1024,2,48000,-16,experiment,p4sarrshacol3.png,0,even,Win32,121,175427,172422,121,121,699215,700718,694215,176944,694215,121,836051,837566,833050,700722,833050,visual_patterns,0,0,0,yes,1366
undefined,undefined,undefined,undefined,white,no,Mozilla,Netscape,"5.0 (Windows NT 10.0; Win64; x64) AppleWebKit/537.36 (KHTML, like Gecko) Chrome/99.0.4844.51 Safari/537.36 Edg/99.0.1150.39",xpyriment,legacy,legacy,0,uniform,0,0,0,0,24,24,24,0,0,74,74,74,74,74,0,74,0,16,16,16,16,16,0,16,18-02-22,18-02-22,11:03:26,Fri Mar 18 2022 11:03:26 GMT+0100 (közép-európai téli idő),The main experiment item,yes,0,0,C:/Users/rrics/Documents/!!ResearchBMECOGSCI/gnet,0,0,0,prototype4.png,no,mono,no,18,no,black,no,no,768,1204,3.5.6,legacy,xpyriment,osweb,1.3.13,0,space,space,space,space,64378,63602,34384,64378,2,legacy,824,1536,24,864,24,0,0,1536,1647597839628,1024,2,48000,-16,experiment,p4sarrshacol4.png,0,even,Win32,121,175427,172422,121,121,699215,700718,694215,176944,694215,121,840578,842094,837579,700722,837579,visual_patterns,0,0,0,yes,1366
undefined,undefined,undefined,undefined,white,no,Mozilla,Netscape,"5.0 (Windows NT 10.0; Win64; x64) AppleWebKit/537.36 (KHTML, like Gecko) Chrome/99.0.4844.51 Safari/537.36 Edg/99.0.1150.39",xpyriment,legacy,legacy,0,uniform,0,0,0,0,24,24,24,0,0,74,74,74,74,74,0,74,0,17,17,17,17,17,0,17,18-02-22,18-02-22,11:03:26,Fri Mar 18 2022 11:03:26 GMT+0100 (közép-európai téli idő),The main experiment item,yes,0,0,C:/Users/rrics/Documents/!!ResearchBMECOGSCI/gnet,0,0,0,prototype4.png,no,mono,no,18,no,black,no,no,768,1204,3.5.6,legacy,xpyriment,osweb,1.3.13,0,space,space,space,space,64378,63602,34384,64378,2,legacy,824,1536,24,864,24,0,0,1536,1647597839628,1024,2,48000,-16,experiment,p2sarrcol1.png,0,even,Win32,121,175427,172422,121,121,699215,700718,694215,176944,694215,121,845109,846624,842107,700722,842107,visual_patterns,0,0,0,yes,1366
undefined,undefined,undefined,undefined,white,no,Mozilla,Netscape,"5.0 (Windows NT 10.0; Win64; x64) AppleWebKit/537.36 (KHTML, like Gecko) Chrome/99.0.4844.51 Safari/537.36 Edg/99.0.1150.39",xpyriment,legacy,legacy,0,uniform,0,0,0,0,24,24,24,0,0,74,74,74,74,74,0,74,0,18,18,18,18,18,0,18,18-02-22,18-02-22,11:03:26,Fri Mar 18 2022 11:03:26 GMT+0100 (közép-európai téli idő),The main experiment item,yes,0,0,C:/Users/rrics/Documents/!!ResearchBMECOGSCI/gnet,0,0,0,prototype4.png,no,mono,no,18,no,black,no,no,768,1204,3.5.6,legacy,xpyriment,osweb,1.3.13,0,space,space,space,space,64378,63602,34384,64378,2,legacy,824,1536,24,864,24,0,0,1536,1647597839628,1024,2,48000,-16,experiment,p1sarr4.png,0,even,Win32,121,175427,172422,121,121,699215,700718,694215,176944,694215,121,849638,851154,846638,700722,846638,visual_patterns,0,0,0,yes,1366
undefined,undefined,undefined,undefined,white,no,Mozilla,Netscape,"5.0 (Windows NT 10.0; Win64; x64) AppleWebKit/537.36 (KHTML, like Gecko) Chrome/99.0.4844.51 Safari/537.36 Edg/99.0.1150.39",xpyriment,legacy,legacy,0,uniform,0,0,0,0,24,24,24,0,0,74,74,74,74,74,0,74,0,19,19,19,19,19,0,19,18-02-22,18-02-22,11:03:26,Fri Mar 18 2022 11:03:26 GMT+0100 (közép-európai téli idő),The main experiment item,yes,0,0,C:/Users/rrics/Documents/!!ResearchBMECOGSCI/gnet,0,0,0,prototype4.png,no,mono,no,18,no,black,no,no,768,1204,3.5.6,legacy,xpyriment,osweb,1.3.13,0,space,space,space,space,64378,63602,34384,64378,2,legacy,824,1536,24,864,24,0,0,1536,1647597839628,1024,2,48000,-16,experiment,p10sarr1.png,0,even,Win32,121,175427,172422,121,121,699215,700718,694215,176944,694215,121,854166,855683,851166,700722,851166,visual_patterns,0,0,0,yes,1366
undefined,undefined,undefined,undefined,white,no,Mozilla,Netscape,"5.0 (Windows NT 10.0; Win64; x64) AppleWebKit/537.36 (KHTML, like Gecko) Chrome/99.0.4844.51 Safari/537.36 Edg/99.0.1150.39",xpyriment,legacy,legacy,0,uniform,0,0,0,0,24,24,24,0,0,74,74,74,74,74,0,74,0,20,20,20,20,20,0,20,18-02-22,18-02-22,11:03:26,Fri Mar 18 2022 11:03:26 GMT+0100 (közép-európai téli idő),The main experiment item,yes,0,0,C:/Users/rrics/Documents/!!ResearchBMECOGSCI/gnet,0,0,0,prototype4.png,no,mono,no,18,no,black,no,no,768,1204,3.5.6,legacy,xpyriment,osweb,1.3.13,0,space,space,space,space,64378,63602,34384,64378,2,legacy,824,1536,24,864,24,0,0,1536,1647597839628,1024,2,48000,-16,experiment,p8sarr3.png,0,even,Win32,121,175427,172422,121,121,699215,700718,694215,176944,694215,121,858698,860213,855696,700722,855696,visual_patterns,0,0,0,yes,1366
undefined,undefined,undefined,undefined,white,no,Mozilla,Netscape,"5.0 (Windows NT 10.0; Win64; x64) AppleWebKit/537.36 (KHTML, like Gecko) Chrome/99.0.4844.51 Safari/537.36 Edg/99.0.1150.39",xpyriment,legacy,legacy,0,uniform,0,0,0,0,24,24,24,0,0,74,74,74,74,74,0,74,0,21,21,21,21,21,0,21,18-02-22,18-02-22,11:03:26,Fri Mar 18 2022 11:03:26 GMT+0100 (közép-európai téli idő),The main experiment item,yes,0,0,C:/Users/rrics/Documents/!!ResearchBMECOGSCI/gnet,0,0,0,prototype4.png,no,mono,no,18,no,black,no,no,768,1204,3.5.6,legacy,xpyriment,osweb,1.3.13,0,space,space,space,space,64378,63602,34384,64378,2,legacy,824,1536,24,864,24,0,0,1536,1647597839628,1024,2,48000,-16,experiment,p9sarr4.png,0,even,Win32,121,175427,172422,121,121,699215,700718,694215,176944,694215,121,863227,864742,860228,700722,860227,visual_patterns,0,0,0,yes,1366
undefined,undefined,undefined,undefined,white,no,Mozilla,Netscape,"5.0 (Windows NT 10.0; Win64; x64) AppleWebKit/537.36 (KHTML, like Gecko) Chrome/99.0.4844.51 Safari/537.36 Edg/99.0.1150.39",xpyriment,legacy,legacy,0,uniform,0,0,0,0,24,24,24,0,0,74,74,74,74,74,0,74,0,22,22,22,22,22,0,22,18-02-22,18-02-22,11:03:26,Fri Mar 18 2022 11:03:26 GMT+0100 (közép-európai téli idő),The main experiment item,yes,0,0,C:/Users/rrics/Documents/!!ResearchBMECOGSCI/gnet,0,0,0,prototype4.png,no,mono,no,18,no,black,no,no,768,1204,3.5.6,legacy,xpyriment,osweb,1.3.13,0,space,space,space,space,64378,63602,34384,64378,2,legacy,824,1536,24,864,24,0,0,1536,1647597839628,1024,2,48000,-16,experiment,p5sarrcol2.png,0,even,Win32,121,175427,172422,121,121,699215,700718,694215,176944,694215,121,867754,869255,864752,700722,864752,visual_patterns,0,0,0,yes,1366
undefined,undefined,undefined,undefined,white,no,Mozilla,Netscape,"5.0 (Windows NT 10.0; Win64; x64) AppleWebKit/537.36 (KHTML, like Gecko) Chrome/99.0.4844.51 Safari/537.36 Edg/99.0.1150.39",xpyriment,legacy,legacy,0,uniform,0,0,0,0,24,24,24,0,0,74,74,74,74,74,0,74,0,23,23,23,23,23,0,23,18-02-22,18-02-22,11:03:26,Fri Mar 18 2022 11:03:26 GMT+0100 (közép-európai téli idő),The main experiment item,yes,0,0,C:/Users/rrics/Documents/!!ResearchBMECOGSCI/gnet,0,0,0,prototype4.png,no,mono,no,18,no,black,no,no,768,1204,3.5.6,legacy,xpyriment,osweb,1.3.13,0,space,space,space,space,64378,63602,34384,64378,2,legacy,824,1536,24,864,24,0,0,1536,1647597839628,1024,2,48000,-16,experiment,p7sarr4.png,0,even,Win32,121,175427,172422,121,121,699215,700718,694215,176944,694215,121,872281,873791,869280,700722,869280,visual_patterns,0,0,0,yes,1366
undefined,undefined,undefined,undefined,white,no,Mozilla,Netscape,"5.0 (Windows NT 10.0; Win64; x64) AppleWebKit/537.36 (KHTML, like Gecko) Chrome/99.0.4844.51 Safari/537.36 Edg/99.0.1150.39",xpyriment,legacy,legacy,0,uniform,0,0,0,0,24,24,24,0,0,74,74,74,74,74,0,74,0,24,24,24,24,24,0,24,18-02-22,18-02-22,11:03:26,Fri Mar 18 2022 11:03:26 GMT+0100 (közép-európai téli idő),The main experiment item,yes,0,0,C:/Users/rrics/Documents/!!ResearchBMECOGSCI/gnet,0,0,0,prototype4.png,no,mono,no,18,no,black,no,no,768,1204,3.5.6,legacy,xpyriment,osweb,1.3.13,0,space,space,space,space,64378,63602,34384,64378,2,legacy,824,1536,24,864,24,0,0,1536,1647597839628,1024,2,48000,-16,experiment,p3sarrsha3.png,0,even,Win32,121,175427,172422,121,121,699215,700718,694215,176944,694215,121,876810,878313,873800,700722,873800,visual_patterns,0,0,0,yes,1366
undefined,undefined,undefined,undefined,white,no,Mozilla,Netscape,"5.0 (Windows NT 10.0; Win64; x64) AppleWebKit/537.36 (KHTML, like Gecko) Chrome/99.0.4844.51 Safari/537.36 Edg/99.0.1150.39",xpyriment,legacy,legacy,0,uniform,0,0,0,0,24,24,24,0,0,74,74,74,74,74,0,74,0,25,25,25,25,25,0,25,18-02-22,18-02-22,11:03:26,Fri Mar 18 2022 11:03:26 GMT+0100 (közép-európai téli idő),The main experiment item,yes,0,0,C:/Users/rrics/Documents/!!ResearchBMECOGSCI/gnet,0,0,0,prototype4.png,no,mono,no,18,no,black,no,no,768,1204,3.5.6,legacy,xpyriment,osweb,1.3.13,0,space,space,space,space,64378,63602,34384,64378,2,legacy,824,1536,24,864,24,0,0,1536,1647597839628,1024,2,48000,-16,experiment,p8sarr4.png,0,even,Win32,121,175427,172422,121,121,699215,700718,694215,176944,694215,121,881326,882843,878328,700722,878328,visual_patterns,0,0,0,yes,1366
undefined,undefined,undefined,undefined,white,no,Mozilla,Netscape,"5.0 (Windows NT 10.0; Win64; x64) AppleWebKit/537.36 (KHTML, like Gecko) Chrome/99.0.4844.51 Safari/537.36 Edg/99.0.1150.39",xpyriment,legacy,legacy,0,uniform,0,0,0,0,24,24,24,0,0,74,74,74,74,74,0,74,0,26,26,26,26,26,0,26,18-02-22,18-02-22,11:03:26,Fri Mar 18 2022 11:03:26 GMT+0100 (közép-európai téli idő),The main experiment item,yes,0,0,C:/Users/rrics/Documents/!!ResearchBMECOGSCI/gnet,0,0,0,prototype4.png,no,mono,no,18,no,black,no,no,768,1204,3.5.6,legacy,xpyriment,osweb,1.3.13,0,space,space,space,space,64378,63602,34384,64378,2,legacy,824,1536,24,864,24,0,0,1536,1647597839628,1024,2,48000,-16,experiment,p2sarrshacol4.png,0,even,Win32,121,175427,172422,121,121,699215,700718,694215,176944,694215,121,885855,887372,882857,700722,882857,visual_patterns,0,0,0,yes,1366
undefined,undefined,undefined,undefined,white,no,Mozilla,Netscape,"5.0 (Windows NT 10.0; Win64; x64) AppleWebKit/537.36 (KHTML, like Gecko) Chrome/99.0.4844.51 Safari/537.36 Edg/99.0.1150.39",xpyriment,legacy,legacy,0,uniform,0,0,0,0,24,24,24,0,0,74,74,74,74,74,0,74,0,27,27,27,27,27,0,27,18-02-22,18-02-22,11:03:26,Fri Mar 18 2022 11:03:26 GMT+0100 (közép-európai téli idő),The main experiment item,yes,0,0,C:/Users/rrics/Documents/!!ResearchBMECOGSCI/gnet,0,0,0,prototype4.png,no,mono,no,18,no,black,no,no,768,1204,3.5.6,legacy,xpyriment,osweb,1.3.13,0,space,space,space,space,64378,63602,34384,64378,2,legacy,824,1536,24,864,24,0,0,1536,1647597839628,1024,2,48000,-16,experiment,p4sarrshacol1.png,0,even,Win32,121,175427,172422,121,121,699215,700718,694215,176944,694215,121,890387,891902,887383,700722,887383,visual_patterns,0,0,0,yes,1366
undefined,undefined,undefined,undefined,white,no,Mozilla,Netscape,"5.0 (Windows NT 10.0; Win64; x64) AppleWebKit/537.36 (KHTML, like Gecko) Chrome/99.0.4844.51 Safari/537.36 Edg/99.0.1150.39",xpyriment,legacy,legacy,0,uniform,0,0,0,0,24,24,24,0,0,74,74,74,74,74,0,74,0,28,28,28,28,28,0,28,18-02-22,18-02-22,11:03:26,Fri Mar 18 2022 11:03:26 GMT+0100 (közép-európai téli idő),The main experiment item,yes,0,0,C:/Users/rrics/Documents/!!ResearchBMECOGSCI/gnet,0,0,0,prototype4.png,no,mono,no,18,no,black,no,no,768,1204,3.5.6,legacy,xpyriment,osweb,1.3.13,0,space,space,space,space,64378,63602,34384,64378,2,legacy,824,1536,24,864,24,0,0,1536,1647597839628,1024,2,48000,-16,experiment,p1sarrshacol3.png,0,even,Win32,121,175427,172422,121,121,699215,700718,694215,176944,694215,121,894914,896431,891916,700722,891916,visual_patterns,0,0,0,yes,1366
undefined,undefined,undefined,undefined,white,no,Mozilla,Netscape,"5.0 (Windows NT 10.0; Win64; x64) AppleWebKit/537.36 (KHTML, like Gecko) Chrome/99.0.4844.51 Safari/537.36 Edg/99.0.1150.39",xpyriment,legacy,legacy,0,uniform,0,0,0,0,24,24,24,0,0,74,74,74,74,74,0,74,0,29,29,29,29,29,0,29,18-02-22,18-02-22,11:03:26,Fri Mar 18 2022 11:03:26 GMT+0100 (közép-európai téli idő),The main experiment item,yes,0,0,C:/Users/rrics/Documents/!!ResearchBMECOGSCI/gnet,0,0,0,prototype4.png,no,mono,no,18,no,black,no,no,768,1204,3.5.6,legacy,xpyriment,osweb,1.3.13,0,space,space,space,space,64378,63602,34384,64378,2,legacy,824,1536,24,864,24,0,0,1536,1647597839628,1024,2,48000,-16,experiment,p2sarrsha1.png,0,even,Win32,121,175427,172422,121,121,699215,700718,694215,176944,694215,121,899443,900944,896443,700722,896443,visual_patterns,0,0,0,yes,1366
undefined,undefined,undefined,undefined,white,no,Mozilla,Netscape,"5.0 (Windows NT 10.0; Win64; x64) AppleWebKit/537.36 (KHTML, like Gecko) Chrome/99.0.4844.51 Safari/537.36 Edg/99.0.1150.39",xpyriment,legacy,legacy,0,uniform,0,0,0,0,24,24,24,0,0,74,74,74,74,74,0,74,0,30,30,30,30,30,0,30,18-02-22,18-02-22,11:03:26,Fri Mar 18 2022 11:03:26 GMT+0100 (közép-európai téli idő),The main experiment item,yes,0,0,C:/Users/rrics/Documents/!!ResearchBMECOGSCI/gnet,0,0,0,prototype4.png,no,mono,no,18,no,black,no,no,768,1204,3.5.6,legacy,xpyriment,osweb,1.3.13,0,space,space,space,space,64378,63602,34384,64378,2,legacy,824,1536,24,864,24,0,0,1536,1647597839628,1024,2,48000,-16,experiment,p3sarr2.png,0,even,Win32,121,175427,172422,121,121,699215,700718,694215,176944,694215,121,903959,905473,900955,700722,900955,visual_patterns,0,0,0,yes,1366
undefined,undefined,undefined,undefined,white,no,Mozilla,Netscape,"5.0 (Windows NT 10.0; Win64; x64) AppleWebKit/537.36 (KHTML, like Gecko) Chrome/99.0.4844.51 Safari/537.36 Edg/99.0.1150.39",xpyriment,legacy,legacy,0,uniform,0,0,0,0,24,24,24,0,0,74,74,74,74,74,0,74,0,31,31,31,31,31,0,31,18-02-22,18-02-22,11:03:26,Fri Mar 18 2022 11:03:26 GMT+0100 (közép-európai téli idő),The main experiment item,yes,0,0,C:/Users/rrics/Documents/!!ResearchBMECOGSCI/gnet,0,0,0,prototype4.png,no,mono,no,18,no,black,no,no,768,1204,3.5.6,legacy,xpyriment,osweb,1.3.13,0,space,space,space,space,64378,63602,34384,64378,2,legacy,824,1536,24,864,24,0,0,1536,1647597839628,1024,2,48000,-16,experiment,p3sarrshacol3.png,0,even,Win32,121,175427,172422,121,121,699215,700718,694215,176944,694215,121,908488,910002,905489,700722,905489,visual_patterns,0,0,0,yes,1366
undefined,undefined,undefined,undefined,white,no,Mozilla,Netscape,"5.0 (Windows NT 10.0; Win64; x64) AppleWebKit/537.36 (KHTML, like Gecko) Chrome/99.0.4844.51 Safari/537.36 Edg/99.0.1150.39",xpyriment,legacy,legacy,0,uniform,0,0,0,0,24,24,24,0,0,74,74,74,74,74,0,74,0,32,32,32,32,32,0,32,18-02-22,18-02-22,11:03:26,Fri Mar 18 2022 11:03:26 GMT+0100 (közép-európai téli idő),The main experiment item,yes,0,0,C:/Users/rrics/Documents/!!ResearchBMECOGSCI/gnet,0,0,0,prototype4.png,no,mono,no,18,no,black,no,no,768,1204,3.5.6,legacy,xpyriment,osweb,1.3.13,0,space,space,space,space,64378,63602,34384,64378,2,legacy,824,1536,24,864,24,0,0,1536,1647597839628,1024,2,48000,-16,experiment,p2sarrcol4.png,0,even,Win32,121,175427,172422,121,121,699215,700718,694215,176944,694215,121,913013,914515,910018,700722,910018,visual_patterns,0,0,0,yes,1366
undefined,undefined,undefined,undefined,white,no,Mozilla,Netscape,"5.0 (Windows NT 10.0; Win64; x64) AppleWebKit/537.36 (KHTML, like Gecko) Chrome/99.0.4844.51 Safari/537.36 Edg/99.0.1150.39",xpyriment,legacy,legacy,0,uniform,0,0,0,0,24,24,24,0,0,74,74,74,74,74,0,74,0,33,33,33,33,33,0,33,18-02-22,18-02-22,11:03:26,Fri Mar 18 2022 11:03:26 GMT+0100 (közép-európai téli idő),The main experiment item,yes,0,0,C:/Users/rrics/Documents/!!ResearchBMECOGSCI/gnet,0,0,0,prototype4.png,no,mono,no,18,no,black,no,no,768,1204,3.5.6,legacy,xpyriment,osweb,1.3.13,0,space,space,space,space,64378,63602,34384,64378,2,legacy,824,1536,24,864,24,0,0,1536,1647597839628,1024,2,48000,-16,experiment,p5sarrcol1.png,0,even,Win32,121,175427,172422,121,121,699215,700718,694215,176944,694215,121,917530,919045,914528,700722,914528,visual_patterns,0,0,0,yes,1366
undefined,undefined,undefined,undefined,white,no,Mozilla,Netscape,"5.0 (Windows NT 10.0; Win64; x64) AppleWebKit/537.36 (KHTML, like Gecko) Chrome/99.0.4844.51 Safari/537.36 Edg/99.0.1150.39",xpyriment,legacy,legacy,0,uniform,0,0,0,0,24,24,24,0,0,74,74,74,74,74,0,74,0,34,34,34,34,34,0,34,18-02-22,18-02-22,11:03:26,Fri Mar 18 2022 11:03:26 GMT+0100 (közép-európai téli idő),The main experiment item,yes,0,0,C:/Users/rrics/Documents/!!ResearchBMECOGSCI/gnet,0,0,0,prototype4.png,no,mono,no,18,no,black,no,no,768,1204,3.5.6,legacy,xpyriment,osweb,1.3.13,0,space,space,space,space,64378,63602,34384,64378,2,legacy,824,1536,24,864,24,0,0,1536,1647597839628,1024,2,48000,-16,experiment,p8sarr2.png,0,even,Win32,121,175427,172422,121,121,699215,700718,694215,176944,694215,121,922056,923557,919056,700722,919056,visual_patterns,0,0,0,yes,1366
undefined,undefined,undefined,undefined,white,no,Mozilla,Netscape,"5.0 (Windows NT 10.0; Win64; x64) AppleWebKit/537.36 (KHTML, like Gecko) Chrome/99.0.4844.51 Safari/537.36 Edg/99.0.1150.39",xpyriment,legacy,legacy,0,uniform,0,0,0,0,24,24,24,0,0,74,74,74,74,74,0,74,0,35,35,35,35,35,0,35,18-02-22,18-02-22,11:03:26,Fri Mar 18 2022 11:03:26 GMT+0100 (közép-európai téli idő),The main experiment item,yes,0,0,C:/Users/rrics/Documents/!!ResearchBMECOGSCI/gnet,0,0,0,prototype4.png,no,mono,no,18,no,black,no,no,768,1204,3.5.6,legacy,xpyriment,osweb,1.3.13,0,space,space,space,space,64378,63602,34384,64378,2,legacy,824,1536,24,864,24,0,0,1536,1647597839628,1024,2,48000,-16,experiment,p5sarr3.png,0,even,Win32,121,175427,172422,121,121,699215,700718,694215,176944,694215,121,926571,928087,923571,700722,923571,visual_patterns,0,0,0,yes,1366
undefined,undefined,undefined,undefined,white,no,Mozilla,Netscape,"5.0 (Windows NT 10.0; Win64; x64) AppleWebKit/537.36 (KHTML, like Gecko) Chrome/99.0.4844.51 Safari/537.36 Edg/99.0.1150.39",xpyriment,legacy,legacy,0,uniform,0,0,0,0,24,24,24,0,0,74,74,74,74,74,0,74,0,36,36,36,36,36,0,36,18-02-22,18-02-22,11:03:26,Fri Mar 18 2022 11:03:26 GMT+0100 (közép-európai téli idő),The main experiment item,yes,0,0,C:/Users/rrics/Documents/!!ResearchBMECOGSCI/gnet,0,0,0,prototype4.png,no,mono,no,18,no,black,no,no,768,1204,3.5.6,legacy,xpyriment,osweb,1.3.13,0,space,space,space,space,64378,63602,34384,64378,2,legacy,824,1536,24,864,24,0,0,1536,1647597839628,1024,2,48000,-16,experiment,p7sarr1.png,0,even,Win32,121,175427,172422,121,121,699215,700718,694215,176944,694215,121,931101,932623,928099,700722,928098,visual_patterns,0,0,0,yes,1366
undefined,undefined,undefined,undefined,white,no,Mozilla,Netscape,"5.0 (Windows NT 10.0; Win64; x64) AppleWebKit/537.36 (KHTML, like Gecko) Chrome/99.0.4844.51 Safari/537.36 Edg/99.0.1150.39",xpyriment,legacy,legacy,0,uniform,0,0,0,0,24,24,24,0,0,74,74,74,74,74,0,74,0,37,37,37,37,37,0,37,18-02-22,18-02-22,11:03:26,Fri Mar 18 2022 11:03:26 GMT+0100 (közép-európai téli idő),The main experiment item,yes,0,0,C:/Users/rrics/Documents/!!ResearchBMECOGSCI/gnet,0,0,0,prototype4.png,no,mono,no,18,no,black,no,no,768,1204,3.5.6,legacy,xpyriment,osweb,1.3.13,0,space,space,space,space,64378,63602,34384,64378,2,legacy,824,1536,24,864,24,0,0,1536,1647597839628,1024,2,48000,-16,experiment,p1sarrcol4.png,0,even,Win32,121,175427,172422,121,121,699215,700718,694215,176944,694215,121,935638,937146,932637,700722,932637,visual_patterns,0,0,0,yes,1366
undefined,undefined,undefined,undefined,white,no,Mozilla,Netscape,"5.0 (Windows NT 10.0; Win64; x64) AppleWebKit/537.36 (KHTML, like Gecko) Chrome/99.0.4844.51 Safari/537.36 Edg/99.0.1150.39",xpyriment,legacy,legacy,0,uniform,0,0,0,0,24,24,24,0,0,74,74,74,74,74,0,74,0,38,38,38,38,38,0,38,18-02-22,18-02-22,11:03:26,Fri Mar 18 2022 11:03:26 GMT+0100 (közép-európai téli idő),The main experiment item,yes,0,0,C:/Users/rrics/Documents/!!ResearchBMECOGSCI/gnet,0,0,0,prototype4.png,no,mono,no,18,no,black,no,no,768,1204,3.5.6,legacy,xpyriment,osweb,1.3.13,0,space,space,space,space,64378,63602,34384,64378,2,legacy,824,1536,24,864,24,0,0,1536,1647597839628,1024,2,48000,-16,experiment,p3sarrsha4.png,0,even,Win32,121,175427,172422,121,121,699215,700718,694215,176944,694215,121,940170,941675,937172,700722,937172,visual_patterns,0,0,0,yes,1366
undefined,undefined,undefined,undefined,white,no,Mozilla,Netscape,"5.0 (Windows NT 10.0; Win64; x64) AppleWebKit/537.36 (KHTML, like Gecko) Chrome/99.0.4844.51 Safari/537.36 Edg/99.0.1150.39",xpyriment,legacy,legacy,0,uniform,0,0,0,0,24,24,24,0,0,74,74,74,74,74,0,74,0,39,39,39,39,39,0,39,18-02-22,18-02-22,11:03:26,Fri Mar 18 2022 11:03:26 GMT+0100 (közép-európai téli idő),The main experiment item,yes,0,0,C:/Users/rrics/Documents/!!ResearchBMECOGSCI/gnet,0,0,0,prototype4.png,no,mono,no,18,no,black,no,no,768,1204,3.5.6,legacy,xpyriment,osweb,1.3.13,0,space,space,space,space,64378,63602,34384,64378,2,legacy,824,1536,24,864,24,0,0,1536,1647597839628,1024,2,48000,-16,experiment,p3sarr1.png,0,even,Win32,121,175427,172422,121,121,699215,700718,694215,176944,694215,121,944686,946188,941686,700722,941686,visual_patterns,0,0,0,yes,1366
undefined,undefined,undefined,undefined,white,no,Mozilla,Netscape,"5.0 (Windows NT 10.0; Win64; x64) AppleWebKit/537.36 (KHTML, like Gecko) Chrome/99.0.4844.51 Safari/537.36 Edg/99.0.1150.39",xpyriment,legacy,legacy,0,uniform,0,0,0,0,24,24,24,0,0,74,74,74,74,74,0,74,0,40,40,40,40,40,0,40,18-02-22,18-02-22,11:03:26,Fri Mar 18 2022 11:03:26 GMT+0100 (közép-európai téli idő),The main experiment item,yes,0,0,C:/Users/rrics/Documents/!!ResearchBMECOGSCI/gnet,0,0,0,prototype4.png,no,mono,no,18,no,black,no,no,768,1204,3.5.6,legacy,xpyriment,osweb,1.3.13,0,space,space,space,space,64378,63602,34384,64378,2,legacy,824,1536,24,864,24,0,0,1536,1647597839628,1024,2,48000,-16,experiment,p2sarrsha3.png,0,even,Win32,121,175427,172422,121,121,699215,700718,694215,176944,694215,121,949202,950717,946201,700722,946201,visual_patterns,0,0,0,yes,1366
undefined,undefined,undefined,undefined,white,no,Mozilla,Netscape,"5.0 (Windows NT 10.0; Win64; x64) AppleWebKit/537.36 (KHTML, like Gecko) Chrome/99.0.4844.51 Safari/537.36 Edg/99.0.1150.39",xpyriment,legacy,legacy,0,uniform,0,0,0,0,24,24,24,0,0,74,74,74,74,74,0,74,0,41,41,41,41,41,0,41,18-02-22,18-02-22,11:03:26,Fri Mar 18 2022 11:03:26 GMT+0100 (közép-európai téli idő),The main experiment item,yes,0,0,C:/Users/rrics/Documents/!!ResearchBMECOGSCI/gnet,0,0,0,prototype4.png,no,mono,no,18,no,black,no,no,768,1204,3.5.6,legacy,xpyriment,osweb,1.3.13,0,space,space,space,space,64378,63602,34384,64378,2,legacy,824,1536,24,864,24,0,0,1536,1647597839628,1024,2,48000,-16,experiment,p9sarr3.png,0,even,Win32,121,175427,172422,121,121,699215,700718,694215,176944,694215,121,953731,955246,950731,700722,950731,visual_patterns,0,0,0,yes,1366
undefined,undefined,undefined,undefined,white,no,Mozilla,Netscape,"5.0 (Windows NT 10.0; Win64; x64) AppleWebKit/537.36 (KHTML, like Gecko) Chrome/99.0.4844.51 Safari/537.36 Edg/99.0.1150.39",xpyriment,legacy,legacy,0,uniform,0,0,0,0,24,24,24,0,0,74,74,74,74,74,0,74,0,42,42,42,42,42,0,42,18-02-22,18-02-22,11:03:26,Fri Mar 18 2022 11:03:26 GMT+0100 (közép-európai téli idő),The main experiment item,yes,0,0,C:/Users/rrics/Documents/!!ResearchBMECOGSCI/gnet,0,0,0,prototype4.png,no,mono,no,18,no,black,no,no,768,1204,3.5.6,legacy,xpyriment,osweb,1.3.13,0,space,space,space,space,64378,63602,34384,64378,2,legacy,824,1536,24,864,24,0,0,1536,1647597839628,1024,2,48000,-16,experiment,p10sarr4.png,0,even,Win32,121,175427,172422,121,121,699215,700718,694215,176944,694215,121,958261,959776,955260,700722,955260,visual_patterns,0,0,0,yes,1366
undefined,undefined,undefined,undefined,white,no,Mozilla,Netscape,"5.0 (Windows NT 10.0; Win64; x64) AppleWebKit/537.36 (KHTML, like Gecko) Chrome/99.0.4844.51 Safari/537.36 Edg/99.0.1150.39",xpyriment,legacy,legacy,0,uniform,0,0,0,0,24,24,24,0,0,74,74,74,74,74,0,74,0,43,43,43,43,43,0,43,18-02-22,18-02-22,11:03:26,Fri Mar 18 2022 11:03:26 GMT+0100 (közép-európai téli idő),The main experiment item,yes,0,0,C:/Users/rrics/Documents/!!ResearchBMECOGSCI/gnet,0,0,0,prototype4.png,no,mono,no,18,no,black,no,no,768,1204,3.5.6,legacy,xpyriment,osweb,1.3.13,0,space,space,space,space,64378,63602,34384,64378,2,legacy,824,1536,24,864,24,0,0,1536,1647597839628,1024,2,48000,-16,experiment,p4sarrcol1.png,0,even,Win32,121,175427,172422,121,121,699215,700718,694215,176944,694215,121,962803,964305,959798,700722,959798,visual_patterns,0,0,0,yes,1366
undefined,undefined,undefined,undefined,white,no,Mozilla,Netscape,"5.0 (Windows NT 10.0; Win64; x64) AppleWebKit/537.36 (KHTML, like Gecko) Chrome/99.0.4844.51 Safari/537.36 Edg/99.0.1150.39",xpyriment,legacy,legacy,0,uniform,0,0,0,0,24,24,24,0,0,74,74,74,74,74,0,74,0,44,44,44,44,44,0,44,18-02-22,18-02-22,11:03:26,Fri Mar 18 2022 11:03:26 GMT+0100 (közép-európai téli idő),The main experiment item,yes,0,0,C:/Users/rrics/Documents/!!ResearchBMECOGSCI/gnet,0,0,0,prototype4.png,no,mono,no,18,no,black,no,no,768,1204,3.5.6,legacy,xpyriment,osweb,1.3.13,0,space,space,space,space,64378,63602,34384,64378,2,legacy,824,1536,24,864,24,0,0,1536,1647597839628,1024,2,48000,-16,experiment,p5sarrshacol4.png,0,even,Win32,121,175427,172422,121,121,699215,700718,694215,176944,694215,121,967319,968834,964319,700722,964319,visual_patterns,0,0,0,yes,1366
undefined,undefined,undefined,undefined,white,no,Mozilla,Netscape,"5.0 (Windows NT 10.0; Win64; x64) AppleWebKit/537.36 (KHTML, like Gecko) Chrome/99.0.4844.51 Safari/537.36 Edg/99.0.1150.39",xpyriment,legacy,legacy,0,uniform,0,0,0,0,24,24,24,0,0,74,74,74,74,74,0,74,0,45,45,45,45,45,0,45,18-02-22,18-02-22,11:03:26,Fri Mar 18 2022 11:03:26 GMT+0100 (közép-európai téli idő),The main experiment item,yes,0,0,C:/Users/rrics/Documents/!!ResearchBMECOGSCI/gnet,0,0,0,prototype4.png,no,mono,no,18,no,black,no,no,768,1204,3.5.6,legacy,xpyriment,osweb,1.3.13,0,space,space,space,space,64378,63602,34384,64378,2,legacy,824,1536,24,864,24,0,0,1536,1647597839628,1024,2,48000,-16,experiment,p3sarr3.png,0,even,Win32,121,175427,172422,121,121,699215,700718,694215,176944,694215,121,971846,973348,968848,700722,968848,visual_patterns,0,0,0,yes,1366
