acc,accuracy,average_response_time,avg_rt,background,bidi,browser_codename,browser_name,browser_version,canvas_backend,clock_backend,color_backend,compensation,coordinates,count_end,count_experiment,count_osweb,count_prestudy,count_prestudy_isi,count_prestudy_sequence,count_prestudy_stimpres,count_start,count_study,count_study_coroutines,count_study_isi,count_study_logger,count_study_response,count_study_sequence,count_study_start,count_study_stimpres,count_test,count_test_coroutines,count_test_isi,count_test_logger,count_test_response,count_test_sequence,count_test_start,count_test_stimpres,date_startdate,date_startdateUTC,date_starttime,datetime,description,disable_garbage_collection,experiment_debug,experiment_parameters,experiment_path,experiment_pilot,experiment_taskname,experiment_taskversion,fampict,font_bold,font_family,font_italic,font_size,font_underline,foreground,form_clicks,fullscreen,height,jatosStudyResultId,jatosVersion,keyboard_backend,mouse_backend,opensesame_codename,opensesame_version,repeat_cycle,response,response_start,response_study_start,response_test_start,response_time,response_time_start,response_time_study_start,response_time_test_start,round_decimals,sampler_backend,screen_availableHeight,screen_availableWidth,screen_colorDepth,screen_height,screen_pixelDepth,screen_screenX,screen_screenY,screen_width,sessionid,sound_buf_size,sound_channels,sound_freq,sound_sample_size,start,stim,subject_nr,subject_parity,system_os,time_prestudy,time_prestudy_isi,time_prestudy_stimpres,time_start,time_study,time_study_isi,time_study_logger,time_study_response,time_study_start,time_study_stimpres,time_test,time_test_isi,time_test_logger,time_test_response,time_test_start,time_test_stimpres,title,total_correct,total_response_time,total_responses,uniform_coordinates,width
undefined,undefined,undefined,undefined,white,no,Mozilla,Netscape,"5.0 (Windows NT 10.0; Win64; x64) AppleWebKit/537.36 (KHTML, like Gecko) Chrome/99.0.4844.74 Safari/537.36",xpyriment,legacy,legacy,0,uniform,0,0,0,0,24,24,24,0,0,0,0,0,0,0,0,0,0,,,,,,0,,18-02-22,18-02-22,11:10:38,Fri Mar 18 2022 11:10:38 GMT+0100 (közép-európai téli idő),The main experiment item,yes,0,0,C:/Users/rrics/Documents/!!ResearchBMECOGSCI/gnet,0,0,0,prototype3.png,no,mono,no,18,no,black,no,no,768,1207,3.5.6,legacy,xpyriment,osweb,1.3.13,0,space,space,space,,51397,25831,51397,,2,legacy,824,1536,24,864,24,0,0,1536,1647598234583,1024,2,48000,-16,experiment,p6sarr1.png,1,odd,Win32,243,137611,134604,243,243,195545,197048,190547,139125,190547,243,,,,,,visual_patterns,0,0,0,yes,1366
undefined,undefined,undefined,undefined,white,no,Mozilla,Netscape,"5.0 (Windows NT 10.0; Win64; x64) AppleWebKit/537.36 (KHTML, like Gecko) Chrome/99.0.4844.74 Safari/537.36",xpyriment,legacy,legacy,0,uniform,0,0,0,0,24,24,24,0,0,1,1,1,1,1,0,1,0,,,,,,0,,18-02-22,18-02-22,11:10:38,Fri Mar 18 2022 11:10:38 GMT+0100 (közép-európai téli idő),The main experiment item,yes,0,0,C:/Users/rrics/Documents/!!ResearchBMECOGSCI/gnet,0,0,0,prototype3.png,no,mono,no,18,no,black,no,no,768,1207,3.5.6,legacy,xpyriment,osweb,1.3.13,0,space,space,space,,51397,25831,51397,,2,legacy,824,1536,24,864,24,0,0,1536,1647598234583,1024,2,48000,-16,experiment,prototype3.png,1,odd,Win32,243,137611,134604,243,243,202086,203597,197082,139125,197082,243,,,,,,visual_patterns,0,0,0,yes,1366
undefined,undefined,undefined,undefined,white,no,Mozilla,Netscape,"5.0 (Windows NT 10.0; Win64; x64) AppleWebKit/537.36 (KHTML, like Gecko) Chrome/99.0.4844.74 Safari/537.36",xpyriment,legacy,legacy,0,uniform,0,0,0,0,24,24,24,0,0,2,2,2,2,2,0,2,0,,,,,,0,,18-02-22,18-02-22,11:10:38,Fri Mar 18 2022 11:10:38 GMT+0100 (közép-európai téli idő),The main experiment item,yes,0,0,C:/Users/rrics/Documents/!!ResearchBMECOGSCI/gnet,0,0,0,prototype3.png,no,mono,no,18,no,black,no,no,768,1207,3.5.6,legacy,xpyriment,osweb,1.3.13,0,space,space,space,,51397,25831,51397,,2,legacy,824,1536,24,864,24,0,0,1536,1647598234583,1024,2,48000,-16,experiment,p3sarr1.png,1,odd,Win32,243,137611,134604,243,243,208607,210112,203609,139125,203608,243,,,,,,visual_patterns,0,0,0,yes,1366
undefined,undefined,undefined,undefined,white,no,Mozilla,Netscape,"5.0 (Windows NT 10.0; Win64; x64) AppleWebKit/537.36 (KHTML, like Gecko) Chrome/99.0.4844.74 Safari/537.36",xpyriment,legacy,legacy,0,uniform,0,0,0,0,24,24,24,0,0,3,3,3,3,3,0,3,0,,,,,,0,,18-02-22,18-02-22,11:10:38,Fri Mar 18 2022 11:10:38 GMT+0100 (közép-európai téli idő),The main experiment item,yes,0,0,C:/Users/rrics/Documents/!!ResearchBMECOGSCI/gnet,0,0,0,prototype3.png,no,mono,no,18,no,black,no,no,768,1207,3.5.6,legacy,xpyriment,osweb,1.3.13,0,space,space,space,,51397,25831,51397,,2,legacy,824,1536,24,864,24,0,0,1536,1647598234583,1024,2,48000,-16,experiment,p9sarr2.png,1,odd,Win32,243,137611,134604,243,243,215120,216627,210124,139125,210124,243,,,,,,visual_patterns,0,0,0,yes,1366
undefined,undefined,undefined,undefined,white,no,Mozilla,Netscape,"5.0 (Windows NT 10.0; Win64; x64) AppleWebKit/537.36 (KHTML, like Gecko) Chrome/99.0.4844.74 Safari/537.36",xpyriment,legacy,legacy,0,uniform,0,0,0,0,24,24,24,0,0,4,4,4,4,4,0,4,0,,,,,,0,,18-02-22,18-02-22,11:10:38,Fri Mar 18 2022 11:10:38 GMT+0100 (közép-európai téli idő),The main experiment item,yes,0,0,C:/Users/rrics/Documents/!!ResearchBMECOGSCI/gnet,0,0,0,prototype3.png,no,mono,no,18,no,black,no,no,768,1207,3.5.6,legacy,xpyriment,osweb,1.3.13,0,space,space,space,,51397,25831,51397,,2,legacy,824,1536,24,864,24,0,0,1536,1647598234583,1024,2,48000,-16,experiment,p4sarr2.png,1,odd,Win32,243,137611,134604,243,243,221638,223143,216639,139125,216639,243,,,,,,visual_patterns,0,0,0,yes,1366
undefined,undefined,undefined,undefined,white,no,Mozilla,Netscape,"5.0 (Windows NT 10.0; Win64; x64) AppleWebKit/537.36 (KHTML, like Gecko) Chrome/99.0.4844.74 Safari/537.36",xpyriment,legacy,legacy,0,uniform,0,0,0,0,24,24,24,0,0,5,5,5,5,5,0,5,0,,,,,,0,,18-02-22,18-02-22,11:10:38,Fri Mar 18 2022 11:10:38 GMT+0100 (közép-európai téli idő),The main experiment item,yes,0,0,C:/Users/rrics/Documents/!!ResearchBMECOGSCI/gnet,0,0,0,prototype3.png,no,mono,no,18,no,black,no,no,768,1207,3.5.6,legacy,xpyriment,osweb,1.3.13,0,space,space,space,,51397,25831,51397,,2,legacy,824,1536,24,864,24,0,0,1536,1647598234583,1024,2,48000,-16,experiment,p4sarrshacol2.png,1,odd,Win32,243,137611,134604,243,243,228155,229658,223155,139125,223155,243,,,,,,visual_patterns,0,0,0,yes,1366
undefined,undefined,undefined,undefined,white,no,Mozilla,Netscape,"5.0 (Windows NT 10.0; Win64; x64) AppleWebKit/537.36 (KHTML, like Gecko) Chrome/99.0.4844.74 Safari/537.36",xpyriment,legacy,legacy,0,uniform,0,0,0,0,24,24,24,0,0,6,6,6,6,6,0,6,0,,,,,,0,,18-02-22,18-02-22,11:10:38,Fri Mar 18 2022 11:10:38 GMT+0100 (közép-európai téli idő),The main experiment item,yes,0,0,C:/Users/rrics/Documents/!!ResearchBMECOGSCI/gnet,0,0,0,prototype3.png,no,mono,no,18,no,black,no,no,768,1207,3.5.6,legacy,xpyriment,osweb,1.3.13,0,space,space,space,,51397,25831,51397,,2,legacy,824,1536,24,864,24,0,0,1536,1647598234583,1024,2,48000,-16,experiment,p5sarrsha2.png,1,odd,Win32,243,137611,134604,243,243,234691,236207,229694,139125,229694,243,,,,,,visual_patterns,0,0,0,yes,1366
undefined,undefined,undefined,undefined,white,no,Mozilla,Netscape,"5.0 (Windows NT 10.0; Win64; x64) AppleWebKit/537.36 (KHTML, like Gecko) Chrome/99.0.4844.74 Safari/537.36",xpyriment,legacy,legacy,0,uniform,0,0,0,0,24,24,24,0,0,7,7,7,7,7,0,7,0,,,,,,0,,18-02-22,18-02-22,11:10:38,Fri Mar 18 2022 11:10:38 GMT+0100 (közép-európai téli idő),The main experiment item,yes,0,0,C:/Users/rrics/Documents/!!ResearchBMECOGSCI/gnet,0,0,0,prototype3.png,no,mono,no,18,no,black,no,no,768,1207,3.5.6,legacy,xpyriment,osweb,1.3.13,0,space,space,space,,51397,25831,51397,,2,legacy,824,1536,24,864,24,0,0,1536,1647598234583,1024,2,48000,-16,experiment,p2sarr1.png,1,odd,Win32,243,137611,134604,243,243,241217,242723,236219,139125,236219,243,,,,,,visual_patterns,0,0,0,yes,1366
undefined,undefined,undefined,undefined,white,no,Mozilla,Netscape,"5.0 (Windows NT 10.0; Win64; x64) AppleWebKit/537.36 (KHTML, like Gecko) Chrome/99.0.4844.74 Safari/537.36",xpyriment,legacy,legacy,0,uniform,0,0,0,0,24,24,24,0,0,8,8,8,8,8,0,8,0,,,,,,0,,18-02-22,18-02-22,11:10:38,Fri Mar 18 2022 11:10:38 GMT+0100 (közép-európai téli idő),The main experiment item,yes,0,0,C:/Users/rrics/Documents/!!ResearchBMECOGSCI/gnet,0,0,0,prototype3.png,no,mono,no,18,no,black,no,no,768,1207,3.5.6,legacy,xpyriment,osweb,1.3.13,0,space,space,space,,51397,25831,51397,,2,legacy,824,1536,24,864,24,0,0,1536,1647598234583,1024,2,48000,-16,experiment,prototype4.png,1,odd,Win32,243,137611,134604,243,243,247733,249239,242733,139125,242733,243,,,,,,visual_patterns,0,0,0,yes,1366
undefined,undefined,undefined,undefined,white,no,Mozilla,Netscape,"5.0 (Windows NT 10.0; Win64; x64) AppleWebKit/537.36 (KHTML, like Gecko) Chrome/99.0.4844.74 Safari/537.36",xpyriment,legacy,legacy,0,uniform,0,0,0,0,24,24,24,0,0,9,9,9,9,9,0,9,0,,,,,,0,,18-02-22,18-02-22,11:10:38,Fri Mar 18 2022 11:10:38 GMT+0100 (közép-európai téli idő),The main experiment item,yes,0,0,C:/Users/rrics/Documents/!!ResearchBMECOGSCI/gnet,0,0,0,prototype3.png,no,mono,no,18,no,black,no,no,768,1207,3.5.6,legacy,xpyriment,osweb,1.3.13,0,space,space,space,,51397,25831,51397,,2,legacy,824,1536,24,864,24,0,0,1536,1647598234583,1024,2,48000,-16,experiment,p5sarrsha1.png,1,odd,Win32,243,137611,134604,243,243,254249,255754,249251,139125,249251,243,,,,,,visual_patterns,0,0,0,yes,1366
undefined,undefined,undefined,undefined,white,no,Mozilla,Netscape,"5.0 (Windows NT 10.0; Win64; x64) AppleWebKit/537.36 (KHTML, like Gecko) Chrome/99.0.4844.74 Safari/537.36",xpyriment,legacy,legacy,0,uniform,0,0,0,0,24,24,24,0,0,10,10,10,10,10,0,10,0,,,,,,0,,18-02-22,18-02-22,11:10:38,Fri Mar 18 2022 11:10:38 GMT+0100 (közép-európai téli idő),The main experiment item,yes,0,0,C:/Users/rrics/Documents/!!ResearchBMECOGSCI/gnet,0,0,0,prototype3.png,no,mono,no,18,no,black,no,no,768,1207,3.5.6,legacy,xpyriment,osweb,1.3.13,0,space,space,space,,51397,25831,51397,,2,legacy,824,1536,24,864,24,0,0,1536,1647598234583,1024,2,48000,-16,experiment,p5sarrcol1.png,1,odd,Win32,243,137611,134604,243,243,260766,262269,255765,139125,255765,243,,,,,,visual_patterns,0,0,0,yes,1366
undefined,undefined,undefined,undefined,white,no,Mozilla,Netscape,"5.0 (Windows NT 10.0; Win64; x64) AppleWebKit/537.36 (KHTML, like Gecko) Chrome/99.0.4844.74 Safari/537.36",xpyriment,legacy,legacy,0,uniform,0,0,0,0,24,24,24,0,0,11,11,11,11,11,0,11,0,,,,,,0,,18-02-22,18-02-22,11:10:38,Fri Mar 18 2022 11:10:38 GMT+0100 (közép-európai téli idő),The main experiment item,yes,0,0,C:/Users/rrics/Documents/!!ResearchBMECOGSCI/gnet,0,0,0,prototype3.png,no,mono,no,18,no,black,no,no,768,1207,3.5.6,legacy,xpyriment,osweb,1.3.13,0,space,space,space,,51397,25831,51397,,2,legacy,824,1536,24,864,24,0,0,1536,1647598234583,1024,2,48000,-16,experiment,p8sarr2.png,1,odd,Win32,243,137611,134604,243,243,267283,268785,262280,139125,262280,243,,,,,,visual_patterns,0,0,0,yes,1366
undefined,undefined,undefined,undefined,white,no,Mozilla,Netscape,"5.0 (Windows NT 10.0; Win64; x64) AppleWebKit/537.36 (KHTML, like Gecko) Chrome/99.0.4844.74 Safari/537.36",xpyriment,legacy,legacy,0,uniform,0,0,0,0,24,24,24,0,0,12,12,12,12,12,0,12,0,,,,,,0,,18-02-22,18-02-22,11:10:38,Fri Mar 18 2022 11:10:38 GMT+0100 (közép-európai téli idő),The main experiment item,yes,0,0,C:/Users/rrics/Documents/!!ResearchBMECOGSCI/gnet,0,0,0,prototype3.png,no,mono,no,18,no,black,no,no,768,1207,3.5.6,legacy,xpyriment,osweb,1.3.13,0,space,space,space,,51397,25831,51397,,2,legacy,824,1536,24,864,24,0,0,1536,1647598234583,1024,2,48000,-16,experiment,p5sarrshacol2.png,1,odd,Win32,243,137611,134604,243,243,273796,275300,268798,139125,268798,243,,,,,,visual_patterns,0,0,0,yes,1366
undefined,undefined,undefined,undefined,white,no,Mozilla,Netscape,"5.0 (Windows NT 10.0; Win64; x64) AppleWebKit/537.36 (KHTML, like Gecko) Chrome/99.0.4844.74 Safari/537.36",xpyriment,legacy,legacy,0,uniform,0,0,0,0,24,24,24,0,0,13,13,13,13,13,0,13,0,,,,,,0,,18-02-22,18-02-22,11:10:38,Fri Mar 18 2022 11:10:38 GMT+0100 (közép-európai téli idő),The main experiment item,yes,0,0,C:/Users/rrics/Documents/!!ResearchBMECOGSCI/gnet,0,0,0,prototype3.png,no,mono,no,18,no,black,no,no,768,1207,3.5.6,legacy,xpyriment,osweb,1.3.13,0,space,space,space,,51397,25831,51397,,2,legacy,824,1536,24,864,24,0,0,1536,1647598234583,1024,2,48000,-16,experiment,p8sarr1.png,1,odd,Win32,243,137611,134604,243,243,280310,281817,275312,139125,275312,243,,,,,,visual_patterns,0,0,0,yes,1366
undefined,undefined,undefined,undefined,white,no,Mozilla,Netscape,"5.0 (Windows NT 10.0; Win64; x64) AppleWebKit/537.36 (KHTML, like Gecko) Chrome/99.0.4844.74 Safari/537.36",xpyriment,legacy,legacy,0,uniform,0,0,0,0,24,24,24,0,0,14,14,14,14,14,0,14,0,,,,,,0,,18-02-22,18-02-22,11:10:38,Fri Mar 18 2022 11:10:38 GMT+0100 (közép-európai téli idő),The main experiment item,yes,0,0,C:/Users/rrics/Documents/!!ResearchBMECOGSCI/gnet,0,0,0,prototype3.png,no,mono,no,18,no,black,no,no,768,1207,3.5.6,legacy,xpyriment,osweb,1.3.13,0,space,space,space,,51397,25831,51397,,2,legacy,824,1536,24,864,24,0,0,1536,1647598234583,1024,2,48000,-16,experiment,p3sarrcol1.png,1,odd,Win32,243,137611,134604,243,243,286828,288332,281829,139125,281829,243,,,,,,visual_patterns,0,0,0,yes,1366
undefined,undefined,undefined,undefined,white,no,Mozilla,Netscape,"5.0 (Windows NT 10.0; Win64; x64) AppleWebKit/537.36 (KHTML, like Gecko) Chrome/99.0.4844.74 Safari/537.36",xpyriment,legacy,legacy,0,uniform,0,0,0,0,24,24,24,0,0,15,15,15,15,15,0,15,0,,,,,,0,,18-02-22,18-02-22,11:10:38,Fri Mar 18 2022 11:10:38 GMT+0100 (közép-európai téli idő),The main experiment item,yes,0,0,C:/Users/rrics/Documents/!!ResearchBMECOGSCI/gnet,0,0,0,prototype3.png,no,mono,no,18,no,black,no,no,768,1207,3.5.6,legacy,xpyriment,osweb,1.3.13,0,space,space,space,,51397,25831,51397,,2,legacy,824,1536,24,864,24,0,0,1536,1647598234583,1024,2,48000,-16,experiment,prototype1.png,1,odd,Win32,243,137611,134604,243,243,293341,294848,288341,139125,288341,243,,,,,,visual_patterns,0,0,0,yes,1366
undefined,undefined,undefined,undefined,white,no,Mozilla,Netscape,"5.0 (Windows NT 10.0; Win64; x64) AppleWebKit/537.36 (KHTML, like Gecko) Chrome/99.0.4844.74 Safari/537.36",xpyriment,legacy,legacy,0,uniform,0,0,0,0,24,24,24,0,0,16,16,16,16,16,0,16,0,,,,,,0,,18-02-22,18-02-22,11:10:38,Fri Mar 18 2022 11:10:38 GMT+0100 (közép-európai téli idő),The main experiment item,yes,0,0,C:/Users/rrics/Documents/!!ResearchBMECOGSCI/gnet,0,0,0,prototype3.png,no,mono,no,18,no,black,no,no,768,1207,3.5.6,legacy,xpyriment,osweb,1.3.13,0,space,space,space,,51397,25831,51397,,2,legacy,824,1536,24,864,24,0,0,1536,1647598234583,1024,2,48000,-16,experiment,p2sarr2.png,1,odd,Win32,243,137611,134604,243,243,299859,301363,294859,139125,294859,243,,,,,,visual_patterns,0,0,0,yes,1366
undefined,undefined,undefined,undefined,white,no,Mozilla,Netscape,"5.0 (Windows NT 10.0; Win64; x64) AppleWebKit/537.36 (KHTML, like Gecko) Chrome/99.0.4844.74 Safari/537.36",xpyriment,legacy,legacy,0,uniform,0,0,0,0,24,24,24,0,0,17,17,17,17,17,0,17,0,,,,,,0,,18-02-22,18-02-22,11:10:38,Fri Mar 18 2022 11:10:38 GMT+0100 (közép-európai téli idő),The main experiment item,yes,0,0,C:/Users/rrics/Documents/!!ResearchBMECOGSCI/gnet,0,0,0,prototype3.png,no,mono,no,18,no,black,no,no,768,1207,3.5.6,legacy,xpyriment,osweb,1.3.13,0,space,space,space,,51397,25831,51397,,2,legacy,824,1536,24,864,24,0,0,1536,1647598234583,1024,2,48000,-16,experiment,p3sarrsha2.png,1,odd,Win32,243,137611,134604,243,243,306373,307878,301375,139125,301375,243,,,,,,visual_patterns,0,0,0,yes,1366
undefined,undefined,undefined,undefined,white,no,Mozilla,Netscape,"5.0 (Windows NT 10.0; Win64; x64) AppleWebKit/537.36 (KHTML, like Gecko) Chrome/99.0.4844.74 Safari/537.36",xpyriment,legacy,legacy,0,uniform,0,0,0,0,24,24,24,0,0,18,18,18,18,18,0,18,0,,,,,,0,,18-02-22,18-02-22,11:10:38,Fri Mar 18 2022 11:10:38 GMT+0100 (közép-európai téli idő),The main experiment item,yes,0,0,C:/Users/rrics/Documents/!!ResearchBMECOGSCI/gnet,0,0,0,prototype3.png,no,mono,no,18,no,black,no,no,768,1207,3.5.6,legacy,xpyriment,osweb,1.3.13,0,space,space,space,,51397,25831,51397,,2,legacy,824,1536,24,864,24,0,0,1536,1647598234583,1024,2,48000,-16,experiment,prototype4.png,1,odd,Win32,243,137611,134604,243,243,312888,314393,307889,139125,307889,243,,,,,,visual_patterns,0,0,0,yes,1366
undefined,undefined,undefined,undefined,white,no,Mozilla,Netscape,"5.0 (Windows NT 10.0; Win64; x64) AppleWebKit/537.36 (KHTML, like Gecko) Chrome/99.0.4844.74 Safari/537.36",xpyriment,legacy,legacy,0,uniform,0,0,0,0,24,24,24,0,0,19,19,19,19,19,0,19,0,,,,,,0,,18-02-22,18-02-22,11:10:38,Fri Mar 18 2022 11:10:38 GMT+0100 (közép-európai téli idő),The main experiment item,yes,0,0,C:/Users/rrics/Documents/!!ResearchBMECOGSCI/gnet,0,0,0,prototype3.png,no,mono,no,18,no,black,no,no,768,1207,3.5.6,legacy,xpyriment,osweb,1.3.13,0,space,space,space,,51397,25831,51397,,2,legacy,824,1536,24,864,24,0,0,1536,1647598234583,1024,2,48000,-16,experiment,p3sarrsha1.png,1,odd,Win32,243,137611,134604,243,243,319404,320909,314404,139125,314404,243,,,,,,visual_patterns,0,0,0,yes,1366
undefined,undefined,undefined,undefined,white,no,Mozilla,Netscape,"5.0 (Windows NT 10.0; Win64; x64) AppleWebKit/537.36 (KHTML, like Gecko) Chrome/99.0.4844.74 Safari/537.36",xpyriment,legacy,legacy,0,uniform,0,0,0,0,24,24,24,0,0,20,20,20,20,20,0,20,0,,,,,,0,,18-02-22,18-02-22,11:10:38,Fri Mar 18 2022 11:10:38 GMT+0100 (közép-európai téli idő),The main experiment item,yes,0,0,C:/Users/rrics/Documents/!!ResearchBMECOGSCI/gnet,0,0,0,prototype3.png,no,mono,no,18,no,black,no,no,768,1207,3.5.6,legacy,xpyriment,osweb,1.3.13,0,space,space,space,,51397,25831,51397,,2,legacy,824,1536,24,864,24,0,0,1536,1647598234583,1024,2,48000,-16,experiment,prototype2.png,1,odd,Win32,243,137611,134604,243,243,325920,327425,320919,139125,320919,243,,,,,,visual_patterns,0,0,0,yes,1366
undefined,undefined,undefined,undefined,white,no,Mozilla,Netscape,"5.0 (Windows NT 10.0; Win64; x64) AppleWebKit/537.36 (KHTML, like Gecko) Chrome/99.0.4844.74 Safari/537.36",xpyriment,legacy,legacy,0,uniform,0,0,0,0,24,24,24,0,0,21,21,21,21,21,0,21,0,,,,,,0,,18-02-22,18-02-22,11:10:38,Fri Mar 18 2022 11:10:38 GMT+0100 (közép-európai téli idő),The main experiment item,yes,0,0,C:/Users/rrics/Documents/!!ResearchBMECOGSCI/gnet,0,0,0,prototype3.png,no,mono,no,18,no,black,no,no,768,1207,3.5.6,legacy,xpyriment,osweb,1.3.13,0,space,space,space,,51397,25831,51397,,2,legacy,824,1536,24,864,24,0,0,1536,1647598234583,1024,2,48000,-16,experiment,p4sarrcol2.png,1,odd,Win32,243,137611,134604,243,243,332436,333940,327437,139125,327437,243,,,,,,visual_patterns,0,0,0,yes,1366
undefined,undefined,undefined,undefined,white,no,Mozilla,Netscape,"5.0 (Windows NT 10.0; Win64; x64) AppleWebKit/537.36 (KHTML, like Gecko) Chrome/99.0.4844.74 Safari/537.36",xpyriment,legacy,legacy,0,uniform,0,0,0,0,24,24,24,0,0,22,22,22,22,22,0,22,0,,,,,,0,,18-02-22,18-02-22,11:10:38,Fri Mar 18 2022 11:10:38 GMT+0100 (közép-európai téli idő),The main experiment item,yes,0,0,C:/Users/rrics/Documents/!!ResearchBMECOGSCI/gnet,0,0,0,prototype3.png,no,mono,no,18,no,black,no,no,768,1207,3.5.6,legacy,xpyriment,osweb,1.3.13,0,space,space,space,,51397,25831,51397,,2,legacy,824,1536,24,864,24,0,0,1536,1647598234583,1024,2,48000,-16,experiment,p5sarrshacol1.png,1,odd,Win32,243,137611,134604,243,243,338950,340456,333953,139125,333953,243,,,,,,visual_patterns,0,0,0,yes,1366
undefined,undefined,undefined,undefined,white,no,Mozilla,Netscape,"5.0 (Windows NT 10.0; Win64; x64) AppleWebKit/537.36 (KHTML, like Gecko) Chrome/99.0.4844.74 Safari/537.36",xpyriment,legacy,legacy,0,uniform,0,0,0,0,24,24,24,0,0,23,23,23,23,23,0,23,0,,,,,,0,,18-02-22,18-02-22,11:10:38,Fri Mar 18 2022 11:10:38 GMT+0100 (közép-európai téli idő),The main experiment item,yes,0,0,C:/Users/rrics/Documents/!!ResearchBMECOGSCI/gnet,0,0,0,prototype3.png,no,mono,no,18,no,black,no,no,768,1207,3.5.6,legacy,xpyriment,osweb,1.3.13,0,space,space,space,,51397,25831,51397,,2,legacy,824,1536,24,864,24,0,0,1536,1647598234583,1024,2,48000,-16,experiment,prototype2.png,1,odd,Win32,243,137611,134604,243,243,345466,346971,340467,139125,340467,243,,,,,,visual_patterns,0,0,0,yes,1366
undefined,undefined,undefined,undefined,white,no,Mozilla,Netscape,"5.0 (Windows NT 10.0; Win64; x64) AppleWebKit/537.36 (KHTML, like Gecko) Chrome/99.0.4844.74 Safari/537.36",xpyriment,legacy,legacy,0,uniform,0,0,0,0,24,24,24,0,0,24,24,24,24,24,0,24,0,,,,,,0,,18-02-22,18-02-22,11:10:38,Fri Mar 18 2022 11:10:38 GMT+0100 (közép-európai téli idő),The main experiment item,yes,0,0,C:/Users/rrics/Documents/!!ResearchBMECOGSCI/gnet,0,0,0,prototype3.png,no,mono,no,18,no,black,no,no,768,1207,3.5.6,legacy,xpyriment,osweb,1.3.13,0,space,space,space,,51397,25831,51397,,2,legacy,824,1536,24,864,24,0,0,1536,1647598234583,1024,2,48000,-16,experiment,p4sarrsha2.png,1,odd,Win32,243,137611,134604,243,243,351981,353487,346983,139125,346983,243,,,,,,visual_patterns,0,0,0,yes,1366
undefined,undefined,undefined,undefined,white,no,Mozilla,Netscape,"5.0 (Windows NT 10.0; Win64; x64) AppleWebKit/537.36 (KHTML, like Gecko) Chrome/99.0.4844.74 Safari/537.36",xpyriment,legacy,legacy,0,uniform,0,0,0,0,24,24,24,0,0,25,25,25,25,25,0,25,0,,,,,,0,,18-02-22,18-02-22,11:10:38,Fri Mar 18 2022 11:10:38 GMT+0100 (közép-európai téli idő),The main experiment item,yes,0,0,C:/Users/rrics/Documents/!!ResearchBMECOGSCI/gnet,0,0,0,prototype3.png,no,mono,no,18,no,black,no,no,768,1207,3.5.6,legacy,xpyriment,osweb,1.3.13,0,space,space,space,,51397,25831,51397,,2,legacy,824,1536,24,864,24,0,0,1536,1647598234583,1024,2,48000,-16,experiment,p9sarr1.png,1,odd,Win32,243,137611,134604,243,243,358497,360003,353499,139125,353499,243,,,,,,visual_patterns,0,0,0,yes,1366
undefined,undefined,undefined,undefined,white,no,Mozilla,Netscape,"5.0 (Windows NT 10.0; Win64; x64) AppleWebKit/537.36 (KHTML, like Gecko) Chrome/99.0.4844.74 Safari/537.36",xpyriment,legacy,legacy,0,uniform,0,0,0,0,24,24,24,0,0,26,26,26,26,26,0,26,0,,,,,,0,,18-02-22,18-02-22,11:10:38,Fri Mar 18 2022 11:10:38 GMT+0100 (közép-európai téli idő),The main experiment item,yes,0,0,C:/Users/rrics/Documents/!!ResearchBMECOGSCI/gnet,0,0,0,prototype3.png,no,mono,no,18,no,black,no,no,768,1207,3.5.6,legacy,xpyriment,osweb,1.3.13,0,space,space,space,,51397,25831,51397,,2,legacy,824,1536,24,864,24,0,0,1536,1647598234583,1024,2,48000,-16,experiment,prototype1.png,1,odd,Win32,243,137611,134604,243,243,365034,366535,360034,139125,360034,243,,,,,,visual_patterns,0,0,0,yes,1366
undefined,undefined,undefined,undefined,white,no,Mozilla,Netscape,"5.0 (Windows NT 10.0; Win64; x64) AppleWebKit/537.36 (KHTML, like Gecko) Chrome/99.0.4844.74 Safari/537.36",xpyriment,legacy,legacy,0,uniform,0,0,0,0,24,24,24,0,0,27,27,27,27,27,0,27,0,,,,,,0,,18-02-22,18-02-22,11:10:38,Fri Mar 18 2022 11:10:38 GMT+0100 (közép-európai téli idő),The main experiment item,yes,0,0,C:/Users/rrics/Documents/!!ResearchBMECOGSCI/gnet,0,0,0,prototype3.png,no,mono,no,18,no,black,no,no,768,1207,3.5.6,legacy,xpyriment,osweb,1.3.13,0,space,space,space,,51397,25831,51397,,2,legacy,824,1536,24,864,24,0,0,1536,1647598234583,1024,2,48000,-16,experiment,p4sarrcol1.png,1,odd,Win32,243,137611,134604,243,243,371543,373050,366546,139125,366546,243,,,,,,visual_patterns,0,0,0,yes,1366
undefined,undefined,undefined,undefined,white,no,Mozilla,Netscape,"5.0 (Windows NT 10.0; Win64; x64) AppleWebKit/537.36 (KHTML, like Gecko) Chrome/99.0.4844.74 Safari/537.36",xpyriment,legacy,legacy,0,uniform,0,0,0,0,24,24,24,0,0,28,28,28,28,28,0,28,0,,,,,,0,,18-02-22,18-02-22,11:10:38,Fri Mar 18 2022 11:10:38 GMT+0100 (közép-európai téli idő),The main experiment item,yes,0,0,C:/Users/rrics/Documents/!!ResearchBMECOGSCI/gnet,0,0,0,prototype3.png,no,mono,no,18,no,black,no,no,768,1207,3.5.6,legacy,xpyriment,osweb,1.3.13,0,space,space,space,,51397,25831,51397,,2,legacy,824,1536,24,864,24,0,0,1536,1647598234583,1024,2,48000,-16,experiment,prototype4.png,1,odd,Win32,243,137611,134604,243,243,378059,379566,373060,139125,373060,243,,,,,,visual_patterns,0,0,0,yes,1366
undefined,undefined,undefined,undefined,white,no,Mozilla,Netscape,"5.0 (Windows NT 10.0; Win64; x64) AppleWebKit/537.36 (KHTML, like Gecko) Chrome/99.0.4844.74 Safari/537.36",xpyriment,legacy,legacy,0,uniform,0,0,0,0,24,24,24,0,0,29,29,29,29,29,0,29,0,,,,,,0,,18-02-22,18-02-22,11:10:38,Fri Mar 18 2022 11:10:38 GMT+0100 (közép-európai téli idő),The main experiment item,yes,0,0,C:/Users/rrics/Documents/!!ResearchBMECOGSCI/gnet,0,0,0,prototype3.png,no,mono,no,18,no,black,no,no,768,1207,3.5.6,legacy,xpyriment,osweb,1.3.13,0,space,space,space,,51397,25831,51397,,2,legacy,824,1536,24,864,24,0,0,1536,1647598234583,1024,2,48000,-16,experiment,prototype5.png,1,odd,Win32,243,137611,134604,243,243,384576,386081,379579,139125,379579,243,,,,,,visual_patterns,0,0,0,yes,1366
undefined,undefined,undefined,undefined,white,no,Mozilla,Netscape,"5.0 (Windows NT 10.0; Win64; x64) AppleWebKit/537.36 (KHTML, like Gecko) Chrome/99.0.4844.74 Safari/537.36",xpyriment,legacy,legacy,0,uniform,0,0,0,0,24,24,24,0,0,30,30,30,30,30,0,30,0,,,,,,0,,18-02-22,18-02-22,11:10:38,Fri Mar 18 2022 11:10:38 GMT+0100 (közép-európai téli idő),The main experiment item,yes,0,0,C:/Users/rrics/Documents/!!ResearchBMECOGSCI/gnet,0,0,0,prototype3.png,no,mono,no,18,no,black,no,no,768,1207,3.5.6,legacy,xpyriment,osweb,1.3.13,0,space,space,space,,51397,25831,51397,,2,legacy,824,1536,24,864,24,0,0,1536,1647598234583,1024,2,48000,-16,experiment,p5sarrcol2.png,1,odd,Win32,243,137611,134604,243,243,391091,392597,386100,139125,386100,243,,,,,,visual_patterns,0,0,0,yes,1366
undefined,undefined,undefined,undefined,white,no,Mozilla,Netscape,"5.0 (Windows NT 10.0; Win64; x64) AppleWebKit/537.36 (KHTML, like Gecko) Chrome/99.0.4844.74 Safari/537.36",xpyriment,legacy,legacy,0,uniform,0,0,0,0,24,24,24,0,0,31,31,31,31,31,0,31,0,,,,,,0,,18-02-22,18-02-22,11:10:38,Fri Mar 18 2022 11:10:38 GMT+0100 (közép-európai téli idő),The main experiment item,yes,0,0,C:/Users/rrics/Documents/!!ResearchBMECOGSCI/gnet,0,0,0,prototype3.png,no,mono,no,18,no,black,no,no,768,1207,3.5.6,legacy,xpyriment,osweb,1.3.13,0,space,space,space,,51397,25831,51397,,2,legacy,824,1536,24,864,24,0,0,1536,1647598234583,1024,2,48000,-16,experiment,p2sarrsha2.png,1,odd,Win32,243,137611,134604,243,243,397621,399129,392619,139125,392619,243,,,,,,visual_patterns,0,0,0,yes,1366
undefined,undefined,undefined,undefined,white,no,Mozilla,Netscape,"5.0 (Windows NT 10.0; Win64; x64) AppleWebKit/537.36 (KHTML, like Gecko) Chrome/99.0.4844.74 Safari/537.36",xpyriment,legacy,legacy,0,uniform,0,0,0,0,24,24,24,0,0,32,32,32,32,32,0,32,0,,,,,,0,,18-02-22,18-02-22,11:10:38,Fri Mar 18 2022 11:10:38 GMT+0100 (közép-európai téli idő),The main experiment item,yes,0,0,C:/Users/rrics/Documents/!!ResearchBMECOGSCI/gnet,0,0,0,prototype3.png,no,mono,no,18,no,black,no,no,768,1207,3.5.6,legacy,xpyriment,osweb,1.3.13,0,space,space,space,,51397,25831,51397,,2,legacy,824,1536,24,864,24,0,0,1536,1647598234583,1024,2,48000,-16,experiment,p5sarr1.png,1,odd,Win32,243,137611,134604,243,243,404139,405645,399140,139125,399140,243,,,,,,visual_patterns,0,0,0,yes,1366
undefined,undefined,undefined,undefined,white,no,Mozilla,Netscape,"5.0 (Windows NT 10.0; Win64; x64) AppleWebKit/537.36 (KHTML, like Gecko) Chrome/99.0.4844.74 Safari/537.36",xpyriment,legacy,legacy,0,uniform,0,0,0,0,24,24,24,0,0,33,33,33,33,33,0,33,0,,,,,,0,,18-02-22,18-02-22,11:10:38,Fri Mar 18 2022 11:10:38 GMT+0100 (közép-európai téli idő),The main experiment item,yes,0,0,C:/Users/rrics/Documents/!!ResearchBMECOGSCI/gnet,0,0,0,prototype3.png,no,mono,no,18,no,black,no,no,768,1207,3.5.6,legacy,xpyriment,osweb,1.3.13,0,space,space,space,,51397,25831,51397,,2,legacy,824,1536,24,864,24,0,0,1536,1647598234583,1024,2,48000,-16,experiment,p3sarrshacol1.png,1,odd,Win32,243,137611,134604,243,243,410656,412161,405662,139125,405662,243,,,,,,visual_patterns,0,0,0,yes,1366
undefined,undefined,undefined,undefined,white,no,Mozilla,Netscape,"5.0 (Windows NT 10.0; Win64; x64) AppleWebKit/537.36 (KHTML, like Gecko) Chrome/99.0.4844.74 Safari/537.36",xpyriment,legacy,legacy,0,uniform,0,0,0,0,24,24,24,0,0,34,34,34,34,34,0,34,0,,,,,,0,,18-02-22,18-02-22,11:10:38,Fri Mar 18 2022 11:10:38 GMT+0100 (közép-európai téli idő),The main experiment item,yes,0,0,C:/Users/rrics/Documents/!!ResearchBMECOGSCI/gnet,0,0,0,prototype3.png,no,mono,no,18,no,black,no,no,768,1207,3.5.6,legacy,xpyriment,osweb,1.3.13,0,space,space,space,,51397,25831,51397,,2,legacy,824,1536,24,864,24,0,0,1536,1647598234583,1024,2,48000,-16,experiment,prototype1.png,1,odd,Win32,243,137611,134604,243,243,417170,418676,412179,139125,412179,243,,,,,,visual_patterns,0,0,0,yes,1366
undefined,undefined,undefined,undefined,white,no,Mozilla,Netscape,"5.0 (Windows NT 10.0; Win64; x64) AppleWebKit/537.36 (KHTML, like Gecko) Chrome/99.0.4844.74 Safari/537.36",xpyriment,legacy,legacy,0,uniform,0,0,0,0,24,24,24,0,0,35,35,35,35,35,0,35,0,,,,,,0,,18-02-22,18-02-22,11:10:38,Fri Mar 18 2022 11:10:38 GMT+0100 (közép-európai téli idő),The main experiment item,yes,0,0,C:/Users/rrics/Documents/!!ResearchBMECOGSCI/gnet,0,0,0,prototype3.png,no,mono,no,18,no,black,no,no,768,1207,3.5.6,legacy,xpyriment,osweb,1.3.13,0,space,space,space,,51397,25831,51397,,2,legacy,824,1536,24,864,24,0,0,1536,1647598234583,1024,2,48000,-16,experiment,p4sarrshacol1.png,1,odd,Win32,243,137611,134604,243,243,423686,425191,418694,139125,418694,243,,,,,,visual_patterns,0,0,0,yes,1366
undefined,undefined,undefined,undefined,white,no,Mozilla,Netscape,"5.0 (Windows NT 10.0; Win64; x64) AppleWebKit/537.36 (KHTML, like Gecko) Chrome/99.0.4844.74 Safari/537.36",xpyriment,legacy,legacy,0,uniform,0,0,0,0,24,24,24,0,0,36,36,36,36,36,0,36,0,,,,,,0,,18-02-22,18-02-22,11:10:38,Fri Mar 18 2022 11:10:38 GMT+0100 (közép-európai téli idő),The main experiment item,yes,0,0,C:/Users/rrics/Documents/!!ResearchBMECOGSCI/gnet,0,0,0,prototype3.png,no,mono,no,18,no,black,no,no,768,1207,3.5.6,legacy,xpyriment,osweb,1.3.13,0,space,space,space,,51397,25831,51397,,2,legacy,824,1536,24,864,24,0,0,1536,1647598234583,1024,2,48000,-16,experiment,prototype3.png,1,odd,Win32,243,137611,134604,243,243,430203,431707,425209,139125,425209,243,,,,,,visual_patterns,0,0,0,yes,1366
undefined,undefined,undefined,undefined,white,no,Mozilla,Netscape,"5.0 (Windows NT 10.0; Win64; x64) AppleWebKit/537.36 (KHTML, like Gecko) Chrome/99.0.4844.74 Safari/537.36",xpyriment,legacy,legacy,0,uniform,0,0,0,0,24,24,24,0,0,37,37,37,37,37,0,37,0,,,,,,0,,18-02-22,18-02-22,11:10:38,Fri Mar 18 2022 11:10:38 GMT+0100 (közép-európai téli idő),The main experiment item,yes,0,0,C:/Users/rrics/Documents/!!ResearchBMECOGSCI/gnet,0,0,0,prototype3.png,no,mono,no,18,no,black,no,no,768,1207,3.5.6,legacy,xpyriment,osweb,1.3.13,0,space,space,space,,51397,25831,51397,,2,legacy,824,1536,24,864,24,0,0,1536,1647598234583,1024,2,48000,-16,experiment,prototype3.png,1,odd,Win32,243,137611,134604,243,243,436715,438222,431724,139125,431724,243,,,,,,visual_patterns,0,0,0,yes,1366
undefined,undefined,undefined,undefined,white,no,Mozilla,Netscape,"5.0 (Windows NT 10.0; Win64; x64) AppleWebKit/537.36 (KHTML, like Gecko) Chrome/99.0.4844.74 Safari/537.36",xpyriment,legacy,legacy,0,uniform,0,0,0,0,24,24,24,0,0,38,38,38,38,38,0,38,0,,,,,,0,,18-02-22,18-02-22,11:10:38,Fri Mar 18 2022 11:10:38 GMT+0100 (közép-európai téli idő),The main experiment item,yes,0,0,C:/Users/rrics/Documents/!!ResearchBMECOGSCI/gnet,0,0,0,prototype3.png,no,mono,no,18,no,black,no,no,768,1207,3.5.6,legacy,xpyriment,osweb,1.3.13,0,space,space,space,,51397,25831,51397,,2,legacy,824,1536,24,864,24,0,0,1536,1647598234583,1024,2,48000,-16,experiment,p7sarr1.png,1,odd,Win32,243,137611,134604,243,243,443235,444738,438240,139125,438240,243,,,,,,visual_patterns,0,0,0,yes,1366
undefined,undefined,undefined,undefined,white,no,Mozilla,Netscape,"5.0 (Windows NT 10.0; Win64; x64) AppleWebKit/537.36 (KHTML, like Gecko) Chrome/99.0.4844.74 Safari/537.36",xpyriment,legacy,legacy,0,uniform,0,0,0,0,24,24,24,0,0,39,39,39,39,39,0,39,0,,,,,,0,,18-02-22,18-02-22,11:10:38,Fri Mar 18 2022 11:10:38 GMT+0100 (közép-európai téli idő),The main experiment item,yes,0,0,C:/Users/rrics/Documents/!!ResearchBMECOGSCI/gnet,0,0,0,prototype3.png,no,mono,no,18,no,black,no,no,768,1207,3.5.6,legacy,xpyriment,osweb,1.3.13,0,space,space,space,,51397,25831,51397,,2,legacy,824,1536,24,864,24,0,0,1536,1647598234583,1024,2,48000,-16,experiment,p1sarrsha1.png,1,odd,Win32,243,137611,134604,243,243,449748,451254,444748,139125,444748,243,,,,,,visual_patterns,0,0,0,yes,1366
undefined,undefined,undefined,undefined,white,no,Mozilla,Netscape,"5.0 (Windows NT 10.0; Win64; x64) AppleWebKit/537.36 (KHTML, like Gecko) Chrome/99.0.4844.74 Safari/537.36",xpyriment,legacy,legacy,0,uniform,0,0,0,0,24,24,24,0,0,40,40,40,40,40,0,40,0,,,,,,0,,18-02-22,18-02-22,11:10:38,Fri Mar 18 2022 11:10:38 GMT+0100 (közép-európai téli idő),The main experiment item,yes,0,0,C:/Users/rrics/Documents/!!ResearchBMECOGSCI/gnet,0,0,0,prototype3.png,no,mono,no,18,no,black,no,no,768,1207,3.5.6,legacy,xpyriment,osweb,1.3.13,0,space,space,space,,51397,25831,51397,,2,legacy,824,1536,24,864,24,0,0,1536,1647598234583,1024,2,48000,-16,experiment,prototype5.png,1,odd,Win32,243,137611,134604,243,243,456262,457769,451264,139125,451264,243,,,,,,visual_patterns,0,0,0,yes,1366
undefined,undefined,undefined,undefined,white,no,Mozilla,Netscape,"5.0 (Windows NT 10.0; Win64; x64) AppleWebKit/537.36 (KHTML, like Gecko) Chrome/99.0.4844.74 Safari/537.36",xpyriment,legacy,legacy,0,uniform,0,0,0,0,24,24,24,0,0,41,41,41,41,41,0,41,0,,,,,,0,,18-02-22,18-02-22,11:10:38,Fri Mar 18 2022 11:10:38 GMT+0100 (közép-európai téli idő),The main experiment item,yes,0,0,C:/Users/rrics/Documents/!!ResearchBMECOGSCI/gnet,0,0,0,prototype3.png,no,mono,no,18,no,black,no,no,768,1207,3.5.6,legacy,xpyriment,osweb,1.3.13,0,space,space,space,,51397,25831,51397,,2,legacy,824,1536,24,864,24,0,0,1536,1647598234583,1024,2,48000,-16,experiment,p3sarrshacol2.png,1,odd,Win32,243,137611,134604,243,243,462782,464286,457781,139125,457781,243,,,,,,visual_patterns,0,0,0,yes,1366
undefined,undefined,undefined,undefined,white,no,Mozilla,Netscape,"5.0 (Windows NT 10.0; Win64; x64) AppleWebKit/537.36 (KHTML, like Gecko) Chrome/99.0.4844.74 Safari/537.36",xpyriment,legacy,legacy,0,uniform,0,0,0,0,24,24,24,0,0,42,42,42,42,42,0,42,0,,,,,,0,,18-02-22,18-02-22,11:10:38,Fri Mar 18 2022 11:10:38 GMT+0100 (közép-európai téli idő),The main experiment item,yes,0,0,C:/Users/rrics/Documents/!!ResearchBMECOGSCI/gnet,0,0,0,prototype3.png,no,mono,no,18,no,black,no,no,768,1207,3.5.6,legacy,xpyriment,osweb,1.3.13,0,space,space,space,,51397,25831,51397,,2,legacy,824,1536,24,864,24,0,0,1536,1647598234583,1024,2,48000,-16,experiment,p3sarrcol2.png,1,odd,Win32,243,137611,134604,243,243,469297,470800,464298,139125,464298,243,,,,,,visual_patterns,0,0,0,yes,1366
undefined,undefined,undefined,undefined,white,no,Mozilla,Netscape,"5.0 (Windows NT 10.0; Win64; x64) AppleWebKit/537.36 (KHTML, like Gecko) Chrome/99.0.4844.74 Safari/537.36",xpyriment,legacy,legacy,0,uniform,0,0,0,0,24,24,24,0,0,43,43,43,43,43,0,43,0,,,,,,0,,18-02-22,18-02-22,11:10:38,Fri Mar 18 2022 11:10:38 GMT+0100 (közép-európai téli idő),The main experiment item,yes,0,0,C:/Users/rrics/Documents/!!ResearchBMECOGSCI/gnet,0,0,0,prototype3.png,no,mono,no,18,no,black,no,no,768,1207,3.5.6,legacy,xpyriment,osweb,1.3.13,0,space,space,space,,51397,25831,51397,,2,legacy,824,1536,24,864,24,0,0,1536,1647598234583,1024,2,48000,-16,experiment,p3sarr2.png,1,odd,Win32,243,137611,134604,243,243,475811,477317,470811,139125,470811,243,,,,,,visual_patterns,0,0,0,yes,1366
undefined,undefined,undefined,undefined,white,no,Mozilla,Netscape,"5.0 (Windows NT 10.0; Win64; x64) AppleWebKit/537.36 (KHTML, like Gecko) Chrome/99.0.4844.74 Safari/537.36",xpyriment,legacy,legacy,0,uniform,0,0,0,0,24,24,24,0,0,44,44,44,44,44,0,44,0,,,,,,0,,18-02-22,18-02-22,11:10:38,Fri Mar 18 2022 11:10:38 GMT+0100 (közép-európai téli idő),The main experiment item,yes,0,0,C:/Users/rrics/Documents/!!ResearchBMECOGSCI/gnet,0,0,0,prototype3.png,no,mono,no,18,no,black,no,no,768,1207,3.5.6,legacy,xpyriment,osweb,1.3.13,0,space,space,space,,51397,25831,51397,,2,legacy,824,1536,24,864,24,0,0,1536,1647598234583,1024,2,48000,-16,experiment,p2sarrsha1.png,1,odd,Win32,243,137611,134604,243,243,482329,483831,477330,139125,477330,243,,,,,,visual_patterns,0,0,0,yes,1366
undefined,undefined,undefined,undefined,white,no,Mozilla,Netscape,"5.0 (Windows NT 10.0; Win64; x64) AppleWebKit/537.36 (KHTML, like Gecko) Chrome/99.0.4844.74 Safari/537.36",xpyriment,legacy,legacy,0,uniform,0,0,0,0,24,24,24,0,0,45,45,45,45,45,0,45,0,,,,,,0,,18-02-22,18-02-22,11:10:38,Fri Mar 18 2022 11:10:38 GMT+0100 (közép-európai téli idő),The main experiment item,yes,0,0,C:/Users/rrics/Documents/!!ResearchBMECOGSCI/gnet,0,0,0,prototype3.png,no,mono,no,18,no,black,no,no,768,1207,3.5.6,legacy,xpyriment,osweb,1.3.13,0,space,space,space,,51397,25831,51397,,2,legacy,824,1536,24,864,24,0,0,1536,1647598234583,1024,2,48000,-16,experiment,p4sarrsha1.png,1,odd,Win32,243,137611,134604,243,243,488840,490347,483842,139125,483842,243,,,,,,visual_patterns,0,0,0,yes,1366
undefined,undefined,undefined,undefined,white,no,Mozilla,Netscape,"5.0 (Windows NT 10.0; Win64; x64) AppleWebKit/537.36 (KHTML, like Gecko) Chrome/99.0.4844.74 Safari/537.36",xpyriment,legacy,legacy,0,uniform,0,0,0,0,24,24,24,0,0,46,46,46,46,46,0,46,0,,,,,,0,,18-02-22,18-02-22,11:10:38,Fri Mar 18 2022 11:10:38 GMT+0100 (közép-európai téli idő),The main experiment item,yes,0,0,C:/Users/rrics/Documents/!!ResearchBMECOGSCI/gnet,0,0,0,prototype3.png,no,mono,no,18,no,black,no,no,768,1207,3.5.6,legacy,xpyriment,osweb,1.3.13,0,space,space,space,,51397,25831,51397,,2,legacy,824,1536,24,864,24,0,0,1536,1647598234583,1024,2,48000,-16,experiment,p1sarrcol1.png,1,odd,Win32,243,137611,134604,243,243,495376,496879,490379,139125,490378,243,,,,,,visual_patterns,0,0,0,yes,1366
undefined,undefined,undefined,undefined,white,no,Mozilla,Netscape,"5.0 (Windows NT 10.0; Win64; x64) AppleWebKit/537.36 (KHTML, like Gecko) Chrome/99.0.4844.74 Safari/537.36",xpyriment,legacy,legacy,0,uniform,0,0,0,0,24,24,24,0,0,47,47,47,47,47,0,47,0,,,,,,0,,18-02-22,18-02-22,11:10:38,Fri Mar 18 2022 11:10:38 GMT+0100 (közép-európai téli idő),The main experiment item,yes,0,0,C:/Users/rrics/Documents/!!ResearchBMECOGSCI/gnet,0,0,0,prototype3.png,no,mono,no,18,no,black,no,no,768,1207,3.5.6,legacy,xpyriment,osweb,1.3.13,0,space,space,space,,51397,25831,51397,,2,legacy,824,1536,24,864,24,0,0,1536,1647598234583,1024,2,48000,-16,experiment,p1sarrsha2.png,1,odd,Win32,243,137611,134604,243,243,501888,503395,496891,139125,496891,243,,,,,,visual_patterns,0,0,0,yes,1366
undefined,undefined,undefined,undefined,white,no,Mozilla,Netscape,"5.0 (Windows NT 10.0; Win64; x64) AppleWebKit/537.36 (KHTML, like Gecko) Chrome/99.0.4844.74 Safari/537.36",xpyriment,legacy,legacy,0,uniform,0,0,0,0,24,24,24,0,0,48,48,48,48,48,0,48,0,,,,,,0,,18-02-22,18-02-22,11:10:38,Fri Mar 18 2022 11:10:38 GMT+0100 (közép-európai téli idő),The main experiment item,yes,0,0,C:/Users/rrics/Documents/!!ResearchBMECOGSCI/gnet,0,0,0,prototype3.png,no,mono,no,18,no,black,no,no,768,1207,3.5.6,legacy,xpyriment,osweb,1.3.13,0,space,space,space,,51397,25831,51397,,2,legacy,824,1536,24,864,24,0,0,1536,1647598234583,1024,2,48000,-16,experiment,p7sarr2.png,1,odd,Win32,243,137611,134604,243,243,508405,509910,503406,139125,503406,243,,,,,,visual_patterns,0,0,0,yes,1366
undefined,undefined,undefined,undefined,white,no,Mozilla,Netscape,"5.0 (Windows NT 10.0; Win64; x64) AppleWebKit/537.36 (KHTML, like Gecko) Chrome/99.0.4844.74 Safari/537.36",xpyriment,legacy,legacy,0,uniform,0,0,0,0,24,24,24,0,0,49,49,49,49,49,0,49,0,,,,,,0,,18-02-22,18-02-22,11:10:38,Fri Mar 18 2022 11:10:38 GMT+0100 (közép-európai téli idő),The main experiment item,yes,0,0,C:/Users/rrics/Documents/!!ResearchBMECOGSCI/gnet,0,0,0,prototype3.png,no,mono,no,18,no,black,no,no,768,1207,3.5.6,legacy,xpyriment,osweb,1.3.13,0,space,space,space,,51397,25831,51397,,2,legacy,824,1536,24,864,24,0,0,1536,1647598234583,1024,2,48000,-16,experiment,p4sarr1.png,1,odd,Win32,243,137611,134604,243,243,514924,516426,509922,139125,509922,243,,,,,,visual_patterns,0,0,0,yes,1366
undefined,undefined,undefined,undefined,white,no,Mozilla,Netscape,"5.0 (Windows NT 10.0; Win64; x64) AppleWebKit/537.36 (KHTML, like Gecko) Chrome/99.0.4844.74 Safari/537.36",xpyriment,legacy,legacy,0,uniform,0,0,0,0,24,24,24,0,0,50,50,50,50,50,0,50,0,,,,,,0,,18-02-22,18-02-22,11:10:38,Fri Mar 18 2022 11:10:38 GMT+0100 (közép-európai téli idő),The main experiment item,yes,0,0,C:/Users/rrics/Documents/!!ResearchBMECOGSCI/gnet,0,0,0,prototype3.png,no,mono,no,18,no,black,no,no,768,1207,3.5.6,legacy,xpyriment,osweb,1.3.13,0,space,space,space,,51397,25831,51397,,2,legacy,824,1536,24,864,24,0,0,1536,1647598234583,1024,2,48000,-16,experiment,p10sarr1.png,1,odd,Win32,243,137611,134604,243,243,521438,522941,516438,139125,516438,243,,,,,,visual_patterns,0,0,0,yes,1366
undefined,undefined,undefined,undefined,white,no,Mozilla,Netscape,"5.0 (Windows NT 10.0; Win64; x64) AppleWebKit/537.36 (KHTML, like Gecko) Chrome/99.0.4844.74 Safari/537.36",xpyriment,legacy,legacy,0,uniform,0,0,0,0,24,24,24,0,0,51,51,51,51,51,0,51,0,,,,,,0,,18-02-22,18-02-22,11:10:38,Fri Mar 18 2022 11:10:38 GMT+0100 (közép-európai téli idő),The main experiment item,yes,0,0,C:/Users/rrics/Documents/!!ResearchBMECOGSCI/gnet,0,0,0,prototype3.png,no,mono,no,18,no,black,no,no,768,1207,3.5.6,legacy,xpyriment,osweb,1.3.13,0,space,space,space,,51397,25831,51397,,2,legacy,824,1536,24,864,24,0,0,1536,1647598234583,1024,2,48000,-16,experiment,prototype3.png,1,odd,Win32,243,137611,134604,243,243,527954,529457,522952,139125,522952,243,,,,,,visual_patterns,0,0,0,yes,1366
undefined,undefined,undefined,undefined,white,no,Mozilla,Netscape,"5.0 (Windows NT 10.0; Win64; x64) AppleWebKit/537.36 (KHTML, like Gecko) Chrome/99.0.4844.74 Safari/537.36",xpyriment,legacy,legacy,0,uniform,0,0,0,0,24,24,24,0,0,52,52,52,52,52,0,52,0,,,,,,0,,18-02-22,18-02-22,11:10:38,Fri Mar 18 2022 11:10:38 GMT+0100 (közép-európai téli idő),The main experiment item,yes,0,0,C:/Users/rrics/Documents/!!ResearchBMECOGSCI/gnet,0,0,0,prototype3.png,no,mono,no,18,no,black,no,no,768,1207,3.5.6,legacy,xpyriment,osweb,1.3.13,0,space,space,space,,51397,25831,51397,,2,legacy,824,1536,24,864,24,0,0,1536,1647598234583,1024,2,48000,-16,experiment,p1sarr1.png,1,odd,Win32,243,137611,134604,243,243,534467,535972,529470,139125,529470,243,,,,,,visual_patterns,0,0,0,yes,1366
undefined,undefined,undefined,undefined,white,no,Mozilla,Netscape,"5.0 (Windows NT 10.0; Win64; x64) AppleWebKit/537.36 (KHTML, like Gecko) Chrome/99.0.4844.74 Safari/537.36",xpyriment,legacy,legacy,0,uniform,0,0,0,0,24,24,24,0,0,53,53,53,53,53,0,53,0,,,,,,0,,18-02-22,18-02-22,11:10:38,Fri Mar 18 2022 11:10:38 GMT+0100 (közép-európai téli idő),The main experiment item,yes,0,0,C:/Users/rrics/Documents/!!ResearchBMECOGSCI/gnet,0,0,0,prototype3.png,no,mono,no,18,no,black,no,no,768,1207,3.5.6,legacy,xpyriment,osweb,1.3.13,0,space,space,space,,51397,25831,51397,,2,legacy,824,1536,24,864,24,0,0,1536,1647598234583,1024,2,48000,-16,experiment,p1sarrcol2.png,1,odd,Win32,243,137611,134604,243,243,540983,542488,535985,139125,535985,243,,,,,,visual_patterns,0,0,0,yes,1366
undefined,undefined,undefined,undefined,white,no,Mozilla,Netscape,"5.0 (Windows NT 10.0; Win64; x64) AppleWebKit/537.36 (KHTML, like Gecko) Chrome/99.0.4844.74 Safari/537.36",xpyriment,legacy,legacy,0,uniform,0,0,0,0,24,24,24,0,0,54,54,54,54,54,0,54,0,,,,,,0,,18-02-22,18-02-22,11:10:38,Fri Mar 18 2022 11:10:38 GMT+0100 (közép-európai téli idő),The main experiment item,yes,0,0,C:/Users/rrics/Documents/!!ResearchBMECOGSCI/gnet,0,0,0,prototype3.png,no,mono,no,18,no,black,no,no,768,1207,3.5.6,legacy,xpyriment,osweb,1.3.13,0,space,space,space,,51397,25831,51397,,2,legacy,824,1536,24,864,24,0,0,1536,1647598234583,1024,2,48000,-16,experiment,p2sarrcol2.png,1,odd,Win32,243,137611,134604,243,243,547499,549003,542501,139125,542501,243,,,,,,visual_patterns,0,0,0,yes,1366
undefined,undefined,undefined,undefined,white,no,Mozilla,Netscape,"5.0 (Windows NT 10.0; Win64; x64) AppleWebKit/537.36 (KHTML, like Gecko) Chrome/99.0.4844.74 Safari/537.36",xpyriment,legacy,legacy,0,uniform,0,0,0,0,24,24,24,0,0,55,55,55,55,55,0,55,0,,,,,,0,,18-02-22,18-02-22,11:10:38,Fri Mar 18 2022 11:10:38 GMT+0100 (közép-európai téli idő),The main experiment item,yes,0,0,C:/Users/rrics/Documents/!!ResearchBMECOGSCI/gnet,0,0,0,prototype3.png,no,mono,no,18,no,black,no,no,768,1207,3.5.6,legacy,xpyriment,osweb,1.3.13,0,space,space,space,,51397,25831,51397,,2,legacy,824,1536,24,864,24,0,0,1536,1647598234583,1024,2,48000,-16,experiment,prototype4.png,1,odd,Win32,243,137611,134604,243,243,554015,555519,549016,139125,549016,243,,,,,,visual_patterns,0,0,0,yes,1366
undefined,undefined,undefined,undefined,white,no,Mozilla,Netscape,"5.0 (Windows NT 10.0; Win64; x64) AppleWebKit/537.36 (KHTML, like Gecko) Chrome/99.0.4844.74 Safari/537.36",xpyriment,legacy,legacy,0,uniform,0,0,0,0,24,24,24,0,0,56,56,56,56,56,0,56,0,,,,,,0,,18-02-22,18-02-22,11:10:38,Fri Mar 18 2022 11:10:38 GMT+0100 (közép-európai téli idő),The main experiment item,yes,0,0,C:/Users/rrics/Documents/!!ResearchBMECOGSCI/gnet,0,0,0,prototype3.png,no,mono,no,18,no,black,no,no,768,1207,3.5.6,legacy,xpyriment,osweb,1.3.13,0,space,space,space,,51397,25831,51397,,2,legacy,824,1536,24,864,24,0,0,1536,1647598234583,1024,2,48000,-16,experiment,p2sarrshacol1.png,1,odd,Win32,243,137611,134604,243,243,560554,562067,555554,139125,555554,243,,,,,,visual_patterns,0,0,0,yes,1366
undefined,undefined,undefined,undefined,white,no,Mozilla,Netscape,"5.0 (Windows NT 10.0; Win64; x64) AppleWebKit/537.36 (KHTML, like Gecko) Chrome/99.0.4844.74 Safari/537.36",xpyriment,legacy,legacy,0,uniform,0,0,0,0,24,24,24,0,0,57,57,57,57,57,0,57,0,,,,,,0,,18-02-22,18-02-22,11:10:38,Fri Mar 18 2022 11:10:38 GMT+0100 (közép-európai téli idő),The main experiment item,yes,0,0,C:/Users/rrics/Documents/!!ResearchBMECOGSCI/gnet,0,0,0,prototype3.png,no,mono,no,18,no,black,no,no,768,1207,3.5.6,legacy,xpyriment,osweb,1.3.13,0,space,space,space,,51397,25831,51397,,2,legacy,824,1536,24,864,24,0,0,1536,1647598234583,1024,2,48000,-16,experiment,prototype5.png,1,odd,Win32,243,137611,134604,243,243,567076,568583,562076,139125,562076,243,,,,,,visual_patterns,0,0,0,yes,1366
undefined,undefined,undefined,undefined,white,no,Mozilla,Netscape,"5.0 (Windows NT 10.0; Win64; x64) AppleWebKit/537.36 (KHTML, like Gecko) Chrome/99.0.4844.74 Safari/537.36",xpyriment,legacy,legacy,0,uniform,0,0,0,0,24,24,24,0,0,58,58,58,58,58,0,58,0,,,,,,0,,18-02-22,18-02-22,11:10:38,Fri Mar 18 2022 11:10:38 GMT+0100 (közép-európai téli idő),The main experiment item,yes,0,0,C:/Users/rrics/Documents/!!ResearchBMECOGSCI/gnet,0,0,0,prototype3.png,no,mono,no,18,no,black,no,no,768,1207,3.5.6,legacy,xpyriment,osweb,1.3.13,0,space,space,space,,51397,25831,51397,,2,legacy,824,1536,24,864,24,0,0,1536,1647598234583,1024,2,48000,-16,experiment,prototype2.png,1,odd,Win32,243,137611,134604,243,243,573595,575099,568596,139125,568596,243,,,,,,visual_patterns,0,0,0,yes,1366
undefined,undefined,undefined,undefined,white,no,Mozilla,Netscape,"5.0 (Windows NT 10.0; Win64; x64) AppleWebKit/537.36 (KHTML, like Gecko) Chrome/99.0.4844.74 Safari/537.36",xpyriment,legacy,legacy,0,uniform,0,0,0,0,24,24,24,0,0,59,59,59,59,59,0,59,0,,,,,,0,,18-02-22,18-02-22,11:10:38,Fri Mar 18 2022 11:10:38 GMT+0100 (közép-európai téli idő),The main experiment item,yes,0,0,C:/Users/rrics/Documents/!!ResearchBMECOGSCI/gnet,0,0,0,prototype3.png,no,mono,no,18,no,black,no,no,768,1207,3.5.6,legacy,xpyriment,osweb,1.3.13,0,space,space,space,,51397,25831,51397,,2,legacy,824,1536,24,864,24,0,0,1536,1647598234583,1024,2,48000,-16,experiment,prototype5.png,1,odd,Win32,243,137611,134604,243,243,580109,581614,575107,139125,575107,243,,,,,,visual_patterns,0,0,0,yes,1366
undefined,undefined,undefined,undefined,white,no,Mozilla,Netscape,"5.0 (Windows NT 10.0; Win64; x64) AppleWebKit/537.36 (KHTML, like Gecko) Chrome/99.0.4844.74 Safari/537.36",xpyriment,legacy,legacy,0,uniform,0,0,0,0,24,24,24,0,0,60,60,60,60,60,0,60,0,,,,,,0,,18-02-22,18-02-22,11:10:38,Fri Mar 18 2022 11:10:38 GMT+0100 (közép-európai téli idő),The main experiment item,yes,0,0,C:/Users/rrics/Documents/!!ResearchBMECOGSCI/gnet,0,0,0,prototype3.png,no,mono,no,18,no,black,no,no,768,1207,3.5.6,legacy,xpyriment,osweb,1.3.13,0,space,space,space,,51397,25831,51397,,2,legacy,824,1536,24,864,24,0,0,1536,1647598234583,1024,2,48000,-16,experiment,p1sarrshacol2.png,1,odd,Win32,243,137611,134604,243,243,586625,588130,581626,139125,581625,243,,,,,,visual_patterns,0,0,0,yes,1366
undefined,undefined,undefined,undefined,white,no,Mozilla,Netscape,"5.0 (Windows NT 10.0; Win64; x64) AppleWebKit/537.36 (KHTML, like Gecko) Chrome/99.0.4844.74 Safari/537.36",xpyriment,legacy,legacy,0,uniform,0,0,0,0,24,24,24,0,0,61,61,61,61,61,0,61,0,,,,,,0,,18-02-22,18-02-22,11:10:38,Fri Mar 18 2022 11:10:38 GMT+0100 (közép-európai téli idő),The main experiment item,yes,0,0,C:/Users/rrics/Documents/!!ResearchBMECOGSCI/gnet,0,0,0,prototype3.png,no,mono,no,18,no,black,no,no,768,1207,3.5.6,legacy,xpyriment,osweb,1.3.13,0,space,space,space,,51397,25831,51397,,2,legacy,824,1536,24,864,24,0,0,1536,1647598234583,1024,2,48000,-16,experiment,p2sarrcol1.png,1,odd,Win32,243,137611,134604,243,243,593140,594645,588142,139125,588141,243,,,,,,visual_patterns,0,0,0,yes,1366
undefined,undefined,undefined,undefined,white,no,Mozilla,Netscape,"5.0 (Windows NT 10.0; Win64; x64) AppleWebKit/537.36 (KHTML, like Gecko) Chrome/99.0.4844.74 Safari/537.36",xpyriment,legacy,legacy,0,uniform,0,0,0,0,24,24,24,0,0,62,62,62,62,62,0,62,0,,,,,,0,,18-02-22,18-02-22,11:10:38,Fri Mar 18 2022 11:10:38 GMT+0100 (közép-európai téli idő),The main experiment item,yes,0,0,C:/Users/rrics/Documents/!!ResearchBMECOGSCI/gnet,0,0,0,prototype3.png,no,mono,no,18,no,black,no,no,768,1207,3.5.6,legacy,xpyriment,osweb,1.3.13,0,space,space,space,,51397,25831,51397,,2,legacy,824,1536,24,864,24,0,0,1536,1647598234583,1024,2,48000,-16,experiment,p5sarr2.png,1,odd,Win32,243,137611,134604,243,243,599657,601161,594658,139125,594657,243,,,,,,visual_patterns,0,0,0,yes,1366
undefined,undefined,undefined,undefined,white,no,Mozilla,Netscape,"5.0 (Windows NT 10.0; Win64; x64) AppleWebKit/537.36 (KHTML, like Gecko) Chrome/99.0.4844.74 Safari/537.36",xpyriment,legacy,legacy,0,uniform,0,0,0,0,24,24,24,0,0,63,63,63,63,63,0,63,0,,,,,,0,,18-02-22,18-02-22,11:10:38,Fri Mar 18 2022 11:10:38 GMT+0100 (közép-európai téli idő),The main experiment item,yes,0,0,C:/Users/rrics/Documents/!!ResearchBMECOGSCI/gnet,0,0,0,prototype3.png,no,mono,no,18,no,black,no,no,768,1207,3.5.6,legacy,xpyriment,osweb,1.3.13,0,space,space,space,,51397,25831,51397,,2,legacy,824,1536,24,864,24,0,0,1536,1647598234583,1024,2,48000,-16,experiment,p10sarr2.png,1,odd,Win32,243,137611,134604,243,243,606172,607676,601175,139125,601175,243,,,,,,visual_patterns,0,0,0,yes,1366
undefined,undefined,undefined,undefined,white,no,Mozilla,Netscape,"5.0 (Windows NT 10.0; Win64; x64) AppleWebKit/537.36 (KHTML, like Gecko) Chrome/99.0.4844.74 Safari/537.36",xpyriment,legacy,legacy,0,uniform,0,0,0,0,24,24,24,0,0,64,64,64,64,64,0,64,0,,,,,,0,,18-02-22,18-02-22,11:10:38,Fri Mar 18 2022 11:10:38 GMT+0100 (közép-európai téli idő),The main experiment item,yes,0,0,C:/Users/rrics/Documents/!!ResearchBMECOGSCI/gnet,0,0,0,prototype3.png,no,mono,no,18,no,black,no,no,768,1207,3.5.6,legacy,xpyriment,osweb,1.3.13,0,space,space,space,,51397,25831,51397,,2,legacy,824,1536,24,864,24,0,0,1536,1647598234583,1024,2,48000,-16,experiment,prototype1.png,1,odd,Win32,243,137611,134604,243,243,612689,614193,607690,139125,607689,243,,,,,,visual_patterns,0,0,0,yes,1366
undefined,undefined,undefined,undefined,white,no,Mozilla,Netscape,"5.0 (Windows NT 10.0; Win64; x64) AppleWebKit/537.36 (KHTML, like Gecko) Chrome/99.0.4844.74 Safari/537.36",xpyriment,legacy,legacy,0,uniform,0,0,0,0,24,24,24,0,0,65,65,65,65,65,0,65,0,,,,,,0,,18-02-22,18-02-22,11:10:38,Fri Mar 18 2022 11:10:38 GMT+0100 (közép-európai téli idő),The main experiment item,yes,0,0,C:/Users/rrics/Documents/!!ResearchBMECOGSCI/gnet,0,0,0,prototype3.png,no,mono,no,18,no,black,no,no,768,1207,3.5.6,legacy,xpyriment,osweb,1.3.13,0,space,space,space,,51397,25831,51397,,2,legacy,824,1536,24,864,24,0,0,1536,1647598234583,1024,2,48000,-16,experiment,prototype4.png,1,odd,Win32,243,137611,134604,243,243,619202,620708,614202,139125,614202,243,,,,,,visual_patterns,0,0,0,yes,1366
undefined,undefined,undefined,undefined,white,no,Mozilla,Netscape,"5.0 (Windows NT 10.0; Win64; x64) AppleWebKit/537.36 (KHTML, like Gecko) Chrome/99.0.4844.74 Safari/537.36",xpyriment,legacy,legacy,0,uniform,0,0,0,0,24,24,24,0,0,66,66,66,66,66,0,66,0,,,,,,0,,18-02-22,18-02-22,11:10:38,Fri Mar 18 2022 11:10:38 GMT+0100 (közép-európai téli idő),The main experiment item,yes,0,0,C:/Users/rrics/Documents/!!ResearchBMECOGSCI/gnet,0,0,0,prototype3.png,no,mono,no,18,no,black,no,no,768,1207,3.5.6,legacy,xpyriment,osweb,1.3.13,0,space,space,space,,51397,25831,51397,,2,legacy,824,1536,24,864,24,0,0,1536,1647598234583,1024,2,48000,-16,experiment,p2sarrshacol2.png,1,odd,Win32,243,137611,134604,243,243,625718,627223,620719,139125,620719,243,,,,,,visual_patterns,0,0,0,yes,1366
undefined,undefined,undefined,undefined,white,no,Mozilla,Netscape,"5.0 (Windows NT 10.0; Win64; x64) AppleWebKit/537.36 (KHTML, like Gecko) Chrome/99.0.4844.74 Safari/537.36",xpyriment,legacy,legacy,0,uniform,0,0,0,0,24,24,24,0,0,67,67,67,67,67,0,67,0,,,,,,0,,18-02-22,18-02-22,11:10:38,Fri Mar 18 2022 11:10:38 GMT+0100 (közép-európai téli idő),The main experiment item,yes,0,0,C:/Users/rrics/Documents/!!ResearchBMECOGSCI/gnet,0,0,0,prototype3.png,no,mono,no,18,no,black,no,no,768,1207,3.5.6,legacy,xpyriment,osweb,1.3.13,0,space,space,space,,51397,25831,51397,,2,legacy,824,1536,24,864,24,0,0,1536,1647598234583,1024,2,48000,-16,experiment,p1sarr2.png,1,odd,Win32,243,137611,134604,243,243,632235,633739,627236,139125,627236,243,,,,,,visual_patterns,0,0,0,yes,1366
undefined,undefined,undefined,undefined,white,no,Mozilla,Netscape,"5.0 (Windows NT 10.0; Win64; x64) AppleWebKit/537.36 (KHTML, like Gecko) Chrome/99.0.4844.74 Safari/537.36",xpyriment,legacy,legacy,0,uniform,0,0,0,0,24,24,24,0,0,68,68,68,68,68,0,68,0,,,,,,0,,18-02-22,18-02-22,11:10:38,Fri Mar 18 2022 11:10:38 GMT+0100 (közép-európai téli idő),The main experiment item,yes,0,0,C:/Users/rrics/Documents/!!ResearchBMECOGSCI/gnet,0,0,0,prototype3.png,no,mono,no,18,no,black,no,no,768,1207,3.5.6,legacy,xpyriment,osweb,1.3.13,0,space,space,space,,51397,25831,51397,,2,legacy,824,1536,24,864,24,0,0,1536,1647598234583,1024,2,48000,-16,experiment,p6sarr2.png,1,odd,Win32,243,137611,134604,243,243,638748,640254,633750,139125,633750,243,,,,,,visual_patterns,0,0,0,yes,1366
undefined,undefined,undefined,undefined,white,no,Mozilla,Netscape,"5.0 (Windows NT 10.0; Win64; x64) AppleWebKit/537.36 (KHTML, like Gecko) Chrome/99.0.4844.74 Safari/537.36",xpyriment,legacy,legacy,0,uniform,0,0,0,0,24,24,24,0,0,69,69,69,69,69,0,69,0,,,,,,0,,18-02-22,18-02-22,11:10:38,Fri Mar 18 2022 11:10:38 GMT+0100 (közép-európai téli idő),The main experiment item,yes,0,0,C:/Users/rrics/Documents/!!ResearchBMECOGSCI/gnet,0,0,0,prototype3.png,no,mono,no,18,no,black,no,no,768,1207,3.5.6,legacy,xpyriment,osweb,1.3.13,0,space,space,space,,51397,25831,51397,,2,legacy,824,1536,24,864,24,0,0,1536,1647598234583,1024,2,48000,-16,experiment,prototype2.png,1,odd,Win32,243,137611,134604,243,243,645265,646770,640262,139125,640262,243,,,,,,visual_patterns,0,0,0,yes,1366
undefined,undefined,undefined,undefined,white,no,Mozilla,Netscape,"5.0 (Windows NT 10.0; Win64; x64) AppleWebKit/537.36 (KHTML, like Gecko) Chrome/99.0.4844.74 Safari/537.36",xpyriment,legacy,legacy,0,uniform,0,0,0,0,24,24,24,0,0,70,70,70,70,70,0,70,0,,,,,,0,,18-02-22,18-02-22,11:10:38,Fri Mar 18 2022 11:10:38 GMT+0100 (közép-európai téli idő),The main experiment item,yes,0,0,C:/Users/rrics/Documents/!!ResearchBMECOGSCI/gnet,0,0,0,prototype3.png,no,mono,no,18,no,black,no,no,768,1207,3.5.6,legacy,xpyriment,osweb,1.3.13,0,space,space,space,,51397,25831,51397,,2,legacy,824,1536,24,864,24,0,0,1536,1647598234583,1024,2,48000,-16,experiment,p1sarrshacol1.png,1,odd,Win32,243,137611,134604,243,243,651779,653285,646782,139125,646782,243,,,,,,visual_patterns,0,0,0,yes,1366
undefined,undefined,undefined,undefined,white,no,Mozilla,Netscape,"5.0 (Windows NT 10.0; Win64; x64) AppleWebKit/537.36 (KHTML, like Gecko) Chrome/99.0.4844.74 Safari/537.36",xpyriment,legacy,legacy,0,uniform,0,0,0,0,24,24,24,0,0,71,71,71,71,71,0,71,0,,,,,,0,,18-02-22,18-02-22,11:10:38,Fri Mar 18 2022 11:10:38 GMT+0100 (közép-európai téli idő),The main experiment item,yes,0,0,C:/Users/rrics/Documents/!!ResearchBMECOGSCI/gnet,0,0,0,prototype3.png,no,mono,no,18,no,black,no,no,768,1207,3.5.6,legacy,xpyriment,osweb,1.3.13,0,space,space,space,,51397,25831,51397,,2,legacy,824,1536,24,864,24,0,0,1536,1647598234583,1024,2,48000,-16,experiment,prototype1.png,1,odd,Win32,243,137611,134604,243,243,658320,659834,653318,139125,653318,243,,,,,,visual_patterns,0,0,0,yes,1366
undefined,undefined,undefined,undefined,white,no,Mozilla,Netscape,"5.0 (Windows NT 10.0; Win64; x64) AppleWebKit/537.36 (KHTML, like Gecko) Chrome/99.0.4844.74 Safari/537.36",xpyriment,legacy,legacy,0,uniform,0,0,0,0,24,24,24,0,0,72,72,72,72,72,0,72,0,,,,,,0,,18-02-22,18-02-22,11:10:38,Fri Mar 18 2022 11:10:38 GMT+0100 (közép-európai téli idő),The main experiment item,yes,0,0,C:/Users/rrics/Documents/!!ResearchBMECOGSCI/gnet,0,0,0,prototype3.png,no,mono,no,18,no,black,no,no,768,1207,3.5.6,legacy,xpyriment,osweb,1.3.13,0,space,space,space,,51397,25831,51397,,2,legacy,824,1536,24,864,24,0,0,1536,1647598234583,1024,2,48000,-16,experiment,prototype5.png,1,odd,Win32,243,137611,134604,243,243,664845,666350,659844,139125,659844,243,,,,,,visual_patterns,0,0,0,yes,1366
undefined,undefined,undefined,undefined,white,no,Mozilla,Netscape,"5.0 (Windows NT 10.0; Win64; x64) AppleWebKit/537.36 (KHTML, like Gecko) Chrome/99.0.4844.74 Safari/537.36",xpyriment,legacy,legacy,0,uniform,0,0,0,0,24,24,24,0,0,73,73,73,73,73,0,73,0,,,,,,0,,18-02-22,18-02-22,11:10:38,Fri Mar 18 2022 11:10:38 GMT+0100 (közép-európai téli idő),The main experiment item,yes,0,0,C:/Users/rrics/Documents/!!ResearchBMECOGSCI/gnet,0,0,0,prototype3.png,no,mono,no,18,no,black,no,no,768,1207,3.5.6,legacy,xpyriment,osweb,1.3.13,0,space,space,space,,51397,25831,51397,,2,legacy,824,1536,24,864,24,0,0,1536,1647598234583,1024,2,48000,-16,experiment,prototype3.png,1,odd,Win32,243,137611,134604,243,243,671360,672865,666359,139125,666359,243,,,,,,visual_patterns,0,0,0,yes,1366
undefined,undefined,undefined,undefined,white,no,Mozilla,Netscape,"5.0 (Windows NT 10.0; Win64; x64) AppleWebKit/537.36 (KHTML, like Gecko) Chrome/99.0.4844.74 Safari/537.36",xpyriment,legacy,legacy,0,uniform,0,0,0,0,24,24,24,0,0,74,74,74,74,74,0,74,0,,,,,,0,,18-02-22,18-02-22,11:10:38,Fri Mar 18 2022 11:10:38 GMT+0100 (közép-európai téli idő),The main experiment item,yes,0,0,C:/Users/rrics/Documents/!!ResearchBMECOGSCI/gnet,0,0,0,prototype3.png,no,mono,no,18,no,black,no,no,768,1207,3.5.6,legacy,xpyriment,osweb,1.3.13,0,space,space,space,,51397,25831,51397,,2,legacy,824,1536,24,864,24,0,0,1536,1647598234583,1024,2,48000,-16,experiment,prototype2.png,1,odd,Win32,243,137611,134604,243,243,677875,679381,672875,139125,672875,243,,,,,,visual_patterns,0,0,0,yes,1366
undefined,undefined,undefined,undefined,white,no,Mozilla,Netscape,"5.0 (Windows NT 10.0; Win64; x64) AppleWebKit/537.36 (KHTML, like Gecko) Chrome/99.0.4844.74 Safari/537.36",xpyriment,legacy,legacy,0,uniform,0,0,0,0,24,24,24,0,0,74,74,74,74,74,0,74,0,0,0,0,0,0,0,0,18-02-22,18-02-22,11:10:38,Fri Mar 18 2022 11:10:38 GMT+0100 (közép-európai téli idő),The main experiment item,yes,0,0,C:/Users/rrics/Documents/!!ResearchBMECOGSCI/gnet,0,0,0,prototype3.png,no,mono,no,18,no,black,no,no,768,1207,3.5.6,legacy,xpyriment,osweb,1.3.13,0,space,space,space,space,44566,25831,51397,44566,2,legacy,824,1536,24,864,24,0,0,1536,1647598234583,1024,2,48000,-16,experiment,p5sarrsha3.png,1,odd,Win32,243,137611,134604,243,243,677875,679381,672875,139125,672875,243,726986,728497,723991,679385,723991,visual_patterns,0,0,0,yes,1366
undefined,undefined,undefined,undefined,white,no,Mozilla,Netscape,"5.0 (Windows NT 10.0; Win64; x64) AppleWebKit/537.36 (KHTML, like Gecko) Chrome/99.0.4844.74 Safari/537.36",xpyriment,legacy,legacy,0,uniform,0,0,0,0,24,24,24,0,0,74,74,74,74,74,0,74,0,1,1,1,1,1,0,1,18-02-22,18-02-22,11:10:38,Fri Mar 18 2022 11:10:38 GMT+0100 (közép-európai téli idő),The main experiment item,yes,0,0,C:/Users/rrics/Documents/!!ResearchBMECOGSCI/gnet,0,0,0,prototype3.png,no,mono,no,18,no,black,no,no,768,1207,3.5.6,legacy,xpyriment,osweb,1.3.13,0,space,space,space,space,44566,25831,51397,44566,2,legacy,824,1536,24,864,24,0,0,1536,1647598234583,1024,2,48000,-16,experiment,p2sarrshacol1.png,1,odd,Win32,243,137611,134604,243,243,677875,679381,672875,139125,672875,243,731537,733052,728533,679385,728533,visual_patterns,0,0,0,yes,1366
undefined,undefined,undefined,undefined,white,no,Mozilla,Netscape,"5.0 (Windows NT 10.0; Win64; x64) AppleWebKit/537.36 (KHTML, like Gecko) Chrome/99.0.4844.74 Safari/537.36",xpyriment,legacy,legacy,0,uniform,0,0,0,0,24,24,24,0,0,74,74,74,74,74,0,74,0,2,2,2,2,2,0,2,18-02-22,18-02-22,11:10:38,Fri Mar 18 2022 11:10:38 GMT+0100 (közép-európai téli idő),The main experiment item,yes,0,0,C:/Users/rrics/Documents/!!ResearchBMECOGSCI/gnet,0,0,0,prototype3.png,no,mono,no,18,no,black,no,no,768,1207,3.5.6,legacy,xpyriment,osweb,1.3.13,0,space,space,space,space,44566,25831,51397,44566,2,legacy,824,1536,24,864,24,0,0,1536,1647598234583,1024,2,48000,-16,experiment,p4sarr4.png,1,odd,Win32,243,137611,134604,243,243,677875,679381,672875,139125,672875,243,736065,737573,733066,679385,733065,visual_patterns,0,0,0,yes,1366
undefined,undefined,undefined,undefined,white,no,Mozilla,Netscape,"5.0 (Windows NT 10.0; Win64; x64) AppleWebKit/537.36 (KHTML, like Gecko) Chrome/99.0.4844.74 Safari/537.36",xpyriment,legacy,legacy,0,uniform,0,0,0,0,24,24,24,0,0,74,74,74,74,74,0,74,0,3,3,3,3,3,0,3,18-02-22,18-02-22,11:10:38,Fri Mar 18 2022 11:10:38 GMT+0100 (közép-európai téli idő),The main experiment item,yes,0,0,C:/Users/rrics/Documents/!!ResearchBMECOGSCI/gnet,0,0,0,prototype3.png,no,mono,no,18,no,black,no,no,768,1207,3.5.6,legacy,xpyriment,osweb,1.3.13,0,space,space,space,space,44566,25831,51397,44566,2,legacy,824,1536,24,864,24,0,0,1536,1647598234583,1024,2,48000,-16,experiment,p5sarrsha2.png,1,odd,Win32,243,137611,134604,243,243,677875,679381,672875,139125,672875,243,740587,742093,737586,679385,737586,visual_patterns,0,0,0,yes,1366
undefined,undefined,undefined,undefined,white,no,Mozilla,Netscape,"5.0 (Windows NT 10.0; Win64; x64) AppleWebKit/537.36 (KHTML, like Gecko) Chrome/99.0.4844.74 Safari/537.36",xpyriment,legacy,legacy,0,uniform,0,0,0,0,24,24,24,0,0,74,74,74,74,74,0,74,0,4,4,4,4,4,0,4,18-02-22,18-02-22,11:10:38,Fri Mar 18 2022 11:10:38 GMT+0100 (közép-európai téli idő),The main experiment item,yes,0,0,C:/Users/rrics/Documents/!!ResearchBMECOGSCI/gnet,0,0,0,prototype3.png,no,mono,no,18,no,black,no,no,768,1207,3.5.6,legacy,xpyriment,osweb,1.3.13,0,space,space,space,space,44566,25831,51397,44566,2,legacy,824,1536,24,864,24,0,0,1536,1647598234583,1024,2,48000,-16,experiment,p7sarr2.png,1,odd,Win32,243,137611,134604,243,243,677875,679381,672875,139125,672875,243,745107,746614,742104,679385,742104,visual_patterns,0,0,0,yes,1366
undefined,undefined,undefined,undefined,white,no,Mozilla,Netscape,"5.0 (Windows NT 10.0; Win64; x64) AppleWebKit/537.36 (KHTML, like Gecko) Chrome/99.0.4844.74 Safari/537.36",xpyriment,legacy,legacy,0,uniform,0,0,0,0,24,24,24,0,0,74,74,74,74,74,0,74,0,5,5,5,5,5,0,5,18-02-22,18-02-22,11:10:38,Fri Mar 18 2022 11:10:38 GMT+0100 (közép-európai téli idő),The main experiment item,yes,0,0,C:/Users/rrics/Documents/!!ResearchBMECOGSCI/gnet,0,0,0,prototype3.png,no,mono,no,18,no,black,no,no,768,1207,3.5.6,legacy,xpyriment,osweb,1.3.13,0,space,space,space,space,44566,25831,51397,44566,2,legacy,824,1536,24,864,24,0,0,1536,1647598234583,1024,2,48000,-16,experiment,p1sarrsha4.png,1,odd,Win32,243,137611,134604,243,243,677875,679381,672875,139125,672875,243,749629,751135,746630,679385,746630,visual_patterns,0,0,0,yes,1366
undefined,undefined,undefined,undefined,white,no,Mozilla,Netscape,"5.0 (Windows NT 10.0; Win64; x64) AppleWebKit/537.36 (KHTML, like Gecko) Chrome/99.0.4844.74 Safari/537.36",xpyriment,legacy,legacy,0,uniform,0,0,0,0,24,24,24,0,0,74,74,74,74,74,0,74,0,6,6,6,6,6,0,6,18-02-22,18-02-22,11:10:38,Fri Mar 18 2022 11:10:38 GMT+0100 (közép-európai téli idő),The main experiment item,yes,0,0,C:/Users/rrics/Documents/!!ResearchBMECOGSCI/gnet,0,0,0,prototype3.png,no,mono,no,18,no,black,no,no,768,1207,3.5.6,legacy,xpyriment,osweb,1.3.13,0,space,space,space,space,44566,25831,51397,44566,2,legacy,824,1536,24,864,24,0,0,1536,1647598234583,1024,2,48000,-16,experiment,p3sarrcol2.png,1,odd,Win32,243,137611,134604,243,243,677875,679381,672875,139125,672875,243,754172,755689,751168,679385,751168,visual_patterns,0,0,0,yes,1366
undefined,undefined,undefined,undefined,white,no,Mozilla,Netscape,"5.0 (Windows NT 10.0; Win64; x64) AppleWebKit/537.36 (KHTML, like Gecko) Chrome/99.0.4844.74 Safari/537.36",xpyriment,legacy,legacy,0,uniform,0,0,0,0,24,24,24,0,0,74,74,74,74,74,0,74,0,7,7,7,7,7,0,7,18-02-22,18-02-22,11:10:38,Fri Mar 18 2022 11:10:38 GMT+0100 (közép-európai téli idő),The main experiment item,yes,0,0,C:/Users/rrics/Documents/!!ResearchBMECOGSCI/gnet,0,0,0,prototype3.png,no,mono,no,18,no,black,no,no,768,1207,3.5.6,legacy,xpyriment,osweb,1.3.13,0,space,space,space,space,44566,25831,51397,44566,2,legacy,824,1536,24,864,24,0,0,1536,1647598234583,1024,2,48000,-16,experiment,p3sarrcol3.png,1,odd,Win32,243,137611,134604,243,243,677875,679381,672875,139125,672875,243,758704,760210,755704,679385,755704,visual_patterns,0,0,0,yes,1366
undefined,undefined,undefined,undefined,white,no,Mozilla,Netscape,"5.0 (Windows NT 10.0; Win64; x64) AppleWebKit/537.36 (KHTML, like Gecko) Chrome/99.0.4844.74 Safari/537.36",xpyriment,legacy,legacy,0,uniform,0,0,0,0,24,24,24,0,0,74,74,74,74,74,0,74,0,8,8,8,8,8,0,8,18-02-22,18-02-22,11:10:38,Fri Mar 18 2022 11:10:38 GMT+0100 (közép-európai téli idő),The main experiment item,yes,0,0,C:/Users/rrics/Documents/!!ResearchBMECOGSCI/gnet,0,0,0,prototype3.png,no,mono,no,18,no,black,no,no,768,1207,3.5.6,legacy,xpyriment,osweb,1.3.13,0,space,space,space,space,44566,25831,51397,44566,2,legacy,824,1536,24,864,24,0,0,1536,1647598234583,1024,2,48000,-16,experiment,p1sarrsha1.png,1,odd,Win32,243,137611,134604,243,243,677875,679381,672875,139125,672875,243,763221,764731,760221,679385,760221,visual_patterns,0,0,0,yes,1366
undefined,undefined,undefined,undefined,white,no,Mozilla,Netscape,"5.0 (Windows NT 10.0; Win64; x64) AppleWebKit/537.36 (KHTML, like Gecko) Chrome/99.0.4844.74 Safari/537.36",xpyriment,legacy,legacy,0,uniform,0,0,0,0,24,24,24,0,0,74,74,74,74,74,0,74,0,9,9,9,9,9,0,9,18-02-22,18-02-22,11:10:38,Fri Mar 18 2022 11:10:38 GMT+0100 (közép-európai téli idő),The main experiment item,yes,0,0,C:/Users/rrics/Documents/!!ResearchBMECOGSCI/gnet,0,0,0,prototype3.png,no,mono,no,18,no,black,no,no,768,1207,3.5.6,legacy,xpyriment,osweb,1.3.13,0,space,space,space,space,44566,25831,51397,44566,2,legacy,824,1536,24,864,24,0,0,1536,1647598234583,1024,2,48000,-16,experiment,p4sarr1.png,1,odd,Win32,243,137611,134604,243,243,677875,679381,672875,139125,672875,243,767747,769254,764745,679385,764745,visual_patterns,0,0,0,yes,1366
undefined,undefined,undefined,undefined,white,no,Mozilla,Netscape,"5.0 (Windows NT 10.0; Win64; x64) AppleWebKit/537.36 (KHTML, like Gecko) Chrome/99.0.4844.74 Safari/537.36",xpyriment,legacy,legacy,0,uniform,0,0,0,0,24,24,24,0,0,74,74,74,74,74,0,74,0,10,10,10,10,10,0,10,18-02-22,18-02-22,11:10:38,Fri Mar 18 2022 11:10:38 GMT+0100 (közép-európai téli idő),The main experiment item,yes,0,0,C:/Users/rrics/Documents/!!ResearchBMECOGSCI/gnet,0,0,0,prototype3.png,no,mono,no,18,no,black,no,no,768,1207,3.5.6,legacy,xpyriment,osweb,1.3.13,0,space,space,space,space,44566,25831,51397,44566,2,legacy,824,1536,24,864,24,0,0,1536,1647598234583,1024,2,48000,-16,experiment,p9sarr2.png,1,odd,Win32,243,137611,134604,243,243,677875,679381,672875,139125,672875,243,772266,773773,769268,679385,769268,visual_patterns,0,0,0,yes,1366
undefined,undefined,undefined,undefined,white,no,Mozilla,Netscape,"5.0 (Windows NT 10.0; Win64; x64) AppleWebKit/537.36 (KHTML, like Gecko) Chrome/99.0.4844.74 Safari/537.36",xpyriment,legacy,legacy,0,uniform,0,0,0,0,24,24,24,0,0,74,74,74,74,74,0,74,0,11,11,11,11,11,0,11,18-02-22,18-02-22,11:10:38,Fri Mar 18 2022 11:10:38 GMT+0100 (közép-európai téli idő),The main experiment item,yes,0,0,C:/Users/rrics/Documents/!!ResearchBMECOGSCI/gnet,0,0,0,prototype3.png,no,mono,no,18,no,black,no,no,768,1207,3.5.6,legacy,xpyriment,osweb,1.3.13,0,space,space,space,space,44566,25831,51397,44566,2,legacy,824,1536,24,864,24,0,0,1536,1647598234583,1024,2,48000,-16,experiment,p1sarr2.png,1,odd,Win32,243,137611,134604,243,243,677875,679381,672875,139125,672875,243,776808,778311,773806,679385,773806,visual_patterns,0,0,0,yes,1366
undefined,undefined,undefined,undefined,white,no,Mozilla,Netscape,"5.0 (Windows NT 10.0; Win64; x64) AppleWebKit/537.36 (KHTML, like Gecko) Chrome/99.0.4844.74 Safari/537.36",xpyriment,legacy,legacy,0,uniform,0,0,0,0,24,24,24,0,0,74,74,74,74,74,0,74,0,12,12,12,12,12,0,12,18-02-22,18-02-22,11:10:38,Fri Mar 18 2022 11:10:38 GMT+0100 (közép-európai téli idő),The main experiment item,yes,0,0,C:/Users/rrics/Documents/!!ResearchBMECOGSCI/gnet,0,0,0,prototype3.png,no,mono,no,18,no,black,no,no,768,1207,3.5.6,legacy,xpyriment,osweb,1.3.13,0,space,space,space,space,44566,25831,51397,44566,2,legacy,824,1536,24,864,24,0,0,1536,1647598234583,1024,2,48000,-16,experiment,p3sarrcol4.png,1,odd,Win32,243,137611,134604,243,243,677875,679381,672875,139125,672875,243,781324,782832,778327,679385,778327,visual_patterns,0,0,0,yes,1366
undefined,undefined,undefined,undefined,white,no,Mozilla,Netscape,"5.0 (Windows NT 10.0; Win64; x64) AppleWebKit/537.36 (KHTML, like Gecko) Chrome/99.0.4844.74 Safari/537.36",xpyriment,legacy,legacy,0,uniform,0,0,0,0,24,24,24,0,0,74,74,74,74,74,0,74,0,13,13,13,13,13,0,13,18-02-22,18-02-22,11:10:38,Fri Mar 18 2022 11:10:38 GMT+0100 (közép-európai téli idő),The main experiment item,yes,0,0,C:/Users/rrics/Documents/!!ResearchBMECOGSCI/gnet,0,0,0,prototype3.png,no,mono,no,18,no,black,no,no,768,1207,3.5.6,legacy,xpyriment,osweb,1.3.13,0,space,space,space,space,44566,25831,51397,44566,2,legacy,824,1536,24,864,24,0,0,1536,1647598234583,1024,2,48000,-16,experiment,p2sarrshacol2.png,1,odd,Win32,243,137611,134604,243,243,677875,679381,672875,139125,672875,243,785845,787353,782844,679385,782844,visual_patterns,0,0,0,yes,1366
undefined,undefined,undefined,undefined,white,no,Mozilla,Netscape,"5.0 (Windows NT 10.0; Win64; x64) AppleWebKit/537.36 (KHTML, like Gecko) Chrome/99.0.4844.74 Safari/537.36",xpyriment,legacy,legacy,0,uniform,0,0,0,0,24,24,24,0,0,74,74,74,74,74,0,74,0,14,14,14,14,14,0,14,18-02-22,18-02-22,11:10:38,Fri Mar 18 2022 11:10:38 GMT+0100 (közép-európai téli idő),The main experiment item,yes,0,0,C:/Users/rrics/Documents/!!ResearchBMECOGSCI/gnet,0,0,0,prototype3.png,no,mono,no,18,no,black,no,no,768,1207,3.5.6,legacy,xpyriment,osweb,1.3.13,0,space,space,space,space,44566,25831,51397,44566,2,legacy,824,1536,24,864,24,0,0,1536,1647598234583,1024,2,48000,-16,experiment,p6sarr1.png,1,odd,Win32,243,137611,134604,243,243,677875,679381,672875,139125,672875,243,790365,791874,787368,679385,787368,visual_patterns,0,0,0,yes,1366
undefined,undefined,undefined,undefined,white,no,Mozilla,Netscape,"5.0 (Windows NT 10.0; Win64; x64) AppleWebKit/537.36 (KHTML, like Gecko) Chrome/99.0.4844.74 Safari/537.36",xpyriment,legacy,legacy,0,uniform,0,0,0,0,24,24,24,0,0,74,74,74,74,74,0,74,0,15,15,15,15,15,0,15,18-02-22,18-02-22,11:10:38,Fri Mar 18 2022 11:10:38 GMT+0100 (közép-európai téli idő),The main experiment item,yes,0,0,C:/Users/rrics/Documents/!!ResearchBMECOGSCI/gnet,0,0,0,prototype3.png,no,mono,no,18,no,black,no,no,768,1207,3.5.6,legacy,xpyriment,osweb,1.3.13,0,space,space,space,space,44566,25831,51397,44566,2,legacy,824,1536,24,864,24,0,0,1536,1647598234583,1024,2,48000,-16,experiment,p4sarrshacol3.png,1,odd,Win32,243,137611,134604,243,243,677875,679381,672875,139125,672875,243,794884,796395,791887,679385,791887,visual_patterns,0,0,0,yes,1366
undefined,undefined,undefined,undefined,white,no,Mozilla,Netscape,"5.0 (Windows NT 10.0; Win64; x64) AppleWebKit/537.36 (KHTML, like Gecko) Chrome/99.0.4844.74 Safari/537.36",xpyriment,legacy,legacy,0,uniform,0,0,0,0,24,24,24,0,0,74,74,74,74,74,0,74,0,16,16,16,16,16,0,16,18-02-22,18-02-22,11:10:38,Fri Mar 18 2022 11:10:38 GMT+0100 (közép-európai téli idő),The main experiment item,yes,0,0,C:/Users/rrics/Documents/!!ResearchBMECOGSCI/gnet,0,0,0,prototype3.png,no,mono,no,18,no,black,no,no,768,1207,3.5.6,legacy,xpyriment,osweb,1.3.13,0,space,space,space,space,44566,25831,51397,44566,2,legacy,824,1536,24,864,24,0,0,1536,1647598234583,1024,2,48000,-16,experiment,p4sarrshacol4.png,1,odd,Win32,243,137611,134604,243,243,677875,679381,672875,139125,672875,243,799406,800916,796408,679385,796408,visual_patterns,0,0,0,yes,1366
undefined,undefined,undefined,undefined,white,no,Mozilla,Netscape,"5.0 (Windows NT 10.0; Win64; x64) AppleWebKit/537.36 (KHTML, like Gecko) Chrome/99.0.4844.74 Safari/537.36",xpyriment,legacy,legacy,0,uniform,0,0,0,0,24,24,24,0,0,74,74,74,74,74,0,74,0,17,17,17,17,17,0,17,18-02-22,18-02-22,11:10:38,Fri Mar 18 2022 11:10:38 GMT+0100 (közép-európai téli idő),The main experiment item,yes,0,0,C:/Users/rrics/Documents/!!ResearchBMECOGSCI/gnet,0,0,0,prototype3.png,no,mono,no,18,no,black,no,no,768,1207,3.5.6,legacy,xpyriment,osweb,1.3.13,0,space,space,space,space,44566,25831,51397,44566,2,legacy,824,1536,24,864,24,0,0,1536,1647598234583,1024,2,48000,-16,experiment,p2sarrcol1.png,1,odd,Win32,243,137611,134604,243,243,677875,679381,672875,139125,672875,243,803930,805437,800928,679385,800928,visual_patterns,0,0,0,yes,1366
undefined,undefined,undefined,undefined,white,no,Mozilla,Netscape,"5.0 (Windows NT 10.0; Win64; x64) AppleWebKit/537.36 (KHTML, like Gecko) Chrome/99.0.4844.74 Safari/537.36",xpyriment,legacy,legacy,0,uniform,0,0,0,0,24,24,24,0,0,74,74,74,74,74,0,74,0,18,18,18,18,18,0,18,18-02-22,18-02-22,11:10:38,Fri Mar 18 2022 11:10:38 GMT+0100 (közép-európai téli idő),The main experiment item,yes,0,0,C:/Users/rrics/Documents/!!ResearchBMECOGSCI/gnet,0,0,0,prototype3.png,no,mono,no,18,no,black,no,no,768,1207,3.5.6,legacy,xpyriment,osweb,1.3.13,0,space,space,space,space,44566,25831,51397,44566,2,legacy,824,1536,24,864,24,0,0,1536,1647598234583,1024,2,48000,-16,experiment,p1sarr4.png,1,odd,Win32,243,137611,134604,243,243,677875,679381,672875,139125,672875,243,808452,809957,805451,679385,805451,visual_patterns,0,0,0,yes,1366
undefined,undefined,undefined,undefined,white,no,Mozilla,Netscape,"5.0 (Windows NT 10.0; Win64; x64) AppleWebKit/537.36 (KHTML, like Gecko) Chrome/99.0.4844.74 Safari/537.36",xpyriment,legacy,legacy,0,uniform,0,0,0,0,24,24,24,0,0,74,74,74,74,74,0,74,0,19,19,19,19,19,0,19,18-02-22,18-02-22,11:10:38,Fri Mar 18 2022 11:10:38 GMT+0100 (közép-európai téli idő),The main experiment item,yes,0,0,C:/Users/rrics/Documents/!!ResearchBMECOGSCI/gnet,0,0,0,prototype3.png,no,mono,no,18,no,black,no,no,768,1207,3.5.6,legacy,xpyriment,osweb,1.3.13,0,space,space,space,space,44566,25831,51397,44566,2,legacy,824,1536,24,864,24,0,0,1536,1647598234583,1024,2,48000,-16,experiment,p10sarr1.png,1,odd,Win32,243,137611,134604,243,243,677875,679381,672875,139125,672875,243,812970,814479,809969,679385,809969,visual_patterns,0,0,0,yes,1366
undefined,undefined,undefined,undefined,white,no,Mozilla,Netscape,"5.0 (Windows NT 10.0; Win64; x64) AppleWebKit/537.36 (KHTML, like Gecko) Chrome/99.0.4844.74 Safari/537.36",xpyriment,legacy,legacy,0,uniform,0,0,0,0,24,24,24,0,0,74,74,74,74,74,0,74,0,20,20,20,20,20,0,20,18-02-22,18-02-22,11:10:38,Fri Mar 18 2022 11:10:38 GMT+0100 (közép-európai téli idő),The main experiment item,yes,0,0,C:/Users/rrics/Documents/!!ResearchBMECOGSCI/gnet,0,0,0,prototype3.png,no,mono,no,18,no,black,no,no,768,1207,3.5.6,legacy,xpyriment,osweb,1.3.13,0,space,space,space,space,44566,25831,51397,44566,2,legacy,824,1536,24,864,24,0,0,1536,1647598234583,1024,2,48000,-16,experiment,p8sarr3.png,1,odd,Win32,243,137611,134604,243,243,677875,679381,672875,139125,672875,243,817493,819000,814493,679385,814493,visual_patterns,0,0,0,yes,1366
undefined,undefined,undefined,undefined,white,no,Mozilla,Netscape,"5.0 (Windows NT 10.0; Win64; x64) AppleWebKit/537.36 (KHTML, like Gecko) Chrome/99.0.4844.74 Safari/537.36",xpyriment,legacy,legacy,0,uniform,0,0,0,0,24,24,24,0,0,74,74,74,74,74,0,74,0,21,21,21,21,21,0,21,18-02-22,18-02-22,11:10:38,Fri Mar 18 2022 11:10:38 GMT+0100 (közép-európai téli idő),The main experiment item,yes,0,0,C:/Users/rrics/Documents/!!ResearchBMECOGSCI/gnet,0,0,0,prototype3.png,no,mono,no,18,no,black,no,no,768,1207,3.5.6,legacy,xpyriment,osweb,1.3.13,0,space,space,space,space,44566,25831,51397,44566,2,legacy,824,1536,24,864,24,0,0,1536,1647598234583,1024,2,48000,-16,experiment,p9sarr4.png,1,odd,Win32,243,137611,134604,243,243,677875,679381,672875,139125,672875,243,822011,823521,819014,679385,819014,visual_patterns,0,0,0,yes,1366
undefined,undefined,undefined,undefined,white,no,Mozilla,Netscape,"5.0 (Windows NT 10.0; Win64; x64) AppleWebKit/537.36 (KHTML, like Gecko) Chrome/99.0.4844.74 Safari/537.36",xpyriment,legacy,legacy,0,uniform,0,0,0,0,24,24,24,0,0,74,74,74,74,74,0,74,0,22,22,22,22,22,0,22,18-02-22,18-02-22,11:10:38,Fri Mar 18 2022 11:10:38 GMT+0100 (közép-európai téli idő),The main experiment item,yes,0,0,C:/Users/rrics/Documents/!!ResearchBMECOGSCI/gnet,0,0,0,prototype3.png,no,mono,no,18,no,black,no,no,768,1207,3.5.6,legacy,xpyriment,osweb,1.3.13,0,space,space,space,space,44566,25831,51397,44566,2,legacy,824,1536,24,864,24,0,0,1536,1647598234583,1024,2,48000,-16,experiment,p5sarrcol2.png,1,odd,Win32,243,137611,134604,243,243,677875,679381,672875,139125,672875,243,826536,828041,823535,679385,823534,visual_patterns,0,0,0,yes,1366
undefined,undefined,undefined,undefined,white,no,Mozilla,Netscape,"5.0 (Windows NT 10.0; Win64; x64) AppleWebKit/537.36 (KHTML, like Gecko) Chrome/99.0.4844.74 Safari/537.36",xpyriment,legacy,legacy,0,uniform,0,0,0,0,24,24,24,0,0,74,74,74,74,74,0,74,0,23,23,23,23,23,0,23,18-02-22,18-02-22,11:10:38,Fri Mar 18 2022 11:10:38 GMT+0100 (közép-európai téli idő),The main experiment item,yes,0,0,C:/Users/rrics/Documents/!!ResearchBMECOGSCI/gnet,0,0,0,prototype3.png,no,mono,no,18,no,black,no,no,768,1207,3.5.6,legacy,xpyriment,osweb,1.3.13,0,space,space,space,space,44566,25831,51397,44566,2,legacy,824,1536,24,864,24,0,0,1536,1647598234583,1024,2,48000,-16,experiment,p7sarr4.png,1,odd,Win32,243,137611,134604,243,243,677875,679381,672875,139125,672875,243,831057,832562,828058,679385,828058,visual_patterns,0,0,0,yes,1366
undefined,undefined,undefined,undefined,white,no,Mozilla,Netscape,"5.0 (Windows NT 10.0; Win64; x64) AppleWebKit/537.36 (KHTML, like Gecko) Chrome/99.0.4844.74 Safari/537.36",xpyriment,legacy,legacy,0,uniform,0,0,0,0,24,24,24,0,0,74,74,74,74,74,0,74,0,24,24,24,24,24,0,24,18-02-22,18-02-22,11:10:38,Fri Mar 18 2022 11:10:38 GMT+0100 (közép-európai téli idő),The main experiment item,yes,0,0,C:/Users/rrics/Documents/!!ResearchBMECOGSCI/gnet,0,0,0,prototype3.png,no,mono,no,18,no,black,no,no,768,1207,3.5.6,legacy,xpyriment,osweb,1.3.13,0,space,space,space,space,44566,25831,51397,44566,2,legacy,824,1536,24,864,24,0,0,1536,1647598234583,1024,2,48000,-16,experiment,p3sarrsha3.png,1,odd,Win32,243,137611,134604,243,243,677875,679381,672875,139125,672875,243,835574,837084,832575,679385,832575,visual_patterns,0,0,0,yes,1366
undefined,undefined,undefined,undefined,white,no,Mozilla,Netscape,"5.0 (Windows NT 10.0; Win64; x64) AppleWebKit/537.36 (KHTML, like Gecko) Chrome/99.0.4844.74 Safari/537.36",xpyriment,legacy,legacy,0,uniform,0,0,0,0,24,24,24,0,0,74,74,74,74,74,0,74,0,25,25,25,25,25,0,25,18-02-22,18-02-22,11:10:38,Fri Mar 18 2022 11:10:38 GMT+0100 (közép-európai téli idő),The main experiment item,yes,0,0,C:/Users/rrics/Documents/!!ResearchBMECOGSCI/gnet,0,0,0,prototype3.png,no,mono,no,18,no,black,no,no,768,1207,3.5.6,legacy,xpyriment,osweb,1.3.13,0,space,space,space,space,44566,25831,51397,44566,2,legacy,824,1536,24,864,24,0,0,1536,1647598234583,1024,2,48000,-16,experiment,p8sarr4.png,1,odd,Win32,243,137611,134604,243,243,677875,679381,672875,139125,672875,243,840096,841605,837097,679385,837097,visual_patterns,0,0,0,yes,1366
undefined,undefined,undefined,undefined,white,no,Mozilla,Netscape,"5.0 (Windows NT 10.0; Win64; x64) AppleWebKit/537.36 (KHTML, like Gecko) Chrome/99.0.4844.74 Safari/537.36",xpyriment,legacy,legacy,0,uniform,0,0,0,0,24,24,24,0,0,74,74,74,74,74,0,74,0,26,26,26,26,26,0,26,18-02-22,18-02-22,11:10:38,Fri Mar 18 2022 11:10:38 GMT+0100 (közép-európai téli idő),The main experiment item,yes,0,0,C:/Users/rrics/Documents/!!ResearchBMECOGSCI/gnet,0,0,0,prototype3.png,no,mono,no,18,no,black,no,no,768,1207,3.5.6,legacy,xpyriment,osweb,1.3.13,0,space,space,space,space,44566,25831,51397,44566,2,legacy,824,1536,24,864,24,0,0,1536,1647598234583,1024,2,48000,-16,experiment,p2sarrshacol4.png,1,odd,Win32,243,137611,134604,243,243,677875,679381,672875,139125,672875,243,844642,846159,841642,679385,841642,visual_patterns,0,0,0,yes,1366
undefined,undefined,undefined,undefined,white,no,Mozilla,Netscape,"5.0 (Windows NT 10.0; Win64; x64) AppleWebKit/537.36 (KHTML, like Gecko) Chrome/99.0.4844.74 Safari/537.36",xpyriment,legacy,legacy,0,uniform,0,0,0,0,24,24,24,0,0,74,74,74,74,74,0,74,0,27,27,27,27,27,0,27,18-02-22,18-02-22,11:10:38,Fri Mar 18 2022 11:10:38 GMT+0100 (közép-európai téli idő),The main experiment item,yes,0,0,C:/Users/rrics/Documents/!!ResearchBMECOGSCI/gnet,0,0,0,prototype3.png,no,mono,no,18,no,black,no,no,768,1207,3.5.6,legacy,xpyriment,osweb,1.3.13,0,space,space,space,space,44566,25831,51397,44566,2,legacy,824,1536,24,864,24,0,0,1536,1647598234583,1024,2,48000,-16,experiment,p4sarrshacol1.png,1,odd,Win32,243,137611,134604,243,243,677875,679381,672875,139125,672875,243,849171,850680,846173,679385,846173,visual_patterns,0,0,0,yes,1366
undefined,undefined,undefined,undefined,white,no,Mozilla,Netscape,"5.0 (Windows NT 10.0; Win64; x64) AppleWebKit/537.36 (KHTML, like Gecko) Chrome/99.0.4844.74 Safari/537.36",xpyriment,legacy,legacy,0,uniform,0,0,0,0,24,24,24,0,0,74,74,74,74,74,0,74,0,28,28,28,28,28,0,28,18-02-22,18-02-22,11:10:38,Fri Mar 18 2022 11:10:38 GMT+0100 (közép-európai téli idő),The main experiment item,yes,0,0,C:/Users/rrics/Documents/!!ResearchBMECOGSCI/gnet,0,0,0,prototype3.png,no,mono,no,18,no,black,no,no,768,1207,3.5.6,legacy,xpyriment,osweb,1.3.13,0,space,space,space,space,44566,25831,51397,44566,2,legacy,824,1536,24,864,24,0,0,1536,1647598234583,1024,2,48000,-16,experiment,p1sarrshacol3.png,1,odd,Win32,243,137611,134604,243,243,677875,679381,672875,139125,672875,243,853691,855201,850694,679385,850694,visual_patterns,0,0,0,yes,1366
undefined,undefined,undefined,undefined,white,no,Mozilla,Netscape,"5.0 (Windows NT 10.0; Win64; x64) AppleWebKit/537.36 (KHTML, like Gecko) Chrome/99.0.4844.74 Safari/537.36",xpyriment,legacy,legacy,0,uniform,0,0,0,0,24,24,24,0,0,74,74,74,74,74,0,74,0,29,29,29,29,29,0,29,18-02-22,18-02-22,11:10:38,Fri Mar 18 2022 11:10:38 GMT+0100 (közép-európai téli idő),The main experiment item,yes,0,0,C:/Users/rrics/Documents/!!ResearchBMECOGSCI/gnet,0,0,0,prototype3.png,no,mono,no,18,no,black,no,no,768,1207,3.5.6,legacy,xpyriment,osweb,1.3.13,0,space,space,space,space,44566,25831,51397,44566,2,legacy,824,1536,24,864,24,0,0,1536,1647598234583,1024,2,48000,-16,experiment,p2sarrsha1.png,1,odd,Win32,243,137611,134604,243,243,677875,679381,672875,139125,672875,243,858216,859722,855214,679385,855214,visual_patterns,0,0,0,yes,1366
undefined,undefined,undefined,undefined,white,no,Mozilla,Netscape,"5.0 (Windows NT 10.0; Win64; x64) AppleWebKit/537.36 (KHTML, like Gecko) Chrome/99.0.4844.74 Safari/537.36",xpyriment,legacy,legacy,0,uniform,0,0,0,0,24,24,24,0,0,74,74,74,74,74,0,74,0,30,30,30,30,30,0,30,18-02-22,18-02-22,11:10:38,Fri Mar 18 2022 11:10:38 GMT+0100 (közép-európai téli idő),The main experiment item,yes,0,0,C:/Users/rrics/Documents/!!ResearchBMECOGSCI/gnet,0,0,0,prototype3.png,no,mono,no,18,no,black,no,no,768,1207,3.5.6,legacy,xpyriment,osweb,1.3.13,0,space,space,space,space,44566,25831,51397,44566,2,legacy,824,1536,24,864,24,0,0,1536,1647598234583,1024,2,48000,-16,experiment,p3sarr2.png,1,odd,Win32,243,137611,134604,243,243,677875,679381,672875,139125,672875,243,862735,864243,859733,679385,859733,visual_patterns,0,0,0,yes,1366
undefined,undefined,undefined,undefined,white,no,Mozilla,Netscape,"5.0 (Windows NT 10.0; Win64; x64) AppleWebKit/537.36 (KHTML, like Gecko) Chrome/99.0.4844.74 Safari/537.36",xpyriment,legacy,legacy,0,uniform,0,0,0,0,24,24,24,0,0,74,74,74,74,74,0,74,0,31,31,31,31,31,0,31,18-02-22,18-02-22,11:10:38,Fri Mar 18 2022 11:10:38 GMT+0100 (közép-európai téli idő),The main experiment item,yes,0,0,C:/Users/rrics/Documents/!!ResearchBMECOGSCI/gnet,0,0,0,prototype3.png,no,mono,no,18,no,black,no,no,768,1207,3.5.6,legacy,xpyriment,osweb,1.3.13,0,space,space,space,space,44566,25831,51397,44566,2,legacy,824,1536,24,864,24,0,0,1536,1647598234583,1024,2,48000,-16,experiment,p3sarrshacol3.png,1,odd,Win32,243,137611,134604,243,243,677875,679381,672875,139125,672875,243,867257,868764,864257,679385,864257,visual_patterns,0,0,0,yes,1366
undefined,undefined,undefined,undefined,white,no,Mozilla,Netscape,"5.0 (Windows NT 10.0; Win64; x64) AppleWebKit/537.36 (KHTML, like Gecko) Chrome/99.0.4844.74 Safari/537.36",xpyriment,legacy,legacy,0,uniform,0,0,0,0,24,24,24,0,0,74,74,74,74,74,0,74,0,32,32,32,32,32,0,32,18-02-22,18-02-22,11:10:38,Fri Mar 18 2022 11:10:38 GMT+0100 (közép-európai téli idő),The main experiment item,yes,0,0,C:/Users/rrics/Documents/!!ResearchBMECOGSCI/gnet,0,0,0,prototype3.png,no,mono,no,18,no,black,no,no,768,1207,3.5.6,legacy,xpyriment,osweb,1.3.13,0,space,space,space,space,44566,25831,51397,44566,2,legacy,824,1536,24,864,24,0,0,1536,1647598234583,1024,2,48000,-16,experiment,p2sarrcol4.png,1,odd,Win32,243,137611,134604,243,243,677875,679381,672875,139125,672875,243,871774,873286,868779,679385,868779,visual_patterns,0,0,0,yes,1366
undefined,undefined,undefined,undefined,white,no,Mozilla,Netscape,"5.0 (Windows NT 10.0; Win64; x64) AppleWebKit/537.36 (KHTML, like Gecko) Chrome/99.0.4844.74 Safari/537.36",xpyriment,legacy,legacy,0,uniform,0,0,0,0,24,24,24,0,0,74,74,74,74,74,0,74,0,33,33,33,33,33,0,33,18-02-22,18-02-22,11:10:38,Fri Mar 18 2022 11:10:38 GMT+0100 (közép-európai téli idő),The main experiment item,yes,0,0,C:/Users/rrics/Documents/!!ResearchBMECOGSCI/gnet,0,0,0,prototype3.png,no,mono,no,18,no,black,no,no,768,1207,3.5.6,legacy,xpyriment,osweb,1.3.13,0,space,space,space,space,44566,25831,51397,44566,2,legacy,824,1536,24,864,24,0,0,1536,1647598234583,1024,2,48000,-16,experiment,p5sarrcol1.png,1,odd,Win32,243,137611,134604,243,243,677875,679381,672875,139125,672875,243,876299,877806,873298,679385,873298,visual_patterns,0,0,0,yes,1366
undefined,undefined,undefined,undefined,white,no,Mozilla,Netscape,"5.0 (Windows NT 10.0; Win64; x64) AppleWebKit/537.36 (KHTML, like Gecko) Chrome/99.0.4844.74 Safari/537.36",xpyriment,legacy,legacy,0,uniform,0,0,0,0,24,24,24,0,0,74,74,74,74,74,0,74,0,34,34,34,34,34,0,34,18-02-22,18-02-22,11:10:38,Fri Mar 18 2022 11:10:38 GMT+0100 (közép-európai téli idő),The main experiment item,yes,0,0,C:/Users/rrics/Documents/!!ResearchBMECOGSCI/gnet,0,0,0,prototype3.png,no,mono,no,18,no,black,no,no,768,1207,3.5.6,legacy,xpyriment,osweb,1.3.13,0,space,space,space,space,44566,25831,51397,44566,2,legacy,824,1536,24,864,24,0,0,1536,1647598234583,1024,2,48000,-16,experiment,p8sarr2.png,1,odd,Win32,243,137611,134604,243,243,677875,679381,672875,139125,672875,243,880820,882327,877822,679385,877822,visual_patterns,0,0,0,yes,1366
undefined,undefined,undefined,undefined,white,no,Mozilla,Netscape,"5.0 (Windows NT 10.0; Win64; x64) AppleWebKit/537.36 (KHTML, like Gecko) Chrome/99.0.4844.74 Safari/537.36",xpyriment,legacy,legacy,0,uniform,0,0,0,0,24,24,24,0,0,74,74,74,74,74,0,74,0,35,35,35,35,35,0,35,18-02-22,18-02-22,11:10:38,Fri Mar 18 2022 11:10:38 GMT+0100 (közép-európai téli idő),The main experiment item,yes,0,0,C:/Users/rrics/Documents/!!ResearchBMECOGSCI/gnet,0,0,0,prototype3.png,no,mono,no,18,no,black,no,no,768,1207,3.5.6,legacy,xpyriment,osweb,1.3.13,0,space,space,space,space,44566,25831,51397,44566,2,legacy,824,1536,24,864,24,0,0,1536,1647598234583,1024,2,48000,-16,experiment,p5sarr3.png,1,odd,Win32,243,137611,134604,243,243,677875,679381,672875,139125,672875,243,885338,886848,882341,679385,882341,visual_patterns,0,0,0,yes,1366
undefined,undefined,undefined,undefined,white,no,Mozilla,Netscape,"5.0 (Windows NT 10.0; Win64; x64) AppleWebKit/537.36 (KHTML, like Gecko) Chrome/99.0.4844.74 Safari/537.36",xpyriment,legacy,legacy,0,uniform,0,0,0,0,24,24,24,0,0,74,74,74,74,74,0,74,0,36,36,36,36,36,0,36,18-02-22,18-02-22,11:10:38,Fri Mar 18 2022 11:10:38 GMT+0100 (közép-európai téli idő),The main experiment item,yes,0,0,C:/Users/rrics/Documents/!!ResearchBMECOGSCI/gnet,0,0,0,prototype3.png,no,mono,no,18,no,black,no,no,768,1207,3.5.6,legacy,xpyriment,osweb,1.3.13,0,space,space,space,space,44566,25831,51397,44566,2,legacy,824,1536,24,864,24,0,0,1536,1647598234583,1024,2,48000,-16,experiment,p7sarr1.png,1,odd,Win32,243,137611,134604,243,243,677875,679381,672875,139125,672875,243,889886,891402,886883,679385,886883,visual_patterns,0,0,0,yes,1366
undefined,undefined,undefined,undefined,white,no,Mozilla,Netscape,"5.0 (Windows NT 10.0; Win64; x64) AppleWebKit/537.36 (KHTML, like Gecko) Chrome/99.0.4844.74 Safari/537.36",xpyriment,legacy,legacy,0,uniform,0,0,0,0,24,24,24,0,0,74,74,74,74,74,0,74,0,37,37,37,37,37,0,37,18-02-22,18-02-22,11:10:38,Fri Mar 18 2022 11:10:38 GMT+0100 (közép-európai téli idő),The main experiment item,yes,0,0,C:/Users/rrics/Documents/!!ResearchBMECOGSCI/gnet,0,0,0,prototype3.png,no,mono,no,18,no,black,no,no,768,1207,3.5.6,legacy,xpyriment,osweb,1.3.13,0,space,space,space,space,44566,25831,51397,44566,2,legacy,824,1536,24,864,24,0,0,1536,1647598234583,1024,2,48000,-16,experiment,p1sarrcol4.png,1,odd,Win32,243,137611,134604,243,243,677875,679381,672875,139125,672875,243,894413,895923,891416,679385,891416,visual_patterns,0,0,0,yes,1366
undefined,undefined,undefined,undefined,white,no,Mozilla,Netscape,"5.0 (Windows NT 10.0; Win64; x64) AppleWebKit/537.36 (KHTML, like Gecko) Chrome/99.0.4844.74 Safari/537.36",xpyriment,legacy,legacy,0,uniform,0,0,0,0,24,24,24,0,0,74,74,74,74,74,0,74,0,38,38,38,38,38,0,38,18-02-22,18-02-22,11:10:38,Fri Mar 18 2022 11:10:38 GMT+0100 (közép-európai téli idő),The main experiment item,yes,0,0,C:/Users/rrics/Documents/!!ResearchBMECOGSCI/gnet,0,0,0,prototype3.png,no,mono,no,18,no,black,no,no,768,1207,3.5.6,legacy,xpyriment,osweb,1.3.13,0,space,space,space,space,44566,25831,51397,44566,2,legacy,824,1536,24,864,24,0,0,1536,1647598234583,1024,2,48000,-16,experiment,p3sarrsha4.png,1,odd,Win32,243,137611,134604,243,243,677875,679381,672875,139125,672875,243,898938,900445,895937,679385,895936,visual_patterns,0,0,0,yes,1366
undefined,undefined,undefined,undefined,white,no,Mozilla,Netscape,"5.0 (Windows NT 10.0; Win64; x64) AppleWebKit/537.36 (KHTML, like Gecko) Chrome/99.0.4844.74 Safari/537.36",xpyriment,legacy,legacy,0,uniform,0,0,0,0,24,24,24,0,0,74,74,74,74,74,0,74,0,39,39,39,39,39,0,39,18-02-22,18-02-22,11:10:38,Fri Mar 18 2022 11:10:38 GMT+0100 (közép-európai téli idő),The main experiment item,yes,0,0,C:/Users/rrics/Documents/!!ResearchBMECOGSCI/gnet,0,0,0,prototype3.png,no,mono,no,18,no,black,no,no,768,1207,3.5.6,legacy,xpyriment,osweb,1.3.13,0,space,space,space,space,44566,25831,51397,44566,2,legacy,824,1536,24,864,24,0,0,1536,1647598234583,1024,2,48000,-16,experiment,p3sarr1.png,1,odd,Win32,243,137611,134604,243,243,677875,679381,672875,139125,672875,243,903458,904965,900458,679385,900458,visual_patterns,0,0,0,yes,1366
undefined,undefined,undefined,undefined,white,no,Mozilla,Netscape,"5.0 (Windows NT 10.0; Win64; x64) AppleWebKit/537.36 (KHTML, like Gecko) Chrome/99.0.4844.74 Safari/537.36",xpyriment,legacy,legacy,0,uniform,0,0,0,0,24,24,24,0,0,74,74,74,74,74,0,74,0,40,40,40,40,40,0,40,18-02-22,18-02-22,11:10:38,Fri Mar 18 2022 11:10:38 GMT+0100 (közép-európai téli idő),The main experiment item,yes,0,0,C:/Users/rrics/Documents/!!ResearchBMECOGSCI/gnet,0,0,0,prototype3.png,no,mono,no,18,no,black,no,no,768,1207,3.5.6,legacy,xpyriment,osweb,1.3.13,0,space,space,space,space,44566,25831,51397,44566,2,legacy,824,1536,24,864,24,0,0,1536,1647598234583,1024,2,48000,-16,experiment,p2sarrsha3.png,1,odd,Win32,243,137611,134604,243,243,677875,679381,672875,139125,672875,243,907980,909486,904979,679385,904979,visual_patterns,0,0,0,yes,1366
undefined,undefined,undefined,undefined,white,no,Mozilla,Netscape,"5.0 (Windows NT 10.0; Win64; x64) AppleWebKit/537.36 (KHTML, like Gecko) Chrome/99.0.4844.74 Safari/537.36",xpyriment,legacy,legacy,0,uniform,0,0,0,0,24,24,24,0,0,74,74,74,74,74,0,74,0,41,41,41,41,41,0,41,18-02-22,18-02-22,11:10:38,Fri Mar 18 2022 11:10:38 GMT+0100 (közép-európai téli idő),The main experiment item,yes,0,0,C:/Users/rrics/Documents/!!ResearchBMECOGSCI/gnet,0,0,0,prototype3.png,no,mono,no,18,no,black,no,no,768,1207,3.5.6,legacy,xpyriment,osweb,1.3.13,0,space,space,space,space,44566,25831,51397,44566,2,legacy,824,1536,24,864,24,0,0,1536,1647598234583,1024,2,48000,-16,experiment,p9sarr3.png,1,odd,Win32,243,137611,134604,243,243,677875,679381,672875,139125,672875,243,912499,914007,909499,679385,909499,visual_patterns,0,0,0,yes,1366
undefined,undefined,undefined,undefined,white,no,Mozilla,Netscape,"5.0 (Windows NT 10.0; Win64; x64) AppleWebKit/537.36 (KHTML, like Gecko) Chrome/99.0.4844.74 Safari/537.36",xpyriment,legacy,legacy,0,uniform,0,0,0,0,24,24,24,0,0,74,74,74,74,74,0,74,0,42,42,42,42,42,0,42,18-02-22,18-02-22,11:10:38,Fri Mar 18 2022 11:10:38 GMT+0100 (közép-európai téli idő),The main experiment item,yes,0,0,C:/Users/rrics/Documents/!!ResearchBMECOGSCI/gnet,0,0,0,prototype3.png,no,mono,no,18,no,black,no,no,768,1207,3.5.6,legacy,xpyriment,osweb,1.3.13,0,space,space,space,space,44566,25831,51397,44566,2,legacy,824,1536,24,864,24,0,0,1536,1647598234583,1024,2,48000,-16,experiment,p10sarr4.png,1,odd,Win32,243,137611,134604,243,243,677875,679381,672875,139125,672875,243,917019,918528,914021,679385,914021,visual_patterns,0,0,0,yes,1366
undefined,undefined,undefined,undefined,white,no,Mozilla,Netscape,"5.0 (Windows NT 10.0; Win64; x64) AppleWebKit/537.36 (KHTML, like Gecko) Chrome/99.0.4844.74 Safari/537.36",xpyriment,legacy,legacy,0,uniform,0,0,0,0,24,24,24,0,0,74,74,74,74,74,0,74,0,43,43,43,43,43,0,43,18-02-22,18-02-22,11:10:38,Fri Mar 18 2022 11:10:38 GMT+0100 (közép-európai téli idő),The main experiment item,yes,0,0,C:/Users/rrics/Documents/!!ResearchBMECOGSCI/gnet,0,0,0,prototype3.png,no,mono,no,18,no,black,no,no,768,1207,3.5.6,legacy,xpyriment,osweb,1.3.13,0,space,space,space,space,44566,25831,51397,44566,2,legacy,824,1536,24,864,24,0,0,1536,1647598234583,1024,2,48000,-16,experiment,p4sarrcol1.png,1,odd,Win32,243,137611,134604,243,243,677875,679381,672875,139125,672875,243,921542,923049,918541,679385,918540,visual_patterns,0,0,0,yes,1366
undefined,undefined,undefined,undefined,white,no,Mozilla,Netscape,"5.0 (Windows NT 10.0; Win64; x64) AppleWebKit/537.36 (KHTML, like Gecko) Chrome/99.0.4844.74 Safari/537.36",xpyriment,legacy,legacy,0,uniform,0,0,0,0,24,24,24,0,0,74,74,74,74,74,0,74,0,44,44,44,44,44,0,44,18-02-22,18-02-22,11:10:38,Fri Mar 18 2022 11:10:38 GMT+0100 (közép-európai téli idő),The main experiment item,yes,0,0,C:/Users/rrics/Documents/!!ResearchBMECOGSCI/gnet,0,0,0,prototype3.png,no,mono,no,18,no,black,no,no,768,1207,3.5.6,legacy,xpyriment,osweb,1.3.13,0,space,space,space,space,44566,25831,51397,44566,2,legacy,824,1536,24,864,24,0,0,1536,1647598234583,1024,2,48000,-16,experiment,p5sarrshacol4.png,1,odd,Win32,243,137611,134604,243,243,677875,679381,672875,139125,672875,243,926059,927570,923062,679385,923062,visual_patterns,0,0,0,yes,1366
undefined,undefined,undefined,undefined,white,no,Mozilla,Netscape,"5.0 (Windows NT 10.0; Win64; x64) AppleWebKit/537.36 (KHTML, like Gecko) Chrome/99.0.4844.74 Safari/537.36",xpyriment,legacy,legacy,0,uniform,0,0,0,0,24,24,24,0,0,74,74,74,74,74,0,74,0,45,45,45,45,45,0,45,18-02-22,18-02-22,11:10:38,Fri Mar 18 2022 11:10:38 GMT+0100 (közép-európai téli idő),The main experiment item,yes,0,0,C:/Users/rrics/Documents/!!ResearchBMECOGSCI/gnet,0,0,0,prototype3.png,no,mono,no,18,no,black,no,no,768,1207,3.5.6,legacy,xpyriment,osweb,1.3.13,0,space,space,space,space,44566,25831,51397,44566,2,legacy,824,1536,24,864,24,0,0,1536,1647598234583,1024,2,48000,-16,experiment,p3sarr3.png,1,odd,Win32,243,137611,134604,243,243,677875,679381,672875,139125,672875,243,930581,932091,927584,679385,927584,visual_patterns,0,0,0,yes,1366
undefined,undefined,undefined,undefined,white,no,Mozilla,Netscape,"5.0 (Windows NT 10.0; Win64; x64) AppleWebKit/537.36 (KHTML, like Gecko) Chrome/99.0.4844.74 Safari/537.36",xpyriment,legacy,legacy,0,uniform,0,0,0,0,24,24,24,0,0,74,74,74,74,74,0,74,0,46,46,46,46,46,0,46,18-02-22,18-02-22,11:10:38,Fri Mar 18 2022 11:10:38 GMT+0100 (közép-európai téli idő),The main experiment item,yes,0,0,C:/Users/rrics/Documents/!!ResearchBMECOGSCI/gnet,0,0,0,prototype3.png,no,mono,no,18,no,black,no,no,768,1207,3.5.6,legacy,xpyriment,osweb,1.3.13,0,space,space,space,space,44566,25831,51397,44566,2,legacy,824,1536,24,864,24,0,0,1536,1647598234583,1024,2,48000,-16,experiment,p2sarr3.png,1,odd,Win32,243,137611,134604,243,243,677875,679381,672875,139125,672875,243,935105,936612,932105,679385,932104,visual_patterns,0,0,0,yes,1366
undefined,undefined,undefined,undefined,white,no,Mozilla,Netscape,"5.0 (Windows NT 10.0; Win64; x64) AppleWebKit/537.36 (KHTML, like Gecko) Chrome/99.0.4844.74 Safari/537.36",xpyriment,legacy,legacy,0,uniform,0,0,0,0,24,24,24,0,0,74,74,74,74,74,0,74,0,47,47,47,47,47,0,47,18-02-22,18-02-22,11:10:38,Fri Mar 18 2022 11:10:38 GMT+0100 (közép-európai téli idő),The main experiment item,yes,0,0,C:/Users/rrics/Documents/!!ResearchBMECOGSCI/gnet,0,0,0,prototype3.png,no,mono,no,18,no,black,no,no,768,1207,3.5.6,legacy,xpyriment,osweb,1.3.13,0,space,space,space,space,44566,25831,51397,44566,2,legacy,824,1536,24,864,24,0,0,1536,1647598234583,1024,2,48000,-16,experiment,p4sarr2.png,1,odd,Win32,243,137611,134604,243,243,677875,679381,672875,139125,672875,243,939623,941133,936626,679385,936626,visual_patterns,0,0,0,yes,1366
undefined,undefined,undefined,undefined,white,no,Mozilla,Netscape,"5.0 (Windows NT 10.0; Win64; x64) AppleWebKit/537.36 (KHTML, like Gecko) Chrome/99.0.4844.74 Safari/537.36",xpyriment,legacy,legacy,0,uniform,0,0,0,0,24,24,24,0,0,74,74,74,74,74,0,74,0,48,48,48,48,48,0,48,18-02-22,18-02-22,11:10:38,Fri Mar 18 2022 11:10:38 GMT+0100 (közép-európai téli idő),The main experiment item,yes,0,0,C:/Users/rrics/Documents/!!ResearchBMECOGSCI/gnet,0,0,0,prototype3.png,no,mono,no,18,no,black,no,no,768,1207,3.5.6,legacy,xpyriment,osweb,1.3.13,0,space,space,space,space,44566,25831,51397,44566,2,legacy,824,1536,24,864,24,0,0,1536,1647598234583,1024,2,48000,-16,experiment,p2sarrshacol3.png,1,odd,Win32,243,137611,134604,243,243,677875,679381,672875,139125,672875,243,944146,945654,941147,679385,941147,visual_patterns,0,0,0,yes,1366
