acc,accuracy,average_response_time,avg_rt,background,bidi,browser_codename,browser_name,browser_version,canvas_backend,clock_backend,color_backend,compensation,coordinates,count_end,count_experiment,count_osweb,count_prestudy,count_prestudy_isi,count_prestudy_sequence,count_prestudy_stimpres,count_start,count_study,count_study_coroutines,count_study_isi,count_study_logger,count_study_response,count_study_sequence,count_study_start,count_study_stimpres,count_test,count_test_coroutines,count_test_isi,count_test_logger,count_test_response,count_test_sequence,count_test_start,count_test_stimpres,date_startdate,date_startdateUTC,date_starttime,datetime,description,disable_garbage_collection,experiment_debug,experiment_parameters,experiment_path,experiment_pilot,experiment_taskname,experiment_taskversion,fampict,font_bold,font_family,font_italic,font_size,font_underline,foreground,form_clicks,fullscreen,height,jatosStudyResultId,jatosVersion,keyboard_backend,mouse_backend,opensesame_codename,opensesame_version,repeat_cycle,response,response_start,response_study_start,response_test_start,response_time,response_time_start,response_time_study_start,response_time_test_start,round_decimals,sampler_backend,screen_availableHeight,screen_availableWidth,screen_colorDepth,screen_height,screen_pixelDepth,screen_screenX,screen_screenY,screen_width,sessionid,sound_buf_size,sound_channels,sound_freq,sound_sample_size,start,stim,subject_nr,subject_parity,system_os,time_prestudy,time_prestudy_isi,time_prestudy_stimpres,time_start,time_study,time_study_isi,time_study_logger,time_study_response,time_study_start,time_study_stimpres,time_test,time_test_isi,time_test_logger,time_test_response,time_test_start,time_test_stimpres,title,total_correct,total_response_time,total_responses,uniform_coordinates,width
undefined,undefined,undefined,undefined,white,no,Mozilla,Netscape,"5.0 (Windows NT 10.0; Win64; x64) AppleWebKit/537.36 (KHTML, like Gecko) Chrome/99.0.4844.74 Safari/537.36",xpyriment,legacy,legacy,0,uniform,0,0,0,0,24,24,24,0,0,0,0,0,0,0,0,0,0,,,,,,0,,19-02-22,19-02-22,15:16:39,Sat Mar 19 2022 15:16:39 GMT+0100 (Central European Standard Time),The main experiment item,yes,0,0,C:/Users/rrics/Documents/!!ResearchBMECOGSCI/gnet,0,0,0,prototype3.png,no,mono,no,18,no,black,no,no,768,1208,3.5.6,legacy,xpyriment,osweb,1.3.13,0,left,space,left,,31268,15985,31268,,2,legacy,824,1536,24,864,24,0,0,1536,1647699421344,1024,2,48000,-16,experiment,p6sarr1.png,0,even,Win32,371,128201,125187,371,371,166027,167538,161031,129721,161031,371,,,,,,visual_patterns,0,0,0,yes,1366
undefined,undefined,undefined,undefined,white,no,Mozilla,Netscape,"5.0 (Windows NT 10.0; Win64; x64) AppleWebKit/537.36 (KHTML, like Gecko) Chrome/99.0.4844.74 Safari/537.36",xpyriment,legacy,legacy,0,uniform,0,0,0,0,24,24,24,0,0,1,1,1,1,1,0,1,0,,,,,,0,,19-02-22,19-02-22,15:16:39,Sat Mar 19 2022 15:16:39 GMT+0100 (Central European Standard Time),The main experiment item,yes,0,0,C:/Users/rrics/Documents/!!ResearchBMECOGSCI/gnet,0,0,0,prototype3.png,no,mono,no,18,no,black,no,no,768,1208,3.5.6,legacy,xpyriment,osweb,1.3.13,0,left,space,left,,31268,15985,31268,,2,legacy,824,1536,24,864,24,0,0,1536,1647699421344,1024,2,48000,-16,experiment,prototype3.png,0,even,Win32,371,128201,125187,371,371,172580,174086,167580,129721,167580,371,,,,,,visual_patterns,0,0,0,yes,1366
undefined,undefined,undefined,undefined,white,no,Mozilla,Netscape,"5.0 (Windows NT 10.0; Win64; x64) AppleWebKit/537.36 (KHTML, like Gecko) Chrome/99.0.4844.74 Safari/537.36",xpyriment,legacy,legacy,0,uniform,0,0,0,0,24,24,24,0,0,2,2,2,2,2,0,2,0,,,,,,0,,19-02-22,19-02-22,15:16:39,Sat Mar 19 2022 15:16:39 GMT+0100 (Central European Standard Time),The main experiment item,yes,0,0,C:/Users/rrics/Documents/!!ResearchBMECOGSCI/gnet,0,0,0,prototype3.png,no,mono,no,18,no,black,no,no,768,1208,3.5.6,legacy,xpyriment,osweb,1.3.13,0,left,space,left,,31268,15985,31268,,2,legacy,824,1536,24,864,24,0,0,1536,1647699421344,1024,2,48000,-16,experiment,p3sarr1.png,0,even,Win32,371,128201,125187,371,371,179103,180604,174106,129721,174106,371,,,,,,visual_patterns,0,0,0,yes,1366
undefined,undefined,undefined,undefined,white,no,Mozilla,Netscape,"5.0 (Windows NT 10.0; Win64; x64) AppleWebKit/537.36 (KHTML, like Gecko) Chrome/99.0.4844.74 Safari/537.36",xpyriment,legacy,legacy,0,uniform,0,0,0,0,24,24,24,0,0,3,3,3,3,3,0,3,0,,,,,,0,,19-02-22,19-02-22,15:16:39,Sat Mar 19 2022 15:16:39 GMT+0100 (Central European Standard Time),The main experiment item,yes,0,0,C:/Users/rrics/Documents/!!ResearchBMECOGSCI/gnet,0,0,0,prototype3.png,no,mono,no,18,no,black,no,no,768,1208,3.5.6,legacy,xpyriment,osweb,1.3.13,0,left,space,left,,31268,15985,31268,,2,legacy,824,1536,24,864,24,0,0,1536,1647699421344,1024,2,48000,-16,experiment,p9sarr2.png,0,even,Win32,371,128201,125187,371,371,185616,187121,180619,129721,180619,371,,,,,,visual_patterns,0,0,0,yes,1366
undefined,undefined,undefined,undefined,white,no,Mozilla,Netscape,"5.0 (Windows NT 10.0; Win64; x64) AppleWebKit/537.36 (KHTML, like Gecko) Chrome/99.0.4844.74 Safari/537.36",xpyriment,legacy,legacy,0,uniform,0,0,0,0,24,24,24,0,0,4,4,4,4,4,0,4,0,,,,,,0,,19-02-22,19-02-22,15:16:39,Sat Mar 19 2022 15:16:39 GMT+0100 (Central European Standard Time),The main experiment item,yes,0,0,C:/Users/rrics/Documents/!!ResearchBMECOGSCI/gnet,0,0,0,prototype3.png,no,mono,no,18,no,black,no,no,768,1208,3.5.6,legacy,xpyriment,osweb,1.3.13,0,left,space,left,,31268,15985,31268,,2,legacy,824,1536,24,864,24,0,0,1536,1647699421344,1024,2,48000,-16,experiment,p4sarr2.png,0,even,Win32,371,128201,125187,371,371,192136,193638,187136,129721,187136,371,,,,,,visual_patterns,0,0,0,yes,1366
undefined,undefined,undefined,undefined,white,no,Mozilla,Netscape,"5.0 (Windows NT 10.0; Win64; x64) AppleWebKit/537.36 (KHTML, like Gecko) Chrome/99.0.4844.74 Safari/537.36",xpyriment,legacy,legacy,0,uniform,0,0,0,0,24,24,24,0,0,5,5,5,5,5,0,5,0,,,,,,0,,19-02-22,19-02-22,15:16:39,Sat Mar 19 2022 15:16:39 GMT+0100 (Central European Standard Time),The main experiment item,yes,0,0,C:/Users/rrics/Documents/!!ResearchBMECOGSCI/gnet,0,0,0,prototype3.png,no,mono,no,18,no,black,no,no,768,1208,3.5.6,legacy,xpyriment,osweb,1.3.13,0,left,space,left,,31268,15985,31268,,2,legacy,824,1536,24,864,24,0,0,1536,1647699421344,1024,2,48000,-16,experiment,p4sarrshacol2.png,0,even,Win32,371,128201,125187,371,371,198654,200155,193655,129721,193655,371,,,,,,visual_patterns,0,0,0,yes,1366
undefined,undefined,undefined,undefined,white,no,Mozilla,Netscape,"5.0 (Windows NT 10.0; Win64; x64) AppleWebKit/537.36 (KHTML, like Gecko) Chrome/99.0.4844.74 Safari/537.36",xpyriment,legacy,legacy,0,uniform,0,0,0,0,24,24,24,0,0,6,6,6,6,6,0,6,0,,,,,,0,,19-02-22,19-02-22,15:16:39,Sat Mar 19 2022 15:16:39 GMT+0100 (Central European Standard Time),The main experiment item,yes,0,0,C:/Users/rrics/Documents/!!ResearchBMECOGSCI/gnet,0,0,0,prototype3.png,no,mono,no,18,no,black,no,no,768,1208,3.5.6,legacy,xpyriment,osweb,1.3.13,0,left,space,left,,31268,15985,31268,,2,legacy,824,1536,24,864,24,0,0,1536,1647699421344,1024,2,48000,-16,experiment,p5sarrsha2.png,0,even,Win32,371,128201,125187,371,371,205169,206672,200171,129721,200171,371,,,,,,visual_patterns,0,0,0,yes,1366
undefined,undefined,undefined,undefined,white,no,Mozilla,Netscape,"5.0 (Windows NT 10.0; Win64; x64) AppleWebKit/537.36 (KHTML, like Gecko) Chrome/99.0.4844.74 Safari/537.36",xpyriment,legacy,legacy,0,uniform,0,0,0,0,24,24,24,0,0,7,7,7,7,7,0,7,0,,,,,,0,,19-02-22,19-02-22,15:16:39,Sat Mar 19 2022 15:16:39 GMT+0100 (Central European Standard Time),The main experiment item,yes,0,0,C:/Users/rrics/Documents/!!ResearchBMECOGSCI/gnet,0,0,0,prototype3.png,no,mono,no,18,no,black,no,no,768,1208,3.5.6,legacy,xpyriment,osweb,1.3.13,0,left,space,left,,31268,15985,31268,,2,legacy,824,1536,24,864,24,0,0,1536,1647699421344,1024,2,48000,-16,experiment,p2sarr1.png,0,even,Win32,371,128201,125187,371,371,211687,213189,206689,129721,206689,371,,,,,,visual_patterns,0,0,0,yes,1366
undefined,undefined,undefined,undefined,white,no,Mozilla,Netscape,"5.0 (Windows NT 10.0; Win64; x64) AppleWebKit/537.36 (KHTML, like Gecko) Chrome/99.0.4844.74 Safari/537.36",xpyriment,legacy,legacy,0,uniform,0,0,0,0,24,24,24,0,0,8,8,8,8,8,0,8,0,,,,,,0,,19-02-22,19-02-22,15:16:39,Sat Mar 19 2022 15:16:39 GMT+0100 (Central European Standard Time),The main experiment item,yes,0,0,C:/Users/rrics/Documents/!!ResearchBMECOGSCI/gnet,0,0,0,prototype3.png,no,mono,no,18,no,black,no,no,768,1208,3.5.6,legacy,xpyriment,osweb,1.3.13,0,left,space,left,,31268,15985,31268,,2,legacy,824,1536,24,864,24,0,0,1536,1647699421344,1024,2,48000,-16,experiment,prototype4.png,0,even,Win32,371,128201,125187,371,371,218202,219706,213202,129721,213202,371,,,,,,visual_patterns,0,0,0,yes,1366
undefined,undefined,undefined,undefined,white,no,Mozilla,Netscape,"5.0 (Windows NT 10.0; Win64; x64) AppleWebKit/537.36 (KHTML, like Gecko) Chrome/99.0.4844.74 Safari/537.36",xpyriment,legacy,legacy,0,uniform,0,0,0,0,24,24,24,0,0,9,9,9,9,9,0,9,0,,,,,,0,,19-02-22,19-02-22,15:16:39,Sat Mar 19 2022 15:16:39 GMT+0100 (Central European Standard Time),The main experiment item,yes,0,0,C:/Users/rrics/Documents/!!ResearchBMECOGSCI/gnet,0,0,0,prototype3.png,no,mono,no,18,no,black,no,no,768,1208,3.5.6,legacy,xpyriment,osweb,1.3.13,0,left,space,left,,31268,15985,31268,,2,legacy,824,1536,24,864,24,0,0,1536,1647699421344,1024,2,48000,-16,experiment,p5sarrsha1.png,0,even,Win32,371,128201,125187,371,371,224745,226256,219749,129721,219749,371,,,,,,visual_patterns,0,0,0,yes,1366
undefined,undefined,undefined,undefined,white,no,Mozilla,Netscape,"5.0 (Windows NT 10.0; Win64; x64) AppleWebKit/537.36 (KHTML, like Gecko) Chrome/99.0.4844.74 Safari/537.36",xpyriment,legacy,legacy,0,uniform,0,0,0,0,24,24,24,0,0,10,10,10,10,10,0,10,0,,,,,,0,,19-02-22,19-02-22,15:16:39,Sat Mar 19 2022 15:16:39 GMT+0100 (Central European Standard Time),The main experiment item,yes,0,0,C:/Users/rrics/Documents/!!ResearchBMECOGSCI/gnet,0,0,0,prototype3.png,no,mono,no,18,no,black,no,no,768,1208,3.5.6,legacy,xpyriment,osweb,1.3.13,0,left,space,left,,31268,15985,31268,,2,legacy,824,1536,24,864,24,0,0,1536,1647699421344,1024,2,48000,-16,experiment,p5sarrcol1.png,0,even,Win32,371,128201,125187,371,371,231268,232773,226273,129721,226273,371,,,,,,visual_patterns,0,0,0,yes,1366
undefined,undefined,undefined,undefined,white,no,Mozilla,Netscape,"5.0 (Windows NT 10.0; Win64; x64) AppleWebKit/537.36 (KHTML, like Gecko) Chrome/99.0.4844.74 Safari/537.36",xpyriment,legacy,legacy,0,uniform,0,0,0,0,24,24,24,0,0,11,11,11,11,11,0,11,0,,,,,,0,,19-02-22,19-02-22,15:16:39,Sat Mar 19 2022 15:16:39 GMT+0100 (Central European Standard Time),The main experiment item,yes,0,0,C:/Users/rrics/Documents/!!ResearchBMECOGSCI/gnet,0,0,0,prototype3.png,no,mono,no,18,no,black,no,no,768,1208,3.5.6,legacy,xpyriment,osweb,1.3.13,0,left,space,left,,31268,15985,31268,,2,legacy,824,1536,24,864,24,0,0,1536,1647699421344,1024,2,48000,-16,experiment,p8sarr2.png,0,even,Win32,371,128201,125187,371,371,237787,239290,232788,129721,232788,371,,,,,,visual_patterns,0,0,0,yes,1366
undefined,undefined,undefined,undefined,white,no,Mozilla,Netscape,"5.0 (Windows NT 10.0; Win64; x64) AppleWebKit/537.36 (KHTML, like Gecko) Chrome/99.0.4844.74 Safari/537.36",xpyriment,legacy,legacy,0,uniform,0,0,0,0,24,24,24,0,0,12,12,12,12,12,0,12,0,,,,,,0,,19-02-22,19-02-22,15:16:39,Sat Mar 19 2022 15:16:39 GMT+0100 (Central European Standard Time),The main experiment item,yes,0,0,C:/Users/rrics/Documents/!!ResearchBMECOGSCI/gnet,0,0,0,prototype3.png,no,mono,no,18,no,black,no,no,768,1208,3.5.6,legacy,xpyriment,osweb,1.3.13,0,left,space,left,,31268,15985,31268,,2,legacy,824,1536,24,864,24,0,0,1536,1647699421344,1024,2,48000,-16,experiment,p5sarrshacol2.png,0,even,Win32,371,128201,125187,371,371,244303,245807,239306,129721,239306,371,,,,,,visual_patterns,0,0,0,yes,1366
undefined,undefined,undefined,undefined,white,no,Mozilla,Netscape,"5.0 (Windows NT 10.0; Win64; x64) AppleWebKit/537.36 (KHTML, like Gecko) Chrome/99.0.4844.74 Safari/537.36",xpyriment,legacy,legacy,0,uniform,0,0,0,0,24,24,24,0,0,13,13,13,13,13,0,13,0,,,,,,0,,19-02-22,19-02-22,15:16:39,Sat Mar 19 2022 15:16:39 GMT+0100 (Central European Standard Time),The main experiment item,yes,0,0,C:/Users/rrics/Documents/!!ResearchBMECOGSCI/gnet,0,0,0,prototype3.png,no,mono,no,18,no,black,no,no,768,1208,3.5.6,legacy,xpyriment,osweb,1.3.13,0,left,space,left,,31268,15985,31268,,2,legacy,824,1536,24,864,24,0,0,1536,1647699421344,1024,2,48000,-16,experiment,p8sarr1.png,0,even,Win32,371,128201,125187,371,371,250822,252324,245824,129721,245824,371,,,,,,visual_patterns,0,0,0,yes,1366
undefined,undefined,undefined,undefined,white,no,Mozilla,Netscape,"5.0 (Windows NT 10.0; Win64; x64) AppleWebKit/537.36 (KHTML, like Gecko) Chrome/99.0.4844.74 Safari/537.36",xpyriment,legacy,legacy,0,uniform,0,0,0,0,24,24,24,0,0,14,14,14,14,14,0,14,0,,,,,,0,,19-02-22,19-02-22,15:16:39,Sat Mar 19 2022 15:16:39 GMT+0100 (Central European Standard Time),The main experiment item,yes,0,0,C:/Users/rrics/Documents/!!ResearchBMECOGSCI/gnet,0,0,0,prototype3.png,no,mono,no,18,no,black,no,no,768,1208,3.5.6,legacy,xpyriment,osweb,1.3.13,0,left,space,left,,31268,15985,31268,,2,legacy,824,1536,24,864,24,0,0,1536,1647699421344,1024,2,48000,-16,experiment,p3sarrcol1.png,0,even,Win32,371,128201,125187,371,371,257340,258841,252340,129721,252340,371,,,,,,visual_patterns,0,0,0,yes,1366
undefined,undefined,undefined,undefined,white,no,Mozilla,Netscape,"5.0 (Windows NT 10.0; Win64; x64) AppleWebKit/537.36 (KHTML, like Gecko) Chrome/99.0.4844.74 Safari/537.36",xpyriment,legacy,legacy,0,uniform,0,0,0,0,24,24,24,0,0,15,15,15,15,15,0,15,0,,,,,,0,,19-02-22,19-02-22,15:16:39,Sat Mar 19 2022 15:16:39 GMT+0100 (Central European Standard Time),The main experiment item,yes,0,0,C:/Users/rrics/Documents/!!ResearchBMECOGSCI/gnet,0,0,0,prototype3.png,no,mono,no,18,no,black,no,no,768,1208,3.5.6,legacy,xpyriment,osweb,1.3.13,0,left,space,left,,31268,15985,31268,,2,legacy,824,1536,24,864,24,0,0,1536,1647699421344,1024,2,48000,-16,experiment,prototype1.png,0,even,Win32,371,128201,125187,371,371,263859,265375,258859,129721,258859,371,,,,,,visual_patterns,0,0,0,yes,1366
undefined,undefined,undefined,undefined,white,no,Mozilla,Netscape,"5.0 (Windows NT 10.0; Win64; x64) AppleWebKit/537.36 (KHTML, like Gecko) Chrome/99.0.4844.74 Safari/537.36",xpyriment,legacy,legacy,0,uniform,0,0,0,0,24,24,24,0,0,16,16,16,16,16,0,16,0,,,,,,0,,19-02-22,19-02-22,15:16:39,Sat Mar 19 2022 15:16:39 GMT+0100 (Central European Standard Time),The main experiment item,yes,0,0,C:/Users/rrics/Documents/!!ResearchBMECOGSCI/gnet,0,0,0,prototype3.png,no,mono,no,18,no,black,no,no,768,1208,3.5.6,legacy,xpyriment,osweb,1.3.13,0,left,space,left,,31268,15985,31268,,2,legacy,824,1536,24,864,24,0,0,1536,1647699421344,1024,2,48000,-16,experiment,p2sarr2.png,0,even,Win32,371,128201,125187,371,371,270387,271892,265391,129721,265391,371,,,,,,visual_patterns,0,0,0,yes,1366
undefined,undefined,undefined,undefined,white,no,Mozilla,Netscape,"5.0 (Windows NT 10.0; Win64; x64) AppleWebKit/537.36 (KHTML, like Gecko) Chrome/99.0.4844.74 Safari/537.36",xpyriment,legacy,legacy,0,uniform,0,0,0,0,24,24,24,0,0,17,17,17,17,17,0,17,0,,,,,,0,,19-02-22,19-02-22,15:16:39,Sat Mar 19 2022 15:16:39 GMT+0100 (Central European Standard Time),The main experiment item,yes,0,0,C:/Users/rrics/Documents/!!ResearchBMECOGSCI/gnet,0,0,0,prototype3.png,no,mono,no,18,no,black,no,no,768,1208,3.5.6,legacy,xpyriment,osweb,1.3.13,0,left,space,left,,31268,15985,31268,,2,legacy,824,1536,24,864,24,0,0,1536,1647699421344,1024,2,48000,-16,experiment,p3sarrsha2.png,0,even,Win32,371,128201,125187,371,371,276910,278426,271911,129721,271911,371,,,,,,visual_patterns,0,0,0,yes,1366
undefined,undefined,undefined,undefined,white,no,Mozilla,Netscape,"5.0 (Windows NT 10.0; Win64; x64) AppleWebKit/537.36 (KHTML, like Gecko) Chrome/99.0.4844.74 Safari/537.36",xpyriment,legacy,legacy,0,uniform,0,0,0,0,24,24,24,0,0,18,18,18,18,18,0,18,0,,,,,,0,,19-02-22,19-02-22,15:16:39,Sat Mar 19 2022 15:16:39 GMT+0100 (Central European Standard Time),The main experiment item,yes,0,0,C:/Users/rrics/Documents/!!ResearchBMECOGSCI/gnet,0,0,0,prototype3.png,no,mono,no,18,no,black,no,no,768,1208,3.5.6,legacy,xpyriment,osweb,1.3.13,0,left,space,left,,31268,15985,31268,,2,legacy,824,1536,24,864,24,0,0,1536,1647699421344,1024,2,48000,-16,experiment,prototype4.png,0,even,Win32,371,128201,125187,371,371,283438,284943,278439,129721,278439,371,,,,,,visual_patterns,0,0,0,yes,1366
undefined,undefined,undefined,undefined,white,no,Mozilla,Netscape,"5.0 (Windows NT 10.0; Win64; x64) AppleWebKit/537.36 (KHTML, like Gecko) Chrome/99.0.4844.74 Safari/537.36",xpyriment,legacy,legacy,0,uniform,0,0,0,0,24,24,24,0,0,19,19,19,19,19,0,19,0,,,,,,0,,19-02-22,19-02-22,15:16:39,Sat Mar 19 2022 15:16:39 GMT+0100 (Central European Standard Time),The main experiment item,yes,0,0,C:/Users/rrics/Documents/!!ResearchBMECOGSCI/gnet,0,0,0,prototype3.png,no,mono,no,18,no,black,no,no,768,1208,3.5.6,legacy,xpyriment,osweb,1.3.13,0,left,space,left,,31268,15985,31268,,2,legacy,824,1536,24,864,24,0,0,1536,1647699421344,1024,2,48000,-16,experiment,p3sarrsha1.png,0,even,Win32,371,128201,125187,371,371,289981,291493,284985,129721,284985,371,,,,,,visual_patterns,0,0,0,yes,1366
undefined,undefined,undefined,undefined,white,no,Mozilla,Netscape,"5.0 (Windows NT 10.0; Win64; x64) AppleWebKit/537.36 (KHTML, like Gecko) Chrome/99.0.4844.74 Safari/537.36",xpyriment,legacy,legacy,0,uniform,0,0,0,0,24,24,24,0,0,20,20,20,20,20,0,20,0,,,,,,0,,19-02-22,19-02-22,15:16:39,Sat Mar 19 2022 15:16:39 GMT+0100 (Central European Standard Time),The main experiment item,yes,0,0,C:/Users/rrics/Documents/!!ResearchBMECOGSCI/gnet,0,0,0,prototype3.png,no,mono,no,18,no,black,no,no,768,1208,3.5.6,legacy,xpyriment,osweb,1.3.13,0,left,space,left,,31268,15985,31268,,2,legacy,824,1536,24,864,24,0,0,1536,1647699421344,1024,2,48000,-16,experiment,prototype2.png,0,even,Win32,371,128201,125187,371,371,296505,298010,291506,129721,291506,371,,,,,,visual_patterns,0,0,0,yes,1366
undefined,undefined,undefined,undefined,white,no,Mozilla,Netscape,"5.0 (Windows NT 10.0; Win64; x64) AppleWebKit/537.36 (KHTML, like Gecko) Chrome/99.0.4844.74 Safari/537.36",xpyriment,legacy,legacy,0,uniform,0,0,0,0,24,24,24,0,0,21,21,21,21,21,0,21,0,,,,,,0,,19-02-22,19-02-22,15:16:39,Sat Mar 19 2022 15:16:39 GMT+0100 (Central European Standard Time),The main experiment item,yes,0,0,C:/Users/rrics/Documents/!!ResearchBMECOGSCI/gnet,0,0,0,prototype3.png,no,mono,no,18,no,black,no,no,768,1208,3.5.6,legacy,xpyriment,osweb,1.3.13,0,left,space,left,,31268,15985,31268,,2,legacy,824,1536,24,864,24,0,0,1536,1647699421344,1024,2,48000,-16,experiment,p4sarrcol2.png,0,even,Win32,371,128201,125187,371,371,303024,304527,298028,129721,298027,371,,,,,,visual_patterns,0,0,0,yes,1366
undefined,undefined,undefined,undefined,white,no,Mozilla,Netscape,"5.0 (Windows NT 10.0; Win64; x64) AppleWebKit/537.36 (KHTML, like Gecko) Chrome/99.0.4844.74 Safari/537.36",xpyriment,legacy,legacy,0,uniform,0,0,0,0,24,24,24,0,0,22,22,22,22,22,0,22,0,,,,,,0,,19-02-22,19-02-22,15:16:39,Sat Mar 19 2022 15:16:39 GMT+0100 (Central European Standard Time),The main experiment item,yes,0,0,C:/Users/rrics/Documents/!!ResearchBMECOGSCI/gnet,0,0,0,prototype3.png,no,mono,no,18,no,black,no,no,768,1208,3.5.6,legacy,xpyriment,osweb,1.3.13,0,left,space,left,,31268,15985,31268,,2,legacy,824,1536,24,864,24,0,0,1536,1647699421344,1024,2,48000,-16,experiment,p5sarrshacol1.png,0,even,Win32,371,128201,125187,371,371,309540,311044,304543,129721,304543,371,,,,,,visual_patterns,0,0,0,yes,1366
undefined,undefined,undefined,undefined,white,no,Mozilla,Netscape,"5.0 (Windows NT 10.0; Win64; x64) AppleWebKit/537.36 (KHTML, like Gecko) Chrome/99.0.4844.74 Safari/537.36",xpyriment,legacy,legacy,0,uniform,0,0,0,0,24,24,24,0,0,23,23,23,23,23,0,23,0,,,,,,0,,19-02-22,19-02-22,15:16:39,Sat Mar 19 2022 15:16:39 GMT+0100 (Central European Standard Time),The main experiment item,yes,0,0,C:/Users/rrics/Documents/!!ResearchBMECOGSCI/gnet,0,0,0,prototype3.png,no,mono,no,18,no,black,no,no,768,1208,3.5.6,legacy,xpyriment,osweb,1.3.13,0,left,space,left,,31268,15985,31268,,2,legacy,824,1536,24,864,24,0,0,1536,1647699421344,1024,2,48000,-16,experiment,prototype2.png,0,even,Win32,371,128201,125187,371,371,316057,317561,311056,129721,311056,371,,,,,,visual_patterns,0,0,0,yes,1366
undefined,undefined,undefined,undefined,white,no,Mozilla,Netscape,"5.0 (Windows NT 10.0; Win64; x64) AppleWebKit/537.36 (KHTML, like Gecko) Chrome/99.0.4844.74 Safari/537.36",xpyriment,legacy,legacy,0,uniform,0,0,0,0,24,24,24,0,0,24,24,24,24,24,0,24,0,,,,,,0,,19-02-22,19-02-22,15:16:39,Sat Mar 19 2022 15:16:39 GMT+0100 (Central European Standard Time),The main experiment item,yes,0,0,C:/Users/rrics/Documents/!!ResearchBMECOGSCI/gnet,0,0,0,prototype3.png,no,mono,no,18,no,black,no,no,768,1208,3.5.6,legacy,xpyriment,osweb,1.3.13,0,left,space,left,,31268,15985,31268,,2,legacy,824,1536,24,864,24,0,0,1536,1647699421344,1024,2,48000,-16,experiment,p4sarrsha2.png,0,even,Win32,371,128201,125187,371,371,322603,324112,317604,129721,317604,371,,,,,,visual_patterns,0,0,0,yes,1366
undefined,undefined,undefined,undefined,white,no,Mozilla,Netscape,"5.0 (Windows NT 10.0; Win64; x64) AppleWebKit/537.36 (KHTML, like Gecko) Chrome/99.0.4844.74 Safari/537.36",xpyriment,legacy,legacy,0,uniform,0,0,0,0,24,24,24,0,0,25,25,25,25,25,0,25,0,,,,,,0,,19-02-22,19-02-22,15:16:39,Sat Mar 19 2022 15:16:39 GMT+0100 (Central European Standard Time),The main experiment item,yes,0,0,C:/Users/rrics/Documents/!!ResearchBMECOGSCI/gnet,0,0,0,prototype3.png,no,mono,no,18,no,black,no,no,768,1208,3.5.6,legacy,xpyriment,osweb,1.3.13,0,left,space,left,,31268,15985,31268,,2,legacy,824,1536,24,864,24,0,0,1536,1647699421344,1024,2,48000,-16,experiment,p9sarr1.png,0,even,Win32,371,128201,125187,371,371,329127,330629,324130,129721,324130,371,,,,,,visual_patterns,0,0,0,yes,1366
undefined,undefined,undefined,undefined,white,no,Mozilla,Netscape,"5.0 (Windows NT 10.0; Win64; x64) AppleWebKit/537.36 (KHTML, like Gecko) Chrome/99.0.4844.74 Safari/537.36",xpyriment,legacy,legacy,0,uniform,0,0,0,0,24,24,24,0,0,26,26,26,26,26,0,26,0,,,,,,0,,19-02-22,19-02-22,15:16:39,Sat Mar 19 2022 15:16:39 GMT+0100 (Central European Standard Time),The main experiment item,yes,0,0,C:/Users/rrics/Documents/!!ResearchBMECOGSCI/gnet,0,0,0,prototype3.png,no,mono,no,18,no,black,no,no,768,1208,3.5.6,legacy,xpyriment,osweb,1.3.13,0,left,space,left,,31268,15985,31268,,2,legacy,824,1536,24,864,24,0,0,1536,1647699421344,1024,2,48000,-16,experiment,prototype1.png,0,even,Win32,371,128201,125187,371,371,335643,337146,330641,129721,330641,371,,,,,,visual_patterns,0,0,0,yes,1366
undefined,undefined,undefined,undefined,white,no,Mozilla,Netscape,"5.0 (Windows NT 10.0; Win64; x64) AppleWebKit/537.36 (KHTML, like Gecko) Chrome/99.0.4844.74 Safari/537.36",xpyriment,legacy,legacy,0,uniform,0,0,0,0,24,24,24,0,0,27,27,27,27,27,0,27,0,,,,,,0,,19-02-22,19-02-22,15:16:39,Sat Mar 19 2022 15:16:39 GMT+0100 (Central European Standard Time),The main experiment item,yes,0,0,C:/Users/rrics/Documents/!!ResearchBMECOGSCI/gnet,0,0,0,prototype3.png,no,mono,no,18,no,black,no,no,768,1208,3.5.6,legacy,xpyriment,osweb,1.3.13,0,left,space,left,,31268,15985,31268,,2,legacy,824,1536,24,864,24,0,0,1536,1647699421344,1024,2,48000,-16,experiment,p4sarrcol1.png,0,even,Win32,371,128201,125187,371,371,342158,343663,337161,129721,337161,371,,,,,,visual_patterns,0,0,0,yes,1366
undefined,undefined,undefined,undefined,white,no,Mozilla,Netscape,"5.0 (Windows NT 10.0; Win64; x64) AppleWebKit/537.36 (KHTML, like Gecko) Chrome/99.0.4844.74 Safari/537.36",xpyriment,legacy,legacy,0,uniform,0,0,0,0,24,24,24,0,0,28,28,28,28,28,0,28,0,,,,,,0,,19-02-22,19-02-22,15:16:39,Sat Mar 19 2022 15:16:39 GMT+0100 (Central European Standard Time),The main experiment item,yes,0,0,C:/Users/rrics/Documents/!!ResearchBMECOGSCI/gnet,0,0,0,prototype3.png,no,mono,no,18,no,black,no,no,768,1208,3.5.6,legacy,xpyriment,osweb,1.3.13,0,left,space,left,,31268,15985,31268,,2,legacy,824,1536,24,864,24,0,0,1536,1647699421344,1024,2,48000,-16,experiment,prototype4.png,0,even,Win32,371,128201,125187,371,371,348676,350180,343675,129721,343675,371,,,,,,visual_patterns,0,0,0,yes,1366
undefined,undefined,undefined,undefined,white,no,Mozilla,Netscape,"5.0 (Windows NT 10.0; Win64; x64) AppleWebKit/537.36 (KHTML, like Gecko) Chrome/99.0.4844.74 Safari/537.36",xpyriment,legacy,legacy,0,uniform,0,0,0,0,24,24,24,0,0,29,29,29,29,29,0,29,0,,,,,,0,,19-02-22,19-02-22,15:16:39,Sat Mar 19 2022 15:16:39 GMT+0100 (Central European Standard Time),The main experiment item,yes,0,0,C:/Users/rrics/Documents/!!ResearchBMECOGSCI/gnet,0,0,0,prototype3.png,no,mono,no,18,no,black,no,no,768,1208,3.5.6,legacy,xpyriment,osweb,1.3.13,0,left,space,left,,31268,15985,31268,,2,legacy,824,1536,24,864,24,0,0,1536,1647699421344,1024,2,48000,-16,experiment,prototype5.png,0,even,Win32,371,128201,125187,371,371,355218,356730,350217,129721,350217,371,,,,,,visual_patterns,0,0,0,yes,1366
undefined,undefined,undefined,undefined,white,no,Mozilla,Netscape,"5.0 (Windows NT 10.0; Win64; x64) AppleWebKit/537.36 (KHTML, like Gecko) Chrome/99.0.4844.74 Safari/537.36",xpyriment,legacy,legacy,0,uniform,0,0,0,0,24,24,24,0,0,30,30,30,30,30,0,30,0,,,,,,0,,19-02-22,19-02-22,15:16:39,Sat Mar 19 2022 15:16:39 GMT+0100 (Central European Standard Time),The main experiment item,yes,0,0,C:/Users/rrics/Documents/!!ResearchBMECOGSCI/gnet,0,0,0,prototype3.png,no,mono,no,18,no,black,no,no,768,1208,3.5.6,legacy,xpyriment,osweb,1.3.13,0,left,space,left,,31268,15985,31268,,2,legacy,824,1536,24,864,24,0,0,1536,1647699421344,1024,2,48000,-16,experiment,p5sarrcol2.png,0,even,Win32,371,128201,125187,371,371,361745,363247,356746,129721,356746,371,,,,,,visual_patterns,0,0,0,yes,1366
undefined,undefined,undefined,undefined,white,no,Mozilla,Netscape,"5.0 (Windows NT 10.0; Win64; x64) AppleWebKit/537.36 (KHTML, like Gecko) Chrome/99.0.4844.74 Safari/537.36",xpyriment,legacy,legacy,0,uniform,0,0,0,0,24,24,24,0,0,31,31,31,31,31,0,31,0,,,,,,0,,19-02-22,19-02-22,15:16:39,Sat Mar 19 2022 15:16:39 GMT+0100 (Central European Standard Time),The main experiment item,yes,0,0,C:/Users/rrics/Documents/!!ResearchBMECOGSCI/gnet,0,0,0,prototype3.png,no,mono,no,18,no,black,no,no,768,1208,3.5.6,legacy,xpyriment,osweb,1.3.13,0,left,space,left,,31268,15985,31268,,2,legacy,824,1536,24,864,24,0,0,1536,1647699421344,1024,2,48000,-16,experiment,p2sarrsha2.png,0,even,Win32,371,128201,125187,371,371,368259,369764,363265,129721,363265,371,,,,,,visual_patterns,0,0,0,yes,1366
undefined,undefined,undefined,undefined,white,no,Mozilla,Netscape,"5.0 (Windows NT 10.0; Win64; x64) AppleWebKit/537.36 (KHTML, like Gecko) Chrome/99.0.4844.74 Safari/537.36",xpyriment,legacy,legacy,0,uniform,0,0,0,0,24,24,24,0,0,32,32,32,32,32,0,32,0,,,,,,0,,19-02-22,19-02-22,15:16:39,Sat Mar 19 2022 15:16:39 GMT+0100 (Central European Standard Time),The main experiment item,yes,0,0,C:/Users/rrics/Documents/!!ResearchBMECOGSCI/gnet,0,0,0,prototype3.png,no,mono,no,18,no,black,no,no,768,1208,3.5.6,legacy,xpyriment,osweb,1.3.13,0,left,space,left,,31268,15985,31268,,2,legacy,824,1536,24,864,24,0,0,1536,1647699421344,1024,2,48000,-16,experiment,p5sarr1.png,0,even,Win32,371,128201,125187,371,371,374781,376298,369783,129721,369782,371,,,,,,visual_patterns,0,0,0,yes,1366
undefined,undefined,undefined,undefined,white,no,Mozilla,Netscape,"5.0 (Windows NT 10.0; Win64; x64) AppleWebKit/537.36 (KHTML, like Gecko) Chrome/99.0.4844.74 Safari/537.36",xpyriment,legacy,legacy,0,uniform,0,0,0,0,24,24,24,0,0,33,33,33,33,33,0,33,0,,,,,,0,,19-02-22,19-02-22,15:16:39,Sat Mar 19 2022 15:16:39 GMT+0100 (Central European Standard Time),The main experiment item,yes,0,0,C:/Users/rrics/Documents/!!ResearchBMECOGSCI/gnet,0,0,0,prototype3.png,no,mono,no,18,no,black,no,no,768,1208,3.5.6,legacy,xpyriment,osweb,1.3.13,0,left,space,left,,31268,15985,31268,,2,legacy,824,1536,24,864,24,0,0,1536,1647699421344,1024,2,48000,-16,experiment,p3sarrshacol1.png,0,even,Win32,371,128201,125187,371,371,381310,382815,376314,129721,376314,371,,,,,,visual_patterns,0,0,0,yes,1366
undefined,undefined,undefined,undefined,white,no,Mozilla,Netscape,"5.0 (Windows NT 10.0; Win64; x64) AppleWebKit/537.36 (KHTML, like Gecko) Chrome/99.0.4844.74 Safari/537.36",xpyriment,legacy,legacy,0,uniform,0,0,0,0,24,24,24,0,0,34,34,34,34,34,0,34,0,,,,,,0,,19-02-22,19-02-22,15:16:39,Sat Mar 19 2022 15:16:39 GMT+0100 (Central European Standard Time),The main experiment item,yes,0,0,C:/Users/rrics/Documents/!!ResearchBMECOGSCI/gnet,0,0,0,prototype3.png,no,mono,no,18,no,black,no,no,768,1208,3.5.6,legacy,xpyriment,osweb,1.3.13,0,left,space,left,,31268,15985,31268,,2,legacy,824,1536,24,864,24,0,0,1536,1647699421344,1024,2,48000,-16,experiment,prototype1.png,0,even,Win32,371,128201,125187,371,371,387857,389366,382853,129721,382853,371,,,,,,visual_patterns,0,0,0,yes,1366
undefined,undefined,undefined,undefined,white,no,Mozilla,Netscape,"5.0 (Windows NT 10.0; Win64; x64) AppleWebKit/537.36 (KHTML, like Gecko) Chrome/99.0.4844.74 Safari/537.36",xpyriment,legacy,legacy,0,uniform,0,0,0,0,24,24,24,0,0,35,35,35,35,35,0,35,0,,,,,,0,,19-02-22,19-02-22,15:16:39,Sat Mar 19 2022 15:16:39 GMT+0100 (Central European Standard Time),The main experiment item,yes,0,0,C:/Users/rrics/Documents/!!ResearchBMECOGSCI/gnet,0,0,0,prototype3.png,no,mono,no,18,no,black,no,no,768,1208,3.5.6,legacy,xpyriment,osweb,1.3.13,0,left,space,left,,31268,15985,31268,,2,legacy,824,1536,24,864,24,0,0,1536,1647699421344,1024,2,48000,-16,experiment,p4sarrshacol1.png,0,even,Win32,371,128201,125187,371,371,394378,395882,389381,129721,389381,371,,,,,,visual_patterns,0,0,0,yes,1366
undefined,undefined,undefined,undefined,white,no,Mozilla,Netscape,"5.0 (Windows NT 10.0; Win64; x64) AppleWebKit/537.36 (KHTML, like Gecko) Chrome/99.0.4844.74 Safari/537.36",xpyriment,legacy,legacy,0,uniform,0,0,0,0,24,24,24,0,0,36,36,36,36,36,0,36,0,,,,,,0,,19-02-22,19-02-22,15:16:39,Sat Mar 19 2022 15:16:39 GMT+0100 (Central European Standard Time),The main experiment item,yes,0,0,C:/Users/rrics/Documents/!!ResearchBMECOGSCI/gnet,0,0,0,prototype3.png,no,mono,no,18,no,black,no,no,768,1208,3.5.6,legacy,xpyriment,osweb,1.3.13,0,left,space,left,,31268,15985,31268,,2,legacy,824,1536,24,864,24,0,0,1536,1647699421344,1024,2,48000,-16,experiment,prototype3.png,0,even,Win32,371,128201,125187,371,371,400895,402399,395895,129721,395895,371,,,,,,visual_patterns,0,0,0,yes,1366
undefined,undefined,undefined,undefined,white,no,Mozilla,Netscape,"5.0 (Windows NT 10.0; Win64; x64) AppleWebKit/537.36 (KHTML, like Gecko) Chrome/99.0.4844.74 Safari/537.36",xpyriment,legacy,legacy,0,uniform,0,0,0,0,24,24,24,0,0,37,37,37,37,37,0,37,0,,,,,,0,,19-02-22,19-02-22,15:16:39,Sat Mar 19 2022 15:16:39 GMT+0100 (Central European Standard Time),The main experiment item,yes,0,0,C:/Users/rrics/Documents/!!ResearchBMECOGSCI/gnet,0,0,0,prototype3.png,no,mono,no,18,no,black,no,no,768,1208,3.5.6,legacy,xpyriment,osweb,1.3.13,0,left,space,left,,31268,15985,31268,,2,legacy,824,1536,24,864,24,0,0,1536,1647699421344,1024,2,48000,-16,experiment,prototype3.png,0,even,Win32,371,128201,125187,371,371,407413,408916,402413,129721,402413,371,,,,,,visual_patterns,0,0,0,yes,1366
undefined,undefined,undefined,undefined,white,no,Mozilla,Netscape,"5.0 (Windows NT 10.0; Win64; x64) AppleWebKit/537.36 (KHTML, like Gecko) Chrome/99.0.4844.74 Safari/537.36",xpyriment,legacy,legacy,0,uniform,0,0,0,0,24,24,24,0,0,38,38,38,38,38,0,38,0,,,,,,0,,19-02-22,19-02-22,15:16:39,Sat Mar 19 2022 15:16:39 GMT+0100 (Central European Standard Time),The main experiment item,yes,0,0,C:/Users/rrics/Documents/!!ResearchBMECOGSCI/gnet,0,0,0,prototype3.png,no,mono,no,18,no,black,no,no,768,1208,3.5.6,legacy,xpyriment,osweb,1.3.13,0,left,space,left,,31268,15985,31268,,2,legacy,824,1536,24,864,24,0,0,1536,1647699421344,1024,2,48000,-16,experiment,p7sarr1.png,0,even,Win32,371,128201,125187,371,371,413932,415434,408936,129721,408936,371,,,,,,visual_patterns,0,0,0,yes,1366
undefined,undefined,undefined,undefined,white,no,Mozilla,Netscape,"5.0 (Windows NT 10.0; Win64; x64) AppleWebKit/537.36 (KHTML, like Gecko) Chrome/99.0.4844.74 Safari/537.36",xpyriment,legacy,legacy,0,uniform,0,0,0,0,24,24,24,0,0,39,39,39,39,39,0,39,0,,,,,,0,,19-02-22,19-02-22,15:16:39,Sat Mar 19 2022 15:16:39 GMT+0100 (Central European Standard Time),The main experiment item,yes,0,0,C:/Users/rrics/Documents/!!ResearchBMECOGSCI/gnet,0,0,0,prototype3.png,no,mono,no,18,no,black,no,no,768,1208,3.5.6,legacy,xpyriment,osweb,1.3.13,0,left,space,left,,31268,15985,31268,,2,legacy,824,1536,24,864,24,0,0,1536,1647699421344,1024,2,48000,-16,experiment,p1sarrsha1.png,0,even,Win32,371,128201,125187,371,371,420472,421984,415475,129721,415475,371,,,,,,visual_patterns,0,0,0,yes,1366
undefined,undefined,undefined,undefined,white,no,Mozilla,Netscape,"5.0 (Windows NT 10.0; Win64; x64) AppleWebKit/537.36 (KHTML, like Gecko) Chrome/99.0.4844.74 Safari/537.36",xpyriment,legacy,legacy,0,uniform,0,0,0,0,24,24,24,0,0,40,40,40,40,40,0,40,0,,,,,,0,,19-02-22,19-02-22,15:16:39,Sat Mar 19 2022 15:16:39 GMT+0100 (Central European Standard Time),The main experiment item,yes,0,0,C:/Users/rrics/Documents/!!ResearchBMECOGSCI/gnet,0,0,0,prototype3.png,no,mono,no,18,no,black,no,no,768,1208,3.5.6,legacy,xpyriment,osweb,1.3.13,0,left,space,left,,31268,15985,31268,,2,legacy,824,1536,24,864,24,0,0,1536,1647699421344,1024,2,48000,-16,experiment,prototype5.png,0,even,Win32,371,128201,125187,371,371,426997,428501,421998,129721,421998,371,,,,,,visual_patterns,0,0,0,yes,1366
undefined,undefined,undefined,undefined,white,no,Mozilla,Netscape,"5.0 (Windows NT 10.0; Win64; x64) AppleWebKit/537.36 (KHTML, like Gecko) Chrome/99.0.4844.74 Safari/537.36",xpyriment,legacy,legacy,0,uniform,0,0,0,0,24,24,24,0,0,41,41,41,41,41,0,41,0,,,,,,0,,19-02-22,19-02-22,15:16:39,Sat Mar 19 2022 15:16:39 GMT+0100 (Central European Standard Time),The main experiment item,yes,0,0,C:/Users/rrics/Documents/!!ResearchBMECOGSCI/gnet,0,0,0,prototype3.png,no,mono,no,18,no,black,no,no,768,1208,3.5.6,legacy,xpyriment,osweb,1.3.13,0,left,space,left,,31268,15985,31268,,2,legacy,824,1536,24,864,24,0,0,1536,1647699421344,1024,2,48000,-16,experiment,p3sarrshacol2.png,0,even,Win32,371,128201,125187,371,371,433512,435018,428519,129721,428519,371,,,,,,visual_patterns,0,0,0,yes,1366
undefined,undefined,undefined,undefined,white,no,Mozilla,Netscape,"5.0 (Windows NT 10.0; Win64; x64) AppleWebKit/537.36 (KHTML, like Gecko) Chrome/99.0.4844.74 Safari/537.36",xpyriment,legacy,legacy,0,uniform,0,0,0,0,24,24,24,0,0,42,42,42,42,42,0,42,0,,,,,,0,,19-02-22,19-02-22,15:16:39,Sat Mar 19 2022 15:16:39 GMT+0100 (Central European Standard Time),The main experiment item,yes,0,0,C:/Users/rrics/Documents/!!ResearchBMECOGSCI/gnet,0,0,0,prototype3.png,no,mono,no,18,no,black,no,no,768,1208,3.5.6,legacy,xpyriment,osweb,1.3.13,0,left,space,left,,31268,15985,31268,,2,legacy,824,1536,24,864,24,0,0,1536,1647699421344,1024,2,48000,-16,experiment,p3sarrcol2.png,0,even,Win32,371,128201,125187,371,371,440033,441535,435034,129721,435034,371,,,,,,visual_patterns,0,0,0,yes,1366
undefined,undefined,undefined,undefined,white,no,Mozilla,Netscape,"5.0 (Windows NT 10.0; Win64; x64) AppleWebKit/537.36 (KHTML, like Gecko) Chrome/99.0.4844.74 Safari/537.36",xpyriment,legacy,legacy,0,uniform,0,0,0,0,24,24,24,0,0,43,43,43,43,43,0,43,0,,,,,,0,,19-02-22,19-02-22,15:16:39,Sat Mar 19 2022 15:16:39 GMT+0100 (Central European Standard Time),The main experiment item,yes,0,0,C:/Users/rrics/Documents/!!ResearchBMECOGSCI/gnet,0,0,0,prototype3.png,no,mono,no,18,no,black,no,no,768,1208,3.5.6,legacy,xpyriment,osweb,1.3.13,0,left,space,left,,31268,15985,31268,,2,legacy,824,1536,24,864,24,0,0,1536,1647699421344,1024,2,48000,-16,experiment,p3sarr2.png,0,even,Win32,371,128201,125187,371,371,446549,448052,441551,129721,441551,371,,,,,,visual_patterns,0,0,0,yes,1366
undefined,undefined,undefined,undefined,white,no,Mozilla,Netscape,"5.0 (Windows NT 10.0; Win64; x64) AppleWebKit/537.36 (KHTML, like Gecko) Chrome/99.0.4844.74 Safari/537.36",xpyriment,legacy,legacy,0,uniform,0,0,0,0,24,24,24,0,0,44,44,44,44,44,0,44,0,,,,,,0,,19-02-22,19-02-22,15:16:39,Sat Mar 19 2022 15:16:39 GMT+0100 (Central European Standard Time),The main experiment item,yes,0,0,C:/Users/rrics/Documents/!!ResearchBMECOGSCI/gnet,0,0,0,prototype3.png,no,mono,no,18,no,black,no,no,768,1208,3.5.6,legacy,xpyriment,osweb,1.3.13,0,left,space,left,,31268,15985,31268,,2,legacy,824,1536,24,864,24,0,0,1536,1647699421344,1024,2,48000,-16,experiment,p2sarrsha1.png,0,even,Win32,371,128201,125187,371,371,453096,454602,448096,129721,448096,371,,,,,,visual_patterns,0,0,0,yes,1366
undefined,undefined,undefined,undefined,white,no,Mozilla,Netscape,"5.0 (Windows NT 10.0; Win64; x64) AppleWebKit/537.36 (KHTML, like Gecko) Chrome/99.0.4844.74 Safari/537.36",xpyriment,legacy,legacy,0,uniform,0,0,0,0,24,24,24,0,0,45,45,45,45,45,0,45,0,,,,,,0,,19-02-22,19-02-22,15:16:39,Sat Mar 19 2022 15:16:39 GMT+0100 (Central European Standard Time),The main experiment item,yes,0,0,C:/Users/rrics/Documents/!!ResearchBMECOGSCI/gnet,0,0,0,prototype3.png,no,mono,no,18,no,black,no,no,768,1208,3.5.6,legacy,xpyriment,osweb,1.3.13,0,left,space,left,,31268,15985,31268,,2,legacy,824,1536,24,864,24,0,0,1536,1647699421344,1024,2,48000,-16,experiment,p4sarrsha1.png,0,even,Win32,371,128201,125187,371,371,459618,461120,454617,129721,454617,371,,,,,,visual_patterns,0,0,0,yes,1366
undefined,undefined,undefined,undefined,white,no,Mozilla,Netscape,"5.0 (Windows NT 10.0; Win64; x64) AppleWebKit/537.36 (KHTML, like Gecko) Chrome/99.0.4844.74 Safari/537.36",xpyriment,legacy,legacy,0,uniform,0,0,0,0,24,24,24,0,0,46,46,46,46,46,0,46,0,,,,,,0,,19-02-22,19-02-22,15:16:39,Sat Mar 19 2022 15:16:39 GMT+0100 (Central European Standard Time),The main experiment item,yes,0,0,C:/Users/rrics/Documents/!!ResearchBMECOGSCI/gnet,0,0,0,prototype3.png,no,mono,no,18,no,black,no,no,768,1208,3.5.6,legacy,xpyriment,osweb,1.3.13,0,left,space,left,,31268,15985,31268,,2,legacy,824,1536,24,864,24,0,0,1536,1647699421344,1024,2,48000,-16,experiment,p1sarrcol1.png,0,even,Win32,371,128201,125187,371,371,466136,467653,461137,129721,461137,371,,,,,,visual_patterns,0,0,0,yes,1366
undefined,undefined,undefined,undefined,white,no,Mozilla,Netscape,"5.0 (Windows NT 10.0; Win64; x64) AppleWebKit/537.36 (KHTML, like Gecko) Chrome/99.0.4844.74 Safari/537.36",xpyriment,legacy,legacy,0,uniform,0,0,0,0,24,24,24,0,0,47,47,47,47,47,0,47,0,,,,,,0,,19-02-22,19-02-22,15:16:39,Sat Mar 19 2022 15:16:39 GMT+0100 (Central European Standard Time),The main experiment item,yes,0,0,C:/Users/rrics/Documents/!!ResearchBMECOGSCI/gnet,0,0,0,prototype3.png,no,mono,no,18,no,black,no,no,768,1208,3.5.6,legacy,xpyriment,osweb,1.3.13,0,left,space,left,,31268,15985,31268,,2,legacy,824,1536,24,864,24,0,0,1536,1647699421344,1024,2,48000,-16,experiment,p1sarrsha2.png,0,even,Win32,371,128201,125187,371,371,472669,474170,467669,129721,467669,371,,,,,,visual_patterns,0,0,0,yes,1366
undefined,undefined,undefined,undefined,white,no,Mozilla,Netscape,"5.0 (Windows NT 10.0; Win64; x64) AppleWebKit/537.36 (KHTML, like Gecko) Chrome/99.0.4844.74 Safari/537.36",xpyriment,legacy,legacy,0,uniform,0,0,0,0,24,24,24,0,0,48,48,48,48,48,0,48,0,,,,,,0,,19-02-22,19-02-22,15:16:39,Sat Mar 19 2022 15:16:39 GMT+0100 (Central European Standard Time),The main experiment item,yes,0,0,C:/Users/rrics/Documents/!!ResearchBMECOGSCI/gnet,0,0,0,prototype3.png,no,mono,no,18,no,black,no,no,768,1208,3.5.6,legacy,xpyriment,osweb,1.3.13,0,left,space,left,,31268,15985,31268,,2,legacy,824,1536,24,864,24,0,0,1536,1647699421344,1024,2,48000,-16,experiment,p7sarr2.png,0,even,Win32,371,128201,125187,371,371,479186,480687,474189,129721,474189,371,,,,,,visual_patterns,0,0,0,yes,1366
undefined,undefined,undefined,undefined,white,no,Mozilla,Netscape,"5.0 (Windows NT 10.0; Win64; x64) AppleWebKit/537.36 (KHTML, like Gecko) Chrome/99.0.4844.74 Safari/537.36",xpyriment,legacy,legacy,0,uniform,0,0,0,0,24,24,24,0,0,49,49,49,49,49,0,49,0,,,,,,0,,19-02-22,19-02-22,15:16:39,Sat Mar 19 2022 15:16:39 GMT+0100 (Central European Standard Time),The main experiment item,yes,0,0,C:/Users/rrics/Documents/!!ResearchBMECOGSCI/gnet,0,0,0,prototype3.png,no,mono,no,18,no,black,no,no,768,1208,3.5.6,legacy,xpyriment,osweb,1.3.13,0,left,space,left,,31268,15985,31268,,2,legacy,824,1536,24,864,24,0,0,1536,1647699421344,1024,2,48000,-16,experiment,p4sarr1.png,0,even,Win32,371,128201,125187,371,371,485701,487204,480704,129721,480704,371,,,,,,visual_patterns,0,0,0,yes,1366
undefined,undefined,undefined,undefined,white,no,Mozilla,Netscape,"5.0 (Windows NT 10.0; Win64; x64) AppleWebKit/537.36 (KHTML, like Gecko) Chrome/99.0.4844.74 Safari/537.36",xpyriment,legacy,legacy,0,uniform,0,0,0,0,24,24,24,0,0,50,50,50,50,50,0,50,0,,,,,,0,,19-02-22,19-02-22,15:16:39,Sat Mar 19 2022 15:16:39 GMT+0100 (Central European Standard Time),The main experiment item,yes,0,0,C:/Users/rrics/Documents/!!ResearchBMECOGSCI/gnet,0,0,0,prototype3.png,no,mono,no,18,no,black,no,no,768,1208,3.5.6,legacy,xpyriment,osweb,1.3.13,0,left,space,left,,31268,15985,31268,,2,legacy,824,1536,24,864,24,0,0,1536,1647699421344,1024,2,48000,-16,experiment,p10sarr1.png,0,even,Win32,371,128201,125187,371,371,492217,493721,487221,129721,487221,371,,,,,,visual_patterns,0,0,0,yes,1366
undefined,undefined,undefined,undefined,white,no,Mozilla,Netscape,"5.0 (Windows NT 10.0; Win64; x64) AppleWebKit/537.36 (KHTML, like Gecko) Chrome/99.0.4844.74 Safari/537.36",xpyriment,legacy,legacy,0,uniform,0,0,0,0,24,24,24,0,0,51,51,51,51,51,0,51,0,,,,,,0,,19-02-22,19-02-22,15:16:39,Sat Mar 19 2022 15:16:39 GMT+0100 (Central European Standard Time),The main experiment item,yes,0,0,C:/Users/rrics/Documents/!!ResearchBMECOGSCI/gnet,0,0,0,prototype3.png,no,mono,no,18,no,black,no,no,768,1208,3.5.6,legacy,xpyriment,osweb,1.3.13,0,left,space,left,,31268,15985,31268,,2,legacy,824,1536,24,864,24,0,0,1536,1647699421344,1024,2,48000,-16,experiment,prototype3.png,0,even,Win32,371,128201,125187,371,371,498734,500238,493734,129721,493734,371,,,,,,visual_patterns,0,0,0,yes,1366
undefined,undefined,undefined,undefined,white,no,Mozilla,Netscape,"5.0 (Windows NT 10.0; Win64; x64) AppleWebKit/537.36 (KHTML, like Gecko) Chrome/99.0.4844.74 Safari/537.36",xpyriment,legacy,legacy,0,uniform,0,0,0,0,24,24,24,0,0,52,52,52,52,52,0,52,0,,,,,,0,,19-02-22,19-02-22,15:16:39,Sat Mar 19 2022 15:16:39 GMT+0100 (Central European Standard Time),The main experiment item,yes,0,0,C:/Users/rrics/Documents/!!ResearchBMECOGSCI/gnet,0,0,0,prototype3.png,no,mono,no,18,no,black,no,no,768,1208,3.5.6,legacy,xpyriment,osweb,1.3.13,0,left,space,left,,31268,15985,31268,,2,legacy,824,1536,24,864,24,0,0,1536,1647699421344,1024,2,48000,-16,experiment,p1sarr1.png,0,even,Win32,371,128201,125187,371,371,505252,506755,500256,129721,500256,371,,,,,,visual_patterns,0,0,0,yes,1366
undefined,undefined,undefined,undefined,white,no,Mozilla,Netscape,"5.0 (Windows NT 10.0; Win64; x64) AppleWebKit/537.36 (KHTML, like Gecko) Chrome/99.0.4844.74 Safari/537.36",xpyriment,legacy,legacy,0,uniform,0,0,0,0,24,24,24,0,0,53,53,53,53,53,0,53,0,,,,,,0,,19-02-22,19-02-22,15:16:39,Sat Mar 19 2022 15:16:39 GMT+0100 (Central European Standard Time),The main experiment item,yes,0,0,C:/Users/rrics/Documents/!!ResearchBMECOGSCI/gnet,0,0,0,prototype3.png,no,mono,no,18,no,black,no,no,768,1208,3.5.6,legacy,xpyriment,osweb,1.3.13,0,left,space,left,,31268,15985,31268,,2,legacy,824,1536,24,864,24,0,0,1536,1647699421344,1024,2,48000,-16,experiment,p1sarrcol2.png,0,even,Win32,371,128201,125187,371,371,511770,513272,506772,129721,506772,371,,,,,,visual_patterns,0,0,0,yes,1366
undefined,undefined,undefined,undefined,white,no,Mozilla,Netscape,"5.0 (Windows NT 10.0; Win64; x64) AppleWebKit/537.36 (KHTML, like Gecko) Chrome/99.0.4844.74 Safari/537.36",xpyriment,legacy,legacy,0,uniform,0,0,0,0,24,24,24,0,0,54,54,54,54,54,0,54,0,,,,,,0,,19-02-22,19-02-22,15:16:39,Sat Mar 19 2022 15:16:39 GMT+0100 (Central European Standard Time),The main experiment item,yes,0,0,C:/Users/rrics/Documents/!!ResearchBMECOGSCI/gnet,0,0,0,prototype3.png,no,mono,no,18,no,black,no,no,768,1208,3.5.6,legacy,xpyriment,osweb,1.3.13,0,left,space,left,,31268,15985,31268,,2,legacy,824,1536,24,864,24,0,0,1536,1647699421344,1024,2,48000,-16,experiment,p2sarrcol2.png,0,even,Win32,371,128201,125187,371,371,518283,519789,513287,129721,513287,371,,,,,,visual_patterns,0,0,0,yes,1366
undefined,undefined,undefined,undefined,white,no,Mozilla,Netscape,"5.0 (Windows NT 10.0; Win64; x64) AppleWebKit/537.36 (KHTML, like Gecko) Chrome/99.0.4844.74 Safari/537.36",xpyriment,legacy,legacy,0,uniform,0,0,0,0,24,24,24,0,0,55,55,55,55,55,0,55,0,,,,,,0,,19-02-22,19-02-22,15:16:39,Sat Mar 19 2022 15:16:39 GMT+0100 (Central European Standard Time),The main experiment item,yes,0,0,C:/Users/rrics/Documents/!!ResearchBMECOGSCI/gnet,0,0,0,prototype3.png,no,mono,no,18,no,black,no,no,768,1208,3.5.6,legacy,xpyriment,osweb,1.3.13,0,left,space,left,,31268,15985,31268,,2,legacy,824,1536,24,864,24,0,0,1536,1647699421344,1024,2,48000,-16,experiment,prototype4.png,0,even,Win32,371,128201,125187,371,371,524806,526323,519803,129721,519803,371,,,,,,visual_patterns,0,0,0,yes,1366
undefined,undefined,undefined,undefined,white,no,Mozilla,Netscape,"5.0 (Windows NT 10.0; Win64; x64) AppleWebKit/537.36 (KHTML, like Gecko) Chrome/99.0.4844.74 Safari/537.36",xpyriment,legacy,legacy,0,uniform,0,0,0,0,24,24,24,0,0,56,56,56,56,56,0,56,0,,,,,,0,,19-02-22,19-02-22,15:16:39,Sat Mar 19 2022 15:16:39 GMT+0100 (Central European Standard Time),The main experiment item,yes,0,0,C:/Users/rrics/Documents/!!ResearchBMECOGSCI/gnet,0,0,0,prototype3.png,no,mono,no,18,no,black,no,no,768,1208,3.5.6,legacy,xpyriment,osweb,1.3.13,0,left,space,left,,31268,15985,31268,,2,legacy,824,1536,24,864,24,0,0,1536,1647699421344,1024,2,48000,-16,experiment,p2sarrshacol1.png,0,even,Win32,371,128201,125187,371,371,531339,532840,526339,129721,526339,371,,,,,,visual_patterns,0,0,0,yes,1366
undefined,undefined,undefined,undefined,white,no,Mozilla,Netscape,"5.0 (Windows NT 10.0; Win64; x64) AppleWebKit/537.36 (KHTML, like Gecko) Chrome/99.0.4844.74 Safari/537.36",xpyriment,legacy,legacy,0,uniform,0,0,0,0,24,24,24,0,0,57,57,57,57,57,0,57,0,,,,,,0,,19-02-22,19-02-22,15:16:39,Sat Mar 19 2022 15:16:39 GMT+0100 (Central European Standard Time),The main experiment item,yes,0,0,C:/Users/rrics/Documents/!!ResearchBMECOGSCI/gnet,0,0,0,prototype3.png,no,mono,no,18,no,black,no,no,768,1208,3.5.6,legacy,xpyriment,osweb,1.3.13,0,left,space,left,,31268,15985,31268,,2,legacy,824,1536,24,864,24,0,0,1536,1647699421344,1024,2,48000,-16,experiment,prototype5.png,0,even,Win32,371,128201,125187,371,371,537856,539357,532854,129721,532854,371,,,,,,visual_patterns,0,0,0,yes,1366
undefined,undefined,undefined,undefined,white,no,Mozilla,Netscape,"5.0 (Windows NT 10.0; Win64; x64) AppleWebKit/537.36 (KHTML, like Gecko) Chrome/99.0.4844.74 Safari/537.36",xpyriment,legacy,legacy,0,uniform,0,0,0,0,24,24,24,0,0,58,58,58,58,58,0,58,0,,,,,,0,,19-02-22,19-02-22,15:16:39,Sat Mar 19 2022 15:16:39 GMT+0100 (Central European Standard Time),The main experiment item,yes,0,0,C:/Users/rrics/Documents/!!ResearchBMECOGSCI/gnet,0,0,0,prototype3.png,no,mono,no,18,no,black,no,no,768,1208,3.5.6,legacy,xpyriment,osweb,1.3.13,0,left,space,left,,31268,15985,31268,,2,legacy,824,1536,24,864,24,0,0,1536,1647699421344,1024,2,48000,-16,experiment,prototype2.png,0,even,Win32,371,128201,125187,371,371,544372,545874,539370,129721,539370,371,,,,,,visual_patterns,0,0,0,yes,1366
undefined,undefined,undefined,undefined,white,no,Mozilla,Netscape,"5.0 (Windows NT 10.0; Win64; x64) AppleWebKit/537.36 (KHTML, like Gecko) Chrome/99.0.4844.74 Safari/537.36",xpyriment,legacy,legacy,0,uniform,0,0,0,0,24,24,24,0,0,59,59,59,59,59,0,59,0,,,,,,0,,19-02-22,19-02-22,15:16:39,Sat Mar 19 2022 15:16:39 GMT+0100 (Central European Standard Time),The main experiment item,yes,0,0,C:/Users/rrics/Documents/!!ResearchBMECOGSCI/gnet,0,0,0,prototype3.png,no,mono,no,18,no,black,no,no,768,1208,3.5.6,legacy,xpyriment,osweb,1.3.13,0,left,space,left,,31268,15985,31268,,2,legacy,824,1536,24,864,24,0,0,1536,1647699421344,1024,2,48000,-16,experiment,prototype5.png,0,even,Win32,371,128201,125187,371,371,550888,552391,545887,129721,545887,371,,,,,,visual_patterns,0,0,0,yes,1366
undefined,undefined,undefined,undefined,white,no,Mozilla,Netscape,"5.0 (Windows NT 10.0; Win64; x64) AppleWebKit/537.36 (KHTML, like Gecko) Chrome/99.0.4844.74 Safari/537.36",xpyriment,legacy,legacy,0,uniform,0,0,0,0,24,24,24,0,0,60,60,60,60,60,0,60,0,,,,,,0,,19-02-22,19-02-22,15:16:39,Sat Mar 19 2022 15:16:39 GMT+0100 (Central European Standard Time),The main experiment item,yes,0,0,C:/Users/rrics/Documents/!!ResearchBMECOGSCI/gnet,0,0,0,prototype3.png,no,mono,no,18,no,black,no,no,768,1208,3.5.6,legacy,xpyriment,osweb,1.3.13,0,left,space,left,,31268,15985,31268,,2,legacy,824,1536,24,864,24,0,0,1536,1647699421344,1024,2,48000,-16,experiment,p1sarrshacol2.png,0,even,Win32,371,128201,125187,371,371,557407,558908,552407,129721,552407,371,,,,,,visual_patterns,0,0,0,yes,1366
undefined,undefined,undefined,undefined,white,no,Mozilla,Netscape,"5.0 (Windows NT 10.0; Win64; x64) AppleWebKit/537.36 (KHTML, like Gecko) Chrome/99.0.4844.74 Safari/537.36",xpyriment,legacy,legacy,0,uniform,0,0,0,0,24,24,24,0,0,61,61,61,61,61,0,61,0,,,,,,0,,19-02-22,19-02-22,15:16:39,Sat Mar 19 2022 15:16:39 GMT+0100 (Central European Standard Time),The main experiment item,yes,0,0,C:/Users/rrics/Documents/!!ResearchBMECOGSCI/gnet,0,0,0,prototype3.png,no,mono,no,18,no,black,no,no,768,1208,3.5.6,legacy,xpyriment,osweb,1.3.13,0,left,space,left,,31268,15985,31268,,2,legacy,824,1536,24,864,24,0,0,1536,1647699421344,1024,2,48000,-16,experiment,p2sarrcol1.png,0,even,Win32,371,128201,125187,371,371,563925,565442,558926,129721,558926,371,,,,,,visual_patterns,0,0,0,yes,1366
undefined,undefined,undefined,undefined,white,no,Mozilla,Netscape,"5.0 (Windows NT 10.0; Win64; x64) AppleWebKit/537.36 (KHTML, like Gecko) Chrome/99.0.4844.74 Safari/537.36",xpyriment,legacy,legacy,0,uniform,0,0,0,0,24,24,24,0,0,62,62,62,62,62,0,62,0,,,,,,0,,19-02-22,19-02-22,15:16:39,Sat Mar 19 2022 15:16:39 GMT+0100 (Central European Standard Time),The main experiment item,yes,0,0,C:/Users/rrics/Documents/!!ResearchBMECOGSCI/gnet,0,0,0,prototype3.png,no,mono,no,18,no,black,no,no,768,1208,3.5.6,legacy,xpyriment,osweb,1.3.13,0,left,space,left,,31268,15985,31268,,2,legacy,824,1536,24,864,24,0,0,1536,1647699421344,1024,2,48000,-16,experiment,p5sarr2.png,0,even,Win32,371,128201,125187,371,371,570456,571959,565460,129721,565459,371,,,,,,visual_patterns,0,0,0,yes,1366
undefined,undefined,undefined,undefined,white,no,Mozilla,Netscape,"5.0 (Windows NT 10.0; Win64; x64) AppleWebKit/537.36 (KHTML, like Gecko) Chrome/99.0.4844.74 Safari/537.36",xpyriment,legacy,legacy,0,uniform,0,0,0,0,24,24,24,0,0,63,63,63,63,63,0,63,0,,,,,,0,,19-02-22,19-02-22,15:16:39,Sat Mar 19 2022 15:16:39 GMT+0100 (Central European Standard Time),The main experiment item,yes,0,0,C:/Users/rrics/Documents/!!ResearchBMECOGSCI/gnet,0,0,0,prototype3.png,no,mono,no,18,no,black,no,no,768,1208,3.5.6,legacy,xpyriment,osweb,1.3.13,0,left,space,left,,31268,15985,31268,,2,legacy,824,1536,24,864,24,0,0,1536,1647699421344,1024,2,48000,-16,experiment,p10sarr2.png,0,even,Win32,371,128201,125187,371,371,576969,578476,571970,129721,571970,371,,,,,,visual_patterns,0,0,0,yes,1366
undefined,undefined,undefined,undefined,white,no,Mozilla,Netscape,"5.0 (Windows NT 10.0; Win64; x64) AppleWebKit/537.36 (KHTML, like Gecko) Chrome/99.0.4844.74 Safari/537.36",xpyriment,legacy,legacy,0,uniform,0,0,0,0,24,24,24,0,0,64,64,64,64,64,0,64,0,,,,,,0,,19-02-22,19-02-22,15:16:39,Sat Mar 19 2022 15:16:39 GMT+0100 (Central European Standard Time),The main experiment item,yes,0,0,C:/Users/rrics/Documents/!!ResearchBMECOGSCI/gnet,0,0,0,prototype3.png,no,mono,no,18,no,black,no,no,768,1208,3.5.6,legacy,xpyriment,osweb,1.3.13,0,left,space,left,,31268,15985,31268,,2,legacy,824,1536,24,864,24,0,0,1536,1647699421344,1024,2,48000,-16,experiment,prototype1.png,0,even,Win32,371,128201,125187,371,371,583489,584993,578488,129721,578488,371,,,,,,visual_patterns,0,0,0,yes,1366
undefined,undefined,undefined,undefined,white,no,Mozilla,Netscape,"5.0 (Windows NT 10.0; Win64; x64) AppleWebKit/537.36 (KHTML, like Gecko) Chrome/99.0.4844.74 Safari/537.36",xpyriment,legacy,legacy,0,uniform,0,0,0,0,24,24,24,0,0,65,65,65,65,65,0,65,0,,,,,,0,,19-02-22,19-02-22,15:16:39,Sat Mar 19 2022 15:16:39 GMT+0100 (Central European Standard Time),The main experiment item,yes,0,0,C:/Users/rrics/Documents/!!ResearchBMECOGSCI/gnet,0,0,0,prototype3.png,no,mono,no,18,no,black,no,no,768,1208,3.5.6,legacy,xpyriment,osweb,1.3.13,0,left,space,left,,31268,15985,31268,,2,legacy,824,1536,24,864,24,0,0,1536,1647699421344,1024,2,48000,-16,experiment,prototype4.png,0,even,Win32,371,128201,125187,371,371,590010,591527,585010,129721,585009,371,,,,,,visual_patterns,0,0,0,yes,1366
undefined,undefined,undefined,undefined,white,no,Mozilla,Netscape,"5.0 (Windows NT 10.0; Win64; x64) AppleWebKit/537.36 (KHTML, like Gecko) Chrome/99.0.4844.74 Safari/537.36",xpyriment,legacy,legacy,0,uniform,0,0,0,0,24,24,24,0,0,66,66,66,66,66,0,66,0,,,,,,0,,19-02-22,19-02-22,15:16:39,Sat Mar 19 2022 15:16:39 GMT+0100 (Central European Standard Time),The main experiment item,yes,0,0,C:/Users/rrics/Documents/!!ResearchBMECOGSCI/gnet,0,0,0,prototype3.png,no,mono,no,18,no,black,no,no,768,1208,3.5.6,legacy,xpyriment,osweb,1.3.13,0,left,space,left,,31268,15985,31268,,2,legacy,824,1536,24,864,24,0,0,1536,1647699421344,1024,2,48000,-16,experiment,p2sarrshacol2.png,0,even,Win32,371,128201,125187,371,371,596539,598044,591543,129721,591543,371,,,,,,visual_patterns,0,0,0,yes,1366
undefined,undefined,undefined,undefined,white,no,Mozilla,Netscape,"5.0 (Windows NT 10.0; Win64; x64) AppleWebKit/537.36 (KHTML, like Gecko) Chrome/99.0.4844.74 Safari/537.36",xpyriment,legacy,legacy,0,uniform,0,0,0,0,24,24,24,0,0,67,67,67,67,67,0,67,0,,,,,,0,,19-02-22,19-02-22,15:16:39,Sat Mar 19 2022 15:16:39 GMT+0100 (Central European Standard Time),The main experiment item,yes,0,0,C:/Users/rrics/Documents/!!ResearchBMECOGSCI/gnet,0,0,0,prototype3.png,no,mono,no,18,no,black,no,no,768,1208,3.5.6,legacy,xpyriment,osweb,1.3.13,0,left,space,left,,31268,15985,31268,,2,legacy,824,1536,24,864,24,0,0,1536,1647699421344,1024,2,48000,-16,experiment,p1sarr2.png,0,even,Win32,371,128201,125187,371,371,603058,604561,598059,129721,598059,371,,,,,,visual_patterns,0,0,0,yes,1366
undefined,undefined,undefined,undefined,white,no,Mozilla,Netscape,"5.0 (Windows NT 10.0; Win64; x64) AppleWebKit/537.36 (KHTML, like Gecko) Chrome/99.0.4844.74 Safari/537.36",xpyriment,legacy,legacy,0,uniform,0,0,0,0,24,24,24,0,0,68,68,68,68,68,0,68,0,,,,,,0,,19-02-22,19-02-22,15:16:39,Sat Mar 19 2022 15:16:39 GMT+0100 (Central European Standard Time),The main experiment item,yes,0,0,C:/Users/rrics/Documents/!!ResearchBMECOGSCI/gnet,0,0,0,prototype3.png,no,mono,no,18,no,black,no,no,768,1208,3.5.6,legacy,xpyriment,osweb,1.3.13,0,left,space,left,,31268,15985,31268,,2,legacy,824,1536,24,864,24,0,0,1536,1647699421344,1024,2,48000,-16,experiment,p6sarr2.png,0,even,Win32,371,128201,125187,371,371,609570,611078,604571,129721,604571,371,,,,,,visual_patterns,0,0,0,yes,1366
undefined,undefined,undefined,undefined,white,no,Mozilla,Netscape,"5.0 (Windows NT 10.0; Win64; x64) AppleWebKit/537.36 (KHTML, like Gecko) Chrome/99.0.4844.74 Safari/537.36",xpyriment,legacy,legacy,0,uniform,0,0,0,0,24,24,24,0,0,69,69,69,69,69,0,69,0,,,,,,0,,19-02-22,19-02-22,15:16:39,Sat Mar 19 2022 15:16:39 GMT+0100 (Central European Standard Time),The main experiment item,yes,0,0,C:/Users/rrics/Documents/!!ResearchBMECOGSCI/gnet,0,0,0,prototype3.png,no,mono,no,18,no,black,no,no,768,1208,3.5.6,legacy,xpyriment,osweb,1.3.13,0,left,space,left,,31268,15985,31268,,2,legacy,824,1536,24,864,24,0,0,1536,1647699421344,1024,2,48000,-16,experiment,prototype2.png,0,even,Win32,371,128201,125187,371,371,616091,617595,611091,129721,611091,371,,,,,,visual_patterns,0,0,0,yes,1366
undefined,undefined,undefined,undefined,white,no,Mozilla,Netscape,"5.0 (Windows NT 10.0; Win64; x64) AppleWebKit/537.36 (KHTML, like Gecko) Chrome/99.0.4844.74 Safari/537.36",xpyriment,legacy,legacy,0,uniform,0,0,0,0,24,24,24,0,0,70,70,70,70,70,0,70,0,,,,,,0,,19-02-22,19-02-22,15:16:39,Sat Mar 19 2022 15:16:39 GMT+0100 (Central European Standard Time),The main experiment item,yes,0,0,C:/Users/rrics/Documents/!!ResearchBMECOGSCI/gnet,0,0,0,prototype3.png,no,mono,no,18,no,black,no,no,768,1208,3.5.6,legacy,xpyriment,osweb,1.3.13,0,left,space,left,,31268,15985,31268,,2,legacy,824,1536,24,864,24,0,0,1536,1647699421344,1024,2,48000,-16,experiment,p1sarrshacol1.png,0,even,Win32,371,128201,125187,371,371,622608,624112,617612,129721,617612,371,,,,,,visual_patterns,0,0,0,yes,1366
undefined,undefined,undefined,undefined,white,no,Mozilla,Netscape,"5.0 (Windows NT 10.0; Win64; x64) AppleWebKit/537.36 (KHTML, like Gecko) Chrome/99.0.4844.74 Safari/537.36",xpyriment,legacy,legacy,0,uniform,0,0,0,0,24,24,24,0,0,71,71,71,71,71,0,71,0,,,,,,0,,19-02-22,19-02-22,15:16:39,Sat Mar 19 2022 15:16:39 GMT+0100 (Central European Standard Time),The main experiment item,yes,0,0,C:/Users/rrics/Documents/!!ResearchBMECOGSCI/gnet,0,0,0,prototype3.png,no,mono,no,18,no,black,no,no,768,1208,3.5.6,legacy,xpyriment,osweb,1.3.13,0,left,space,left,,31268,15985,31268,,2,legacy,824,1536,24,864,24,0,0,1536,1647699421344,1024,2,48000,-16,experiment,prototype1.png,0,even,Win32,371,128201,125187,371,371,629128,630629,624124,129721,624124,371,,,,,,visual_patterns,0,0,0,yes,1366
undefined,undefined,undefined,undefined,white,no,Mozilla,Netscape,"5.0 (Windows NT 10.0; Win64; x64) AppleWebKit/537.36 (KHTML, like Gecko) Chrome/99.0.4844.74 Safari/537.36",xpyriment,legacy,legacy,0,uniform,0,0,0,0,24,24,24,0,0,72,72,72,72,72,0,72,0,,,,,,0,,19-02-22,19-02-22,15:16:39,Sat Mar 19 2022 15:16:39 GMT+0100 (Central European Standard Time),The main experiment item,yes,0,0,C:/Users/rrics/Documents/!!ResearchBMECOGSCI/gnet,0,0,0,prototype3.png,no,mono,no,18,no,black,no,no,768,1208,3.5.6,legacy,xpyriment,osweb,1.3.13,0,left,space,left,,31268,15985,31268,,2,legacy,824,1536,24,864,24,0,0,1536,1647699421344,1024,2,48000,-16,experiment,prototype5.png,0,even,Win32,371,128201,125187,371,371,635643,637146,630643,129721,630643,371,,,,,,visual_patterns,0,0,0,yes,1366
undefined,undefined,undefined,undefined,white,no,Mozilla,Netscape,"5.0 (Windows NT 10.0; Win64; x64) AppleWebKit/537.36 (KHTML, like Gecko) Chrome/99.0.4844.74 Safari/537.36",xpyriment,legacy,legacy,0,uniform,0,0,0,0,24,24,24,0,0,73,73,73,73,73,0,73,0,,,,,,0,,19-02-22,19-02-22,15:16:39,Sat Mar 19 2022 15:16:39 GMT+0100 (Central European Standard Time),The main experiment item,yes,0,0,C:/Users/rrics/Documents/!!ResearchBMECOGSCI/gnet,0,0,0,prototype3.png,no,mono,no,18,no,black,no,no,768,1208,3.5.6,legacy,xpyriment,osweb,1.3.13,0,left,space,left,,31268,15985,31268,,2,legacy,824,1536,24,864,24,0,0,1536,1647699421344,1024,2,48000,-16,experiment,prototype3.png,0,even,Win32,371,128201,125187,371,371,642159,643663,637159,129721,637159,371,,,,,,visual_patterns,0,0,0,yes,1366
undefined,undefined,undefined,undefined,white,no,Mozilla,Netscape,"5.0 (Windows NT 10.0; Win64; x64) AppleWebKit/537.36 (KHTML, like Gecko) Chrome/99.0.4844.74 Safari/537.36",xpyriment,legacy,legacy,0,uniform,0,0,0,0,24,24,24,0,0,74,74,74,74,74,0,74,0,,,,,,0,,19-02-22,19-02-22,15:16:39,Sat Mar 19 2022 15:16:39 GMT+0100 (Central European Standard Time),The main experiment item,yes,0,0,C:/Users/rrics/Documents/!!ResearchBMECOGSCI/gnet,0,0,0,prototype3.png,no,mono,no,18,no,black,no,no,768,1208,3.5.6,legacy,xpyriment,osweb,1.3.13,0,left,space,left,,31268,15985,31268,,2,legacy,824,1536,24,864,24,0,0,1536,1647699421344,1024,2,48000,-16,experiment,prototype2.png,0,even,Win32,371,128201,125187,371,371,648676,650180,643675,129721,643675,371,,,,,,visual_patterns,0,0,0,yes,1366
undefined,undefined,undefined,undefined,white,no,Mozilla,Netscape,"5.0 (Windows NT 10.0; Win64; x64) AppleWebKit/537.36 (KHTML, like Gecko) Chrome/99.0.4844.74 Safari/537.36",xpyriment,legacy,legacy,0,uniform,0,0,0,0,24,24,24,0,0,74,74,74,74,74,0,74,0,0,0,0,0,0,0,0,19-02-22,19-02-22,15:16:39,Sat Mar 19 2022 15:16:39 GMT+0100 (Central European Standard Time),The main experiment item,yes,0,0,C:/Users/rrics/Documents/!!ResearchBMECOGSCI/gnet,0,0,0,prototype3.png,no,mono,no,18,no,black,no,no,768,1208,3.5.6,legacy,xpyriment,osweb,1.3.13,0,down,space,left,down,44125,15985,31268,44125,2,legacy,824,1536,24,864,24,0,0,1536,1647699421344,1024,2,48000,-16,experiment,p5sarrsha3.png,0,even,Win32,371,128201,125187,371,371,648676,650180,643675,129721,643675,371,697359,698866,694365,650186,694365,visual_patterns,0,0,0,yes,1366
undefined,undefined,undefined,undefined,white,no,Mozilla,Netscape,"5.0 (Windows NT 10.0; Win64; x64) AppleWebKit/537.36 (KHTML, like Gecko) Chrome/99.0.4844.74 Safari/537.36",xpyriment,legacy,legacy,0,uniform,0,0,0,0,24,24,24,0,0,74,74,74,74,74,0,74,0,1,1,1,1,1,0,1,19-02-22,19-02-22,15:16:39,Sat Mar 19 2022 15:16:39 GMT+0100 (Central European Standard Time),The main experiment item,yes,0,0,C:/Users/rrics/Documents/!!ResearchBMECOGSCI/gnet,0,0,0,prototype3.png,no,mono,no,18,no,black,no,no,768,1208,3.5.6,legacy,xpyriment,osweb,1.3.13,0,down,space,left,down,44125,15985,31268,44125,2,legacy,824,1536,24,864,24,0,0,1536,1647699421344,1024,2,48000,-16,experiment,p2sarrshacol1.png,0,even,Win32,371,128201,125187,371,371,648676,650180,643675,129721,643675,371,701887,703400,698886,650186,698886,visual_patterns,0,0,0,yes,1366
undefined,undefined,undefined,undefined,white,no,Mozilla,Netscape,"5.0 (Windows NT 10.0; Win64; x64) AppleWebKit/537.36 (KHTML, like Gecko) Chrome/99.0.4844.74 Safari/537.36",xpyriment,legacy,legacy,0,uniform,0,0,0,0,24,24,24,0,0,74,74,74,74,74,0,74,0,2,2,2,2,2,0,2,19-02-22,19-02-22,15:16:39,Sat Mar 19 2022 15:16:39 GMT+0100 (Central European Standard Time),The main experiment item,yes,0,0,C:/Users/rrics/Documents/!!ResearchBMECOGSCI/gnet,0,0,0,prototype3.png,no,mono,no,18,no,black,no,no,768,1208,3.5.6,legacy,xpyriment,osweb,1.3.13,0,down,space,left,down,44125,15985,31268,44125,2,legacy,824,1536,24,864,24,0,0,1536,1647699421344,1024,2,48000,-16,experiment,p4sarr4.png,0,even,Win32,371,128201,125187,371,371,648676,650180,643675,129721,643675,371,706420,707933,703420,650186,703420,visual_patterns,0,0,0,yes,1366
undefined,undefined,undefined,undefined,white,no,Mozilla,Netscape,"5.0 (Windows NT 10.0; Win64; x64) AppleWebKit/537.36 (KHTML, like Gecko) Chrome/99.0.4844.74 Safari/537.36",xpyriment,legacy,legacy,0,uniform,0,0,0,0,24,24,24,0,0,74,74,74,74,74,0,74,0,3,3,3,3,3,0,3,19-02-22,19-02-22,15:16:39,Sat Mar 19 2022 15:16:39 GMT+0100 (Central European Standard Time),The main experiment item,yes,0,0,C:/Users/rrics/Documents/!!ResearchBMECOGSCI/gnet,0,0,0,prototype3.png,no,mono,no,18,no,black,no,no,768,1208,3.5.6,legacy,xpyriment,osweb,1.3.13,0,down,space,left,down,44125,15985,31268,44125,2,legacy,824,1536,24,864,24,0,0,1536,1647699421344,1024,2,48000,-16,experiment,p5sarrsha2.png,0,even,Win32,371,128201,125187,371,371,648676,650180,643675,129721,643675,371,710948,712450,707949,650186,707949,visual_patterns,0,0,0,yes,1366
undefined,undefined,undefined,undefined,white,no,Mozilla,Netscape,"5.0 (Windows NT 10.0; Win64; x64) AppleWebKit/537.36 (KHTML, like Gecko) Chrome/99.0.4844.74 Safari/537.36",xpyriment,legacy,legacy,0,uniform,0,0,0,0,24,24,24,0,0,74,74,74,74,74,0,74,0,4,4,4,4,4,0,4,19-02-22,19-02-22,15:16:39,Sat Mar 19 2022 15:16:39 GMT+0100 (Central European Standard Time),The main experiment item,yes,0,0,C:/Users/rrics/Documents/!!ResearchBMECOGSCI/gnet,0,0,0,prototype3.png,no,mono,no,18,no,black,no,no,768,1208,3.5.6,legacy,xpyriment,osweb,1.3.13,0,down,space,left,down,44125,15985,31268,44125,2,legacy,824,1536,24,864,24,0,0,1536,1647699421344,1024,2,48000,-16,experiment,p7sarr2.png,0,even,Win32,371,128201,125187,371,371,648676,650180,643675,129721,643675,371,715468,716984,712465,650186,712465,visual_patterns,0,0,0,yes,1366
undefined,undefined,undefined,undefined,white,no,Mozilla,Netscape,"5.0 (Windows NT 10.0; Win64; x64) AppleWebKit/537.36 (KHTML, like Gecko) Chrome/99.0.4844.74 Safari/537.36",xpyriment,legacy,legacy,0,uniform,0,0,0,0,24,24,24,0,0,74,74,74,74,74,0,74,0,5,5,5,5,5,0,5,19-02-22,19-02-22,15:16:39,Sat Mar 19 2022 15:16:39 GMT+0100 (Central European Standard Time),The main experiment item,yes,0,0,C:/Users/rrics/Documents/!!ResearchBMECOGSCI/gnet,0,0,0,prototype3.png,no,mono,no,18,no,black,no,no,768,1208,3.5.6,legacy,xpyriment,osweb,1.3.13,0,down,space,left,down,44125,15985,31268,44125,2,legacy,824,1536,24,864,24,0,0,1536,1647699421344,1024,2,48000,-16,experiment,p1sarrsha4.png,0,even,Win32,371,128201,125187,371,371,648676,650180,643675,129721,643675,371,720003,721518,717003,650186,717003,visual_patterns,0,0,0,yes,1366
undefined,undefined,undefined,undefined,white,no,Mozilla,Netscape,"5.0 (Windows NT 10.0; Win64; x64) AppleWebKit/537.36 (KHTML, like Gecko) Chrome/99.0.4844.74 Safari/537.36",xpyriment,legacy,legacy,0,uniform,0,0,0,0,24,24,24,0,0,74,74,74,74,74,0,74,0,6,6,6,6,6,0,6,19-02-22,19-02-22,15:16:39,Sat Mar 19 2022 15:16:39 GMT+0100 (Central European Standard Time),The main experiment item,yes,0,0,C:/Users/rrics/Documents/!!ResearchBMECOGSCI/gnet,0,0,0,prototype3.png,no,mono,no,18,no,black,no,no,768,1208,3.5.6,legacy,xpyriment,osweb,1.3.13,0,down,space,left,down,44125,15985,31268,44125,2,legacy,824,1536,24,864,24,0,0,1536,1647699421344,1024,2,48000,-16,experiment,p3sarrcol2.png,0,even,Win32,371,128201,125187,371,371,648676,650180,643675,129721,643675,371,724533,726034,721534,650186,721534,visual_patterns,0,0,0,yes,1366
undefined,undefined,undefined,undefined,white,no,Mozilla,Netscape,"5.0 (Windows NT 10.0; Win64; x64) AppleWebKit/537.36 (KHTML, like Gecko) Chrome/99.0.4844.74 Safari/537.36",xpyriment,legacy,legacy,0,uniform,0,0,0,0,24,24,24,0,0,74,74,74,74,74,0,74,0,7,7,7,7,7,0,7,19-02-22,19-02-22,15:16:39,Sat Mar 19 2022 15:16:39 GMT+0100 (Central European Standard Time),The main experiment item,yes,0,0,C:/Users/rrics/Documents/!!ResearchBMECOGSCI/gnet,0,0,0,prototype3.png,no,mono,no,18,no,black,no,no,768,1208,3.5.6,legacy,xpyriment,osweb,1.3.13,0,down,space,left,down,44125,15985,31268,44125,2,legacy,824,1536,24,864,24,0,0,1536,1647699421344,1024,2,48000,-16,experiment,p3sarrcol3.png,0,even,Win32,371,128201,125187,371,371,648676,650180,643675,129721,643675,371,729052,730568,726053,650186,726053,visual_patterns,0,0,0,yes,1366
undefined,undefined,undefined,undefined,white,no,Mozilla,Netscape,"5.0 (Windows NT 10.0; Win64; x64) AppleWebKit/537.36 (KHTML, like Gecko) Chrome/99.0.4844.74 Safari/537.36",xpyriment,legacy,legacy,0,uniform,0,0,0,0,24,24,24,0,0,74,74,74,74,74,0,74,0,8,8,8,8,8,0,8,19-02-22,19-02-22,15:16:39,Sat Mar 19 2022 15:16:39 GMT+0100 (Central European Standard Time),The main experiment item,yes,0,0,C:/Users/rrics/Documents/!!ResearchBMECOGSCI/gnet,0,0,0,prototype3.png,no,mono,no,18,no,black,no,no,768,1208,3.5.6,legacy,xpyriment,osweb,1.3.13,0,down,space,left,down,44125,15985,31268,44125,2,legacy,824,1536,24,864,24,0,0,1536,1647699421344,1024,2,48000,-16,experiment,p1sarrsha1.png,0,even,Win32,371,128201,125187,371,371,648676,650180,643675,129721,643675,371,733585,735102,730585,650186,730585,visual_patterns,0,0,0,yes,1366
undefined,undefined,undefined,undefined,white,no,Mozilla,Netscape,"5.0 (Windows NT 10.0; Win64; x64) AppleWebKit/537.36 (KHTML, like Gecko) Chrome/99.0.4844.74 Safari/537.36",xpyriment,legacy,legacy,0,uniform,0,0,0,0,24,24,24,0,0,74,74,74,74,74,0,74,0,9,9,9,9,9,0,9,19-02-22,19-02-22,15:16:39,Sat Mar 19 2022 15:16:39 GMT+0100 (Central European Standard Time),The main experiment item,yes,0,0,C:/Users/rrics/Documents/!!ResearchBMECOGSCI/gnet,0,0,0,prototype3.png,no,mono,no,18,no,black,no,no,768,1208,3.5.6,legacy,xpyriment,osweb,1.3.13,0,down,space,left,down,44125,15985,31268,44125,2,legacy,824,1536,24,864,24,0,0,1536,1647699421344,1024,2,48000,-16,experiment,p4sarr1.png,0,even,Win32,371,128201,125187,371,371,648676,650180,643675,129721,643675,371,738121,739635,735122,650186,735122,visual_patterns,0,0,0,yes,1366
undefined,undefined,undefined,undefined,white,no,Mozilla,Netscape,"5.0 (Windows NT 10.0; Win64; x64) AppleWebKit/537.36 (KHTML, like Gecko) Chrome/99.0.4844.74 Safari/537.36",xpyriment,legacy,legacy,0,uniform,0,0,0,0,24,24,24,0,0,74,74,74,74,74,0,74,0,10,10,10,10,10,0,10,19-02-22,19-02-22,15:16:39,Sat Mar 19 2022 15:16:39 GMT+0100 (Central European Standard Time),The main experiment item,yes,0,0,C:/Users/rrics/Documents/!!ResearchBMECOGSCI/gnet,0,0,0,prototype3.png,no,mono,no,18,no,black,no,no,768,1208,3.5.6,legacy,xpyriment,osweb,1.3.13,0,down,space,left,down,44125,15985,31268,44125,2,legacy,824,1536,24,864,24,0,0,1536,1647699421344,1024,2,48000,-16,experiment,p9sarr2.png,0,even,Win32,371,128201,125187,371,371,648676,650180,643675,129721,643675,371,742654,744169,739652,650186,739652,visual_patterns,0,0,0,yes,1366
undefined,undefined,undefined,undefined,white,no,Mozilla,Netscape,"5.0 (Windows NT 10.0; Win64; x64) AppleWebKit/537.36 (KHTML, like Gecko) Chrome/99.0.4844.74 Safari/537.36",xpyriment,legacy,legacy,0,uniform,0,0,0,0,24,24,24,0,0,74,74,74,74,74,0,74,0,11,11,11,11,11,0,11,19-02-22,19-02-22,15:16:39,Sat Mar 19 2022 15:16:39 GMT+0100 (Central European Standard Time),The main experiment item,yes,0,0,C:/Users/rrics/Documents/!!ResearchBMECOGSCI/gnet,0,0,0,prototype3.png,no,mono,no,18,no,black,no,no,768,1208,3.5.6,legacy,xpyriment,osweb,1.3.13,0,down,space,left,down,44125,15985,31268,44125,2,legacy,824,1536,24,864,24,0,0,1536,1647699421344,1024,2,48000,-16,experiment,p1sarr2.png,0,even,Win32,371,128201,125187,371,371,648676,650180,643675,129721,643675,371,747187,748702,744189,650186,744189,visual_patterns,0,0,0,yes,1366
undefined,undefined,undefined,undefined,white,no,Mozilla,Netscape,"5.0 (Windows NT 10.0; Win64; x64) AppleWebKit/537.36 (KHTML, like Gecko) Chrome/99.0.4844.74 Safari/537.36",xpyriment,legacy,legacy,0,uniform,0,0,0,0,24,24,24,0,0,74,74,74,74,74,0,74,0,12,12,12,12,12,0,12,19-02-22,19-02-22,15:16:39,Sat Mar 19 2022 15:16:39 GMT+0100 (Central European Standard Time),The main experiment item,yes,0,0,C:/Users/rrics/Documents/!!ResearchBMECOGSCI/gnet,0,0,0,prototype3.png,no,mono,no,18,no,black,no,no,768,1208,3.5.6,legacy,xpyriment,osweb,1.3.13,0,down,space,left,down,44125,15985,31268,44125,2,legacy,824,1536,24,864,24,0,0,1536,1647699421344,1024,2,48000,-16,experiment,p3sarrcol4.png,0,even,Win32,371,128201,125187,371,371,648676,650180,643675,129721,643675,371,751718,753219,748722,650186,748722,visual_patterns,0,0,0,yes,1366
undefined,undefined,undefined,undefined,white,no,Mozilla,Netscape,"5.0 (Windows NT 10.0; Win64; x64) AppleWebKit/537.36 (KHTML, like Gecko) Chrome/99.0.4844.74 Safari/537.36",xpyriment,legacy,legacy,0,uniform,0,0,0,0,24,24,24,0,0,74,74,74,74,74,0,74,0,13,13,13,13,13,0,13,19-02-22,19-02-22,15:16:39,Sat Mar 19 2022 15:16:39 GMT+0100 (Central European Standard Time),The main experiment item,yes,0,0,C:/Users/rrics/Documents/!!ResearchBMECOGSCI/gnet,0,0,0,prototype3.png,no,mono,no,18,no,black,no,no,768,1208,3.5.6,legacy,xpyriment,osweb,1.3.13,0,down,space,left,down,44125,15985,31268,44125,2,legacy,824,1536,24,864,24,0,0,1536,1647699421344,1024,2,48000,-16,experiment,p2sarrshacol2.png,0,even,Win32,371,128201,125187,371,371,648676,650180,643675,129721,643675,371,756238,757753,753236,650186,753236,visual_patterns,0,0,0,yes,1366
undefined,undefined,undefined,undefined,white,no,Mozilla,Netscape,"5.0 (Windows NT 10.0; Win64; x64) AppleWebKit/537.36 (KHTML, like Gecko) Chrome/99.0.4844.74 Safari/537.36",xpyriment,legacy,legacy,0,uniform,0,0,0,0,24,24,24,0,0,74,74,74,74,74,0,74,0,14,14,14,14,14,0,14,19-02-22,19-02-22,15:16:39,Sat Mar 19 2022 15:16:39 GMT+0100 (Central European Standard Time),The main experiment item,yes,0,0,C:/Users/rrics/Documents/!!ResearchBMECOGSCI/gnet,0,0,0,prototype3.png,no,mono,no,18,no,black,no,no,768,1208,3.5.6,legacy,xpyriment,osweb,1.3.13,0,down,space,left,down,44125,15985,31268,44125,2,legacy,824,1536,24,864,24,0,0,1536,1647699421344,1024,2,48000,-16,experiment,p6sarr1.png,0,even,Win32,371,128201,125187,371,371,648676,650180,643675,129721,643675,371,760770,762287,757770,650186,757770,visual_patterns,0,0,0,yes,1366
undefined,undefined,undefined,undefined,white,no,Mozilla,Netscape,"5.0 (Windows NT 10.0; Win64; x64) AppleWebKit/537.36 (KHTML, like Gecko) Chrome/99.0.4844.74 Safari/537.36",xpyriment,legacy,legacy,0,uniform,0,0,0,0,24,24,24,0,0,74,74,74,74,74,0,74,0,15,15,15,15,15,0,15,19-02-22,19-02-22,15:16:39,Sat Mar 19 2022 15:16:39 GMT+0100 (Central European Standard Time),The main experiment item,yes,0,0,C:/Users/rrics/Documents/!!ResearchBMECOGSCI/gnet,0,0,0,prototype3.png,no,mono,no,18,no,black,no,no,768,1208,3.5.6,legacy,xpyriment,osweb,1.3.13,0,down,space,left,down,44125,15985,31268,44125,2,legacy,824,1536,24,864,24,0,0,1536,1647699421344,1024,2,48000,-16,experiment,p4sarrshacol3.png,0,even,Win32,371,128201,125187,371,371,648676,650180,643675,129721,643675,371,765308,766820,762309,650186,762309,visual_patterns,0,0,0,yes,1366
undefined,undefined,undefined,undefined,white,no,Mozilla,Netscape,"5.0 (Windows NT 10.0; Win64; x64) AppleWebKit/537.36 (KHTML, like Gecko) Chrome/99.0.4844.74 Safari/537.36",xpyriment,legacy,legacy,0,uniform,0,0,0,0,24,24,24,0,0,74,74,74,74,74,0,74,0,16,16,16,16,16,0,16,19-02-22,19-02-22,15:16:39,Sat Mar 19 2022 15:16:39 GMT+0100 (Central European Standard Time),The main experiment item,yes,0,0,C:/Users/rrics/Documents/!!ResearchBMECOGSCI/gnet,0,0,0,prototype3.png,no,mono,no,18,no,black,no,no,768,1208,3.5.6,legacy,xpyriment,osweb,1.3.13,0,down,space,left,down,44125,15985,31268,44125,2,legacy,824,1536,24,864,24,0,0,1536,1647699421344,1024,2,48000,-16,experiment,p4sarrshacol4.png,0,even,Win32,371,128201,125187,371,371,648676,650180,643675,129721,643675,371,769836,771337,766840,650186,766840,visual_patterns,0,0,0,yes,1366
undefined,undefined,undefined,undefined,white,no,Mozilla,Netscape,"5.0 (Windows NT 10.0; Win64; x64) AppleWebKit/537.36 (KHTML, like Gecko) Chrome/99.0.4844.74 Safari/537.36",xpyriment,legacy,legacy,0,uniform,0,0,0,0,24,24,24,0,0,74,74,74,74,74,0,74,0,17,17,17,17,17,0,17,19-02-22,19-02-22,15:16:39,Sat Mar 19 2022 15:16:39 GMT+0100 (Central European Standard Time),The main experiment item,yes,0,0,C:/Users/rrics/Documents/!!ResearchBMECOGSCI/gnet,0,0,0,prototype3.png,no,mono,no,18,no,black,no,no,768,1208,3.5.6,legacy,xpyriment,osweb,1.3.13,0,down,space,left,down,44125,15985,31268,44125,2,legacy,824,1536,24,864,24,0,0,1536,1647699421344,1024,2,48000,-16,experiment,p2sarrcol1.png,0,even,Win32,371,128201,125187,371,371,648676,650180,643675,129721,643675,371,774356,775871,771354,650186,771354,visual_patterns,0,0,0,yes,1366
undefined,undefined,undefined,undefined,white,no,Mozilla,Netscape,"5.0 (Windows NT 10.0; Win64; x64) AppleWebKit/537.36 (KHTML, like Gecko) Chrome/99.0.4844.74 Safari/537.36",xpyriment,legacy,legacy,0,uniform,0,0,0,0,24,24,24,0,0,74,74,74,74,74,0,74,0,18,18,18,18,18,0,18,19-02-22,19-02-22,15:16:39,Sat Mar 19 2022 15:16:39 GMT+0100 (Central European Standard Time),The main experiment item,yes,0,0,C:/Users/rrics/Documents/!!ResearchBMECOGSCI/gnet,0,0,0,prototype3.png,no,mono,no,18,no,black,no,no,768,1208,3.5.6,legacy,xpyriment,osweb,1.3.13,0,down,space,left,down,44125,15985,31268,44125,2,legacy,824,1536,24,864,24,0,0,1536,1647699421344,1024,2,48000,-16,experiment,p1sarr4.png,0,even,Win32,371,128201,125187,371,371,648676,650180,643675,129721,643675,371,778892,780404,775892,650186,775892,visual_patterns,0,0,0,yes,1366
undefined,undefined,undefined,undefined,white,no,Mozilla,Netscape,"5.0 (Windows NT 10.0; Win64; x64) AppleWebKit/537.36 (KHTML, like Gecko) Chrome/99.0.4844.74 Safari/537.36",xpyriment,legacy,legacy,0,uniform,0,0,0,0,24,24,24,0,0,74,74,74,74,74,0,74,0,19,19,19,19,19,0,19,19-02-22,19-02-22,15:16:39,Sat Mar 19 2022 15:16:39 GMT+0100 (Central European Standard Time),The main experiment item,yes,0,0,C:/Users/rrics/Documents/!!ResearchBMECOGSCI/gnet,0,0,0,prototype3.png,no,mono,no,18,no,black,no,no,768,1208,3.5.6,legacy,xpyriment,osweb,1.3.13,0,down,space,left,down,44125,15985,31268,44125,2,legacy,824,1536,24,864,24,0,0,1536,1647699421344,1024,2,48000,-16,experiment,p10sarr1.png,0,even,Win32,371,128201,125187,371,371,648676,650180,643675,129721,643675,371,783423,784938,780420,650186,780420,visual_patterns,0,0,0,yes,1366
undefined,undefined,undefined,undefined,white,no,Mozilla,Netscape,"5.0 (Windows NT 10.0; Win64; x64) AppleWebKit/537.36 (KHTML, like Gecko) Chrome/99.0.4844.74 Safari/537.36",xpyriment,legacy,legacy,0,uniform,0,0,0,0,24,24,24,0,0,74,74,74,74,74,0,74,0,20,20,20,20,20,0,20,19-02-22,19-02-22,15:16:39,Sat Mar 19 2022 15:16:39 GMT+0100 (Central European Standard Time),The main experiment item,yes,0,0,C:/Users/rrics/Documents/!!ResearchBMECOGSCI/gnet,0,0,0,prototype3.png,no,mono,no,18,no,black,no,no,768,1208,3.5.6,legacy,xpyriment,osweb,1.3.13,0,down,space,left,down,44125,15985,31268,44125,2,legacy,824,1536,24,864,24,0,0,1536,1647699421344,1024,2,48000,-16,experiment,p8sarr3.png,0,even,Win32,371,128201,125187,371,371,648676,650180,643675,129721,643675,371,787962,789471,784967,650186,784967,visual_patterns,0,0,0,yes,1366
undefined,undefined,undefined,undefined,white,no,Mozilla,Netscape,"5.0 (Windows NT 10.0; Win64; x64) AppleWebKit/537.36 (KHTML, like Gecko) Chrome/99.0.4844.74 Safari/537.36",xpyriment,legacy,legacy,0,uniform,0,0,0,0,24,24,24,0,0,74,74,74,74,74,0,74,0,21,21,21,21,21,0,21,19-02-22,19-02-22,15:16:39,Sat Mar 19 2022 15:16:39 GMT+0100 (Central European Standard Time),The main experiment item,yes,0,0,C:/Users/rrics/Documents/!!ResearchBMECOGSCI/gnet,0,0,0,prototype3.png,no,mono,no,18,no,black,no,no,768,1208,3.5.6,legacy,xpyriment,osweb,1.3.13,0,down,space,left,down,44125,15985,31268,44125,2,legacy,824,1536,24,864,24,0,0,1536,1647699421344,1024,2,48000,-16,experiment,p9sarr4.png,0,even,Win32,371,128201,125187,371,371,648676,650180,643675,129721,643675,371,792491,794005,789491,650186,789491,visual_patterns,0,0,0,yes,1366
undefined,undefined,undefined,undefined,white,no,Mozilla,Netscape,"5.0 (Windows NT 10.0; Win64; x64) AppleWebKit/537.36 (KHTML, like Gecko) Chrome/99.0.4844.74 Safari/537.36",xpyriment,legacy,legacy,0,uniform,0,0,0,0,24,24,24,0,0,74,74,74,74,74,0,74,0,22,22,22,22,22,0,22,19-02-22,19-02-22,15:16:39,Sat Mar 19 2022 15:16:39 GMT+0100 (Central European Standard Time),The main experiment item,yes,0,0,C:/Users/rrics/Documents/!!ResearchBMECOGSCI/gnet,0,0,0,prototype3.png,no,mono,no,18,no,black,no,no,768,1208,3.5.6,legacy,xpyriment,osweb,1.3.13,0,down,space,left,down,44125,15985,31268,44125,2,legacy,824,1536,24,864,24,0,0,1536,1647699421344,1024,2,48000,-16,experiment,p5sarrcol2.png,0,even,Win32,371,128201,125187,371,371,648676,650180,643675,129721,643675,371,797022,798538,794023,650186,794023,visual_patterns,0,0,0,yes,1366
undefined,undefined,undefined,undefined,white,no,Mozilla,Netscape,"5.0 (Windows NT 10.0; Win64; x64) AppleWebKit/537.36 (KHTML, like Gecko) Chrome/99.0.4844.74 Safari/537.36",xpyriment,legacy,legacy,0,uniform,0,0,0,0,24,24,24,0,0,74,74,74,74,74,0,74,0,23,23,23,23,23,0,23,19-02-22,19-02-22,15:16:39,Sat Mar 19 2022 15:16:39 GMT+0100 (Central European Standard Time),The main experiment item,yes,0,0,C:/Users/rrics/Documents/!!ResearchBMECOGSCI/gnet,0,0,0,prototype3.png,no,mono,no,18,no,black,no,no,768,1208,3.5.6,legacy,xpyriment,osweb,1.3.13,0,down,space,left,down,44125,15985,31268,44125,2,legacy,824,1536,24,864,24,0,0,1536,1647699421344,1024,2,48000,-16,experiment,p7sarr4.png,0,even,Win32,371,128201,125187,371,371,648676,650180,643675,129721,643675,371,801544,803056,798544,650186,798544,visual_patterns,0,0,0,yes,1366
undefined,undefined,undefined,undefined,white,no,Mozilla,Netscape,"5.0 (Windows NT 10.0; Win64; x64) AppleWebKit/537.36 (KHTML, like Gecko) Chrome/99.0.4844.74 Safari/537.36",xpyriment,legacy,legacy,0,uniform,0,0,0,0,24,24,24,0,0,74,74,74,74,74,0,74,0,24,24,24,24,24,0,24,19-02-22,19-02-22,15:16:39,Sat Mar 19 2022 15:16:39 GMT+0100 (Central European Standard Time),The main experiment item,yes,0,0,C:/Users/rrics/Documents/!!ResearchBMECOGSCI/gnet,0,0,0,prototype3.png,no,mono,no,18,no,black,no,no,768,1208,3.5.6,legacy,xpyriment,osweb,1.3.13,0,down,space,left,down,44125,15985,31268,44125,2,legacy,824,1536,24,864,24,0,0,1536,1647699421344,1024,2,48000,-16,experiment,p3sarrsha3.png,0,even,Win32,371,128201,125187,371,371,648676,650180,643675,129721,643675,371,806071,807572,803076,650186,803076,visual_patterns,0,0,0,yes,1366
undefined,undefined,undefined,undefined,white,no,Mozilla,Netscape,"5.0 (Windows NT 10.0; Win64; x64) AppleWebKit/537.36 (KHTML, like Gecko) Chrome/99.0.4844.74 Safari/537.36",xpyriment,legacy,legacy,0,uniform,0,0,0,0,24,24,24,0,0,74,74,74,74,74,0,74,0,25,25,25,25,25,0,25,19-02-22,19-02-22,15:16:39,Sat Mar 19 2022 15:16:39 GMT+0100 (Central European Standard Time),The main experiment item,yes,0,0,C:/Users/rrics/Documents/!!ResearchBMECOGSCI/gnet,0,0,0,prototype3.png,no,mono,no,18,no,black,no,no,768,1208,3.5.6,legacy,xpyriment,osweb,1.3.13,0,down,space,left,down,44125,15985,31268,44125,2,legacy,824,1536,24,864,24,0,0,1536,1647699421344,1024,2,48000,-16,experiment,p8sarr4.png,0,even,Win32,371,128201,125187,371,371,648676,650180,643675,129721,643675,371,810588,812089,807593,650186,807593,visual_patterns,0,0,0,yes,1366
undefined,undefined,undefined,undefined,white,no,Mozilla,Netscape,"5.0 (Windows NT 10.0; Win64; x64) AppleWebKit/537.36 (KHTML, like Gecko) Chrome/99.0.4844.74 Safari/537.36",xpyriment,legacy,legacy,0,uniform,0,0,0,0,24,24,24,0,0,74,74,74,74,74,0,74,0,26,26,26,26,26,0,26,19-02-22,19-02-22,15:16:39,Sat Mar 19 2022 15:16:39 GMT+0100 (Central European Standard Time),The main experiment item,yes,0,0,C:/Users/rrics/Documents/!!ResearchBMECOGSCI/gnet,0,0,0,prototype3.png,no,mono,no,18,no,black,no,no,768,1208,3.5.6,legacy,xpyriment,osweb,1.3.13,0,down,space,left,down,44125,15985,31268,44125,2,legacy,824,1536,24,864,24,0,0,1536,1647699421344,1024,2,48000,-16,experiment,p2sarrshacol4.png,0,even,Win32,371,128201,125187,371,371,648676,650180,643675,129721,643675,371,815108,816623,812110,650186,812110,visual_patterns,0,0,0,yes,1366
undefined,undefined,undefined,undefined,white,no,Mozilla,Netscape,"5.0 (Windows NT 10.0; Win64; x64) AppleWebKit/537.36 (KHTML, like Gecko) Chrome/99.0.4844.74 Safari/537.36",xpyriment,legacy,legacy,0,uniform,0,0,0,0,24,24,24,0,0,74,74,74,74,74,0,74,0,27,27,27,27,27,0,27,19-02-22,19-02-22,15:16:39,Sat Mar 19 2022 15:16:39 GMT+0100 (Central European Standard Time),The main experiment item,yes,0,0,C:/Users/rrics/Documents/!!ResearchBMECOGSCI/gnet,0,0,0,prototype3.png,no,mono,no,18,no,black,no,no,768,1208,3.5.6,legacy,xpyriment,osweb,1.3.13,0,down,space,left,down,44125,15985,31268,44125,2,legacy,824,1536,24,864,24,0,0,1536,1647699421344,1024,2,48000,-16,experiment,p4sarrshacol1.png,0,even,Win32,371,128201,125187,371,371,648676,650180,643675,129721,643675,371,819639,821140,816639,650186,816639,visual_patterns,0,0,0,yes,1366
undefined,undefined,undefined,undefined,white,no,Mozilla,Netscape,"5.0 (Windows NT 10.0; Win64; x64) AppleWebKit/537.36 (KHTML, like Gecko) Chrome/99.0.4844.74 Safari/537.36",xpyriment,legacy,legacy,0,uniform,0,0,0,0,24,24,24,0,0,74,74,74,74,74,0,74,0,28,28,28,28,28,0,28,19-02-22,19-02-22,15:16:39,Sat Mar 19 2022 15:16:39 GMT+0100 (Central European Standard Time),The main experiment item,yes,0,0,C:/Users/rrics/Documents/!!ResearchBMECOGSCI/gnet,0,0,0,prototype3.png,no,mono,no,18,no,black,no,no,768,1208,3.5.6,legacy,xpyriment,osweb,1.3.13,0,down,space,left,down,44125,15985,31268,44125,2,legacy,824,1536,24,864,24,0,0,1536,1647699421344,1024,2,48000,-16,experiment,p1sarrshacol3.png,0,even,Win32,371,128201,125187,371,371,648676,650180,643675,129721,643675,371,824159,825673,821159,650186,821159,visual_patterns,0,0,0,yes,1366
undefined,undefined,undefined,undefined,white,no,Mozilla,Netscape,"5.0 (Windows NT 10.0; Win64; x64) AppleWebKit/537.36 (KHTML, like Gecko) Chrome/99.0.4844.74 Safari/537.36",xpyriment,legacy,legacy,0,uniform,0,0,0,0,24,24,24,0,0,74,74,74,74,74,0,74,0,29,29,29,29,29,0,29,19-02-22,19-02-22,15:16:39,Sat Mar 19 2022 15:16:39 GMT+0100 (Central European Standard Time),The main experiment item,yes,0,0,C:/Users/rrics/Documents/!!ResearchBMECOGSCI/gnet,0,0,0,prototype3.png,no,mono,no,18,no,black,no,no,768,1208,3.5.6,legacy,xpyriment,osweb,1.3.13,0,down,space,left,down,44125,15985,31268,44125,2,legacy,824,1536,24,864,24,0,0,1536,1647699421344,1024,2,48000,-16,experiment,p2sarrsha1.png,0,even,Win32,371,128201,125187,371,371,648676,650180,643675,129721,643675,371,828690,830207,825690,650186,825689,visual_patterns,0,0,0,yes,1366
undefined,undefined,undefined,undefined,white,no,Mozilla,Netscape,"5.0 (Windows NT 10.0; Win64; x64) AppleWebKit/537.36 (KHTML, like Gecko) Chrome/99.0.4844.74 Safari/537.36",xpyriment,legacy,legacy,0,uniform,0,0,0,0,24,24,24,0,0,74,74,74,74,74,0,74,0,30,30,30,30,30,0,30,19-02-22,19-02-22,15:16:39,Sat Mar 19 2022 15:16:39 GMT+0100 (Central European Standard Time),The main experiment item,yes,0,0,C:/Users/rrics/Documents/!!ResearchBMECOGSCI/gnet,0,0,0,prototype3.png,no,mono,no,18,no,black,no,no,768,1208,3.5.6,legacy,xpyriment,osweb,1.3.13,0,down,space,left,down,44125,15985,31268,44125,2,legacy,824,1536,24,864,24,0,0,1536,1647699421344,1024,2,48000,-16,experiment,p3sarr2.png,0,even,Win32,371,128201,125187,371,371,648676,650180,643675,129721,643675,371,833224,834741,830223,650186,830223,visual_patterns,0,0,0,yes,1366
undefined,undefined,undefined,undefined,white,no,Mozilla,Netscape,"5.0 (Windows NT 10.0; Win64; x64) AppleWebKit/537.36 (KHTML, like Gecko) Chrome/99.0.4844.74 Safari/537.36",xpyriment,legacy,legacy,0,uniform,0,0,0,0,24,24,24,0,0,74,74,74,74,74,0,74,0,31,31,31,31,31,0,31,19-02-22,19-02-22,15:16:39,Sat Mar 19 2022 15:16:39 GMT+0100 (Central European Standard Time),The main experiment item,yes,0,0,C:/Users/rrics/Documents/!!ResearchBMECOGSCI/gnet,0,0,0,prototype3.png,no,mono,no,18,no,black,no,no,768,1208,3.5.6,legacy,xpyriment,osweb,1.3.13,0,down,space,left,down,44125,15985,31268,44125,2,legacy,824,1536,24,864,24,0,0,1536,1647699421344,1024,2,48000,-16,experiment,p3sarrshacol3.png,0,even,Win32,371,128201,125187,371,371,648676,650180,643675,129721,643675,371,837761,839274,834763,650186,834763,visual_patterns,0,0,0,yes,1366
undefined,undefined,undefined,undefined,white,no,Mozilla,Netscape,"5.0 (Windows NT 10.0; Win64; x64) AppleWebKit/537.36 (KHTML, like Gecko) Chrome/99.0.4844.74 Safari/537.36",xpyriment,legacy,legacy,0,uniform,0,0,0,0,24,24,24,0,0,74,74,74,74,74,0,74,0,32,32,32,32,32,0,32,19-02-22,19-02-22,15:16:39,Sat Mar 19 2022 15:16:39 GMT+0100 (Central European Standard Time),The main experiment item,yes,0,0,C:/Users/rrics/Documents/!!ResearchBMECOGSCI/gnet,0,0,0,prototype3.png,no,mono,no,18,no,black,no,no,768,1208,3.5.6,legacy,xpyriment,osweb,1.3.13,0,down,space,left,down,44125,15985,31268,44125,2,legacy,824,1536,24,864,24,0,0,1536,1647699421344,1024,2,48000,-16,experiment,p2sarrcol4.png,0,even,Win32,371,128201,125187,371,371,648676,650180,643675,129721,643675,371,842292,843808,839296,650186,839296,visual_patterns,0,0,0,yes,1366
undefined,undefined,undefined,undefined,white,no,Mozilla,Netscape,"5.0 (Windows NT 10.0; Win64; x64) AppleWebKit/537.36 (KHTML, like Gecko) Chrome/99.0.4844.74 Safari/537.36",xpyriment,legacy,legacy,0,uniform,0,0,0,0,24,24,24,0,0,74,74,74,74,74,0,74,0,33,33,33,33,33,0,33,19-02-22,19-02-22,15:16:39,Sat Mar 19 2022 15:16:39 GMT+0100 (Central European Standard Time),The main experiment item,yes,0,0,C:/Users/rrics/Documents/!!ResearchBMECOGSCI/gnet,0,0,0,prototype3.png,no,mono,no,18,no,black,no,no,768,1208,3.5.6,legacy,xpyriment,osweb,1.3.13,0,down,space,left,down,44125,15985,31268,44125,2,legacy,824,1536,24,864,24,0,0,1536,1647699421344,1024,2,48000,-16,experiment,p5sarrcol1.png,0,even,Win32,371,128201,125187,371,371,648676,650180,643675,129721,643675,371,846828,848341,843829,650186,843829,visual_patterns,0,0,0,yes,1366
undefined,undefined,undefined,undefined,white,no,Mozilla,Netscape,"5.0 (Windows NT 10.0; Win64; x64) AppleWebKit/537.36 (KHTML, like Gecko) Chrome/99.0.4844.74 Safari/537.36",xpyriment,legacy,legacy,0,uniform,0,0,0,0,24,24,24,0,0,74,74,74,74,74,0,74,0,34,34,34,34,34,0,34,19-02-22,19-02-22,15:16:39,Sat Mar 19 2022 15:16:39 GMT+0100 (Central European Standard Time),The main experiment item,yes,0,0,C:/Users/rrics/Documents/!!ResearchBMECOGSCI/gnet,0,0,0,prototype3.png,no,mono,no,18,no,black,no,no,768,1208,3.5.6,legacy,xpyriment,osweb,1.3.13,0,down,space,left,down,44125,15985,31268,44125,2,legacy,824,1536,24,864,24,0,0,1536,1647699421344,1024,2,48000,-16,experiment,p8sarr2.png,0,even,Win32,371,128201,125187,371,371,648676,650180,643675,129721,643675,371,851359,852875,848357,650186,848357,visual_patterns,0,0,0,yes,1366
undefined,undefined,undefined,undefined,white,no,Mozilla,Netscape,"5.0 (Windows NT 10.0; Win64; x64) AppleWebKit/537.36 (KHTML, like Gecko) Chrome/99.0.4844.74 Safari/537.36",xpyriment,legacy,legacy,0,uniform,0,0,0,0,24,24,24,0,0,74,74,74,74,74,0,74,0,35,35,35,35,35,0,35,19-02-22,19-02-22,15:16:39,Sat Mar 19 2022 15:16:39 GMT+0100 (Central European Standard Time),The main experiment item,yes,0,0,C:/Users/rrics/Documents/!!ResearchBMECOGSCI/gnet,0,0,0,prototype3.png,no,mono,no,18,no,black,no,no,768,1208,3.5.6,legacy,xpyriment,osweb,1.3.13,0,down,space,left,down,44125,15985,31268,44125,2,legacy,824,1536,24,864,24,0,0,1536,1647699421344,1024,2,48000,-16,experiment,p5sarr3.png,0,even,Win32,371,128201,125187,371,371,648676,650180,643675,129721,643675,371,855895,857409,852895,650186,852895,visual_patterns,0,0,0,yes,1366
undefined,undefined,undefined,undefined,white,no,Mozilla,Netscape,"5.0 (Windows NT 10.0; Win64; x64) AppleWebKit/537.36 (KHTML, like Gecko) Chrome/99.0.4844.74 Safari/537.36",xpyriment,legacy,legacy,0,uniform,0,0,0,0,24,24,24,0,0,74,74,74,74,74,0,74,0,36,36,36,36,36,0,36,19-02-22,19-02-22,15:16:39,Sat Mar 19 2022 15:16:39 GMT+0100 (Central European Standard Time),The main experiment item,yes,0,0,C:/Users/rrics/Documents/!!ResearchBMECOGSCI/gnet,0,0,0,prototype3.png,no,mono,no,18,no,black,no,no,768,1208,3.5.6,legacy,xpyriment,osweb,1.3.13,0,down,space,left,down,44125,15985,31268,44125,2,legacy,824,1536,24,864,24,0,0,1536,1647699421344,1024,2,48000,-16,experiment,p7sarr1.png,0,even,Win32,371,128201,125187,371,371,648676,650180,643675,129721,643675,371,860424,861926,857426,650186,857426,visual_patterns,0,0,0,yes,1366
undefined,undefined,undefined,undefined,white,no,Mozilla,Netscape,"5.0 (Windows NT 10.0; Win64; x64) AppleWebKit/537.36 (KHTML, like Gecko) Chrome/99.0.4844.74 Safari/537.36",xpyriment,legacy,legacy,0,uniform,0,0,0,0,24,24,24,0,0,74,74,74,74,74,0,74,0,37,37,37,37,37,0,37,19-02-22,19-02-22,15:16:39,Sat Mar 19 2022 15:16:39 GMT+0100 (Central European Standard Time),The main experiment item,yes,0,0,C:/Users/rrics/Documents/!!ResearchBMECOGSCI/gnet,0,0,0,prototype3.png,no,mono,no,18,no,black,no,no,768,1208,3.5.6,legacy,xpyriment,osweb,1.3.13,0,down,space,left,down,44125,15985,31268,44125,2,legacy,824,1536,24,864,24,0,0,1536,1647699421344,1024,2,48000,-16,experiment,p1sarrcol4.png,0,even,Win32,371,128201,125187,371,371,648676,650180,643675,129721,643675,371,864944,866459,861945,650186,861945,visual_patterns,0,0,0,yes,1366
undefined,undefined,undefined,undefined,white,no,Mozilla,Netscape,"5.0 (Windows NT 10.0; Win64; x64) AppleWebKit/537.36 (KHTML, like Gecko) Chrome/99.0.4844.74 Safari/537.36",xpyriment,legacy,legacy,0,uniform,0,0,0,0,24,24,24,0,0,74,74,74,74,74,0,74,0,38,38,38,38,38,0,38,19-02-22,19-02-22,15:16:39,Sat Mar 19 2022 15:16:39 GMT+0100 (Central European Standard Time),The main experiment item,yes,0,0,C:/Users/rrics/Documents/!!ResearchBMECOGSCI/gnet,0,0,0,prototype3.png,no,mono,no,18,no,black,no,no,768,1208,3.5.6,legacy,xpyriment,osweb,1.3.13,0,down,space,left,down,44125,15985,31268,44125,2,legacy,824,1536,24,864,24,0,0,1536,1647699421344,1024,2,48000,-16,experiment,p3sarrsha4.png,0,even,Win32,371,128201,125187,371,371,648676,650180,643675,129721,643675,371,869476,870993,866480,650186,866480,visual_patterns,0,0,0,yes,1366
undefined,undefined,undefined,undefined,white,no,Mozilla,Netscape,"5.0 (Windows NT 10.0; Win64; x64) AppleWebKit/537.36 (KHTML, like Gecko) Chrome/99.0.4844.74 Safari/537.36",xpyriment,legacy,legacy,0,uniform,0,0,0,0,24,24,24,0,0,74,74,74,74,74,0,74,0,39,39,39,39,39,0,39,19-02-22,19-02-22,15:16:39,Sat Mar 19 2022 15:16:39 GMT+0100 (Central European Standard Time),The main experiment item,yes,0,0,C:/Users/rrics/Documents/!!ResearchBMECOGSCI/gnet,0,0,0,prototype3.png,no,mono,no,18,no,black,no,no,768,1208,3.5.6,legacy,xpyriment,osweb,1.3.13,0,down,space,left,down,44125,15985,31268,44125,2,legacy,824,1536,24,864,24,0,0,1536,1647699421344,1024,2,48000,-16,experiment,p3sarr1.png,0,even,Win32,371,128201,125187,371,371,648676,650180,643675,129721,643675,371,874008,875510,871009,650186,871008,visual_patterns,0,0,0,yes,1366
undefined,undefined,undefined,undefined,white,no,Mozilla,Netscape,"5.0 (Windows NT 10.0; Win64; x64) AppleWebKit/537.36 (KHTML, like Gecko) Chrome/99.0.4844.74 Safari/537.36",xpyriment,legacy,legacy,0,uniform,0,0,0,0,24,24,24,0,0,74,74,74,74,74,0,74,0,40,40,40,40,40,0,40,19-02-22,19-02-22,15:16:39,Sat Mar 19 2022 15:16:39 GMT+0100 (Central European Standard Time),The main experiment item,yes,0,0,C:/Users/rrics/Documents/!!ResearchBMECOGSCI/gnet,0,0,0,prototype3.png,no,mono,no,18,no,black,no,no,768,1208,3.5.6,legacy,xpyriment,osweb,1.3.13,0,down,space,left,down,44125,15985,31268,44125,2,legacy,824,1536,24,864,24,0,0,1536,1647699421344,1024,2,48000,-16,experiment,p2sarrsha3.png,0,even,Win32,371,128201,125187,371,371,648676,650180,643675,129721,643675,371,878524,880027,875529,650186,875529,visual_patterns,0,0,0,yes,1366
undefined,undefined,undefined,undefined,white,no,Mozilla,Netscape,"5.0 (Windows NT 10.0; Win64; x64) AppleWebKit/537.36 (KHTML, like Gecko) Chrome/99.0.4844.74 Safari/537.36",xpyriment,legacy,legacy,0,uniform,0,0,0,0,24,24,24,0,0,74,74,74,74,74,0,74,0,41,41,41,41,41,0,41,19-02-22,19-02-22,15:16:39,Sat Mar 19 2022 15:16:39 GMT+0100 (Central European Standard Time),The main experiment item,yes,0,0,C:/Users/rrics/Documents/!!ResearchBMECOGSCI/gnet,0,0,0,prototype3.png,no,mono,no,18,no,black,no,no,768,1208,3.5.6,legacy,xpyriment,osweb,1.3.13,0,down,space,left,down,44125,15985,31268,44125,2,legacy,824,1536,24,864,24,0,0,1536,1647699421344,1024,2,48000,-16,experiment,p9sarr3.png,0,even,Win32,371,128201,125187,371,371,648676,650180,643675,129721,643675,371,883045,884560,880047,650186,880047,visual_patterns,0,0,0,yes,1366
undefined,undefined,undefined,undefined,white,no,Mozilla,Netscape,"5.0 (Windows NT 10.0; Win64; x64) AppleWebKit/537.36 (KHTML, like Gecko) Chrome/99.0.4844.74 Safari/537.36",xpyriment,legacy,legacy,0,uniform,0,0,0,0,24,24,24,0,0,74,74,74,74,74,0,74,0,42,42,42,42,42,0,42,19-02-22,19-02-22,15:16:39,Sat Mar 19 2022 15:16:39 GMT+0100 (Central European Standard Time),The main experiment item,yes,0,0,C:/Users/rrics/Documents/!!ResearchBMECOGSCI/gnet,0,0,0,prototype3.png,no,mono,no,18,no,black,no,no,768,1208,3.5.6,legacy,xpyriment,osweb,1.3.13,0,down,space,left,down,44125,15985,31268,44125,2,legacy,824,1536,24,864,24,0,0,1536,1647699421344,1024,2,48000,-16,experiment,p10sarr4.png,0,even,Win32,371,128201,125187,371,371,648676,650180,643675,129721,643675,371,887576,889077,884581,650186,884581,visual_patterns,0,0,0,yes,1366
undefined,undefined,undefined,undefined,white,no,Mozilla,Netscape,"5.0 (Windows NT 10.0; Win64; x64) AppleWebKit/537.36 (KHTML, like Gecko) Chrome/99.0.4844.74 Safari/537.36",xpyriment,legacy,legacy,0,uniform,0,0,0,0,24,24,24,0,0,74,74,74,74,74,0,74,0,43,43,43,43,43,0,43,19-02-22,19-02-22,15:16:39,Sat Mar 19 2022 15:16:39 GMT+0100 (Central European Standard Time),The main experiment item,yes,0,0,C:/Users/rrics/Documents/!!ResearchBMECOGSCI/gnet,0,0,0,prototype3.png,no,mono,no,18,no,black,no,no,768,1208,3.5.6,legacy,xpyriment,osweb,1.3.13,0,down,space,left,down,44125,15985,31268,44125,2,legacy,824,1536,24,864,24,0,0,1536,1647699421344,1024,2,48000,-16,experiment,p4sarrcol1.png,0,even,Win32,371,128201,125187,371,371,648676,650180,643675,129721,643675,371,892099,893611,889097,650186,889097,visual_patterns,0,0,0,yes,1366
undefined,undefined,undefined,undefined,white,no,Mozilla,Netscape,"5.0 (Windows NT 10.0; Win64; x64) AppleWebKit/537.36 (KHTML, like Gecko) Chrome/99.0.4844.74 Safari/537.36",xpyriment,legacy,legacy,0,uniform,0,0,0,0,24,24,24,0,0,74,74,74,74,74,0,74,0,44,44,44,44,44,0,44,19-02-22,19-02-22,15:16:39,Sat Mar 19 2022 15:16:39 GMT+0100 (Central European Standard Time),The main experiment item,yes,0,0,C:/Users/rrics/Documents/!!ResearchBMECOGSCI/gnet,0,0,0,prototype3.png,no,mono,no,18,no,black,no,no,768,1208,3.5.6,legacy,xpyriment,osweb,1.3.13,0,down,space,left,down,44125,15985,31268,44125,2,legacy,824,1536,24,864,24,0,0,1536,1647699421344,1024,2,48000,-16,experiment,p5sarrshacol4.png,0,even,Win32,371,128201,125187,371,371,648676,650180,643675,129721,643675,371,896628,898144,893632,650186,893632,visual_patterns,0,0,0,yes,1366
undefined,undefined,undefined,undefined,white,no,Mozilla,Netscape,"5.0 (Windows NT 10.0; Win64; x64) AppleWebKit/537.36 (KHTML, like Gecko) Chrome/99.0.4844.74 Safari/537.36",xpyriment,legacy,legacy,0,uniform,0,0,0,0,24,24,24,0,0,74,74,74,74,74,0,74,0,45,45,45,45,45,0,45,19-02-22,19-02-22,15:16:39,Sat Mar 19 2022 15:16:39 GMT+0100 (Central European Standard Time),The main experiment item,yes,0,0,C:/Users/rrics/Documents/!!ResearchBMECOGSCI/gnet,0,0,0,prototype3.png,no,mono,no,18,no,black,no,no,768,1208,3.5.6,legacy,xpyriment,osweb,1.3.13,0,down,space,left,down,44125,15985,31268,44125,2,legacy,824,1536,24,864,24,0,0,1536,1647699421344,1024,2,48000,-16,experiment,p3sarr3.png,0,even,Win32,371,128201,125187,371,371,648676,650180,643675,129721,643675,371,901159,902661,898166,650186,898166,visual_patterns,0,0,0,yes,1366
undefined,undefined,undefined,undefined,white,no,Mozilla,Netscape,"5.0 (Windows NT 10.0; Win64; x64) AppleWebKit/537.36 (KHTML, like Gecko) Chrome/99.0.4844.74 Safari/537.36",xpyriment,legacy,legacy,0,uniform,0,0,0,0,24,24,24,0,0,74,74,74,74,74,0,74,0,46,46,46,46,46,0,46,19-02-22,19-02-22,15:16:39,Sat Mar 19 2022 15:16:39 GMT+0100 (Central European Standard Time),The main experiment item,yes,0,0,C:/Users/rrics/Documents/!!ResearchBMECOGSCI/gnet,0,0,0,prototype3.png,no,mono,no,18,no,black,no,no,768,1208,3.5.6,legacy,xpyriment,osweb,1.3.13,0,down,space,left,down,44125,15985,31268,44125,2,legacy,824,1536,24,864,24,0,0,1536,1647699421344,1024,2,48000,-16,experiment,p2sarr3.png,0,even,Win32,371,128201,125187,371,371,648676,650180,643675,129721,643675,371,905678,907195,902682,650186,902681,visual_patterns,0,0,0,yes,1366
undefined,undefined,undefined,undefined,white,no,Mozilla,Netscape,"5.0 (Windows NT 10.0; Win64; x64) AppleWebKit/537.36 (KHTML, like Gecko) Chrome/99.0.4844.74 Safari/537.36",xpyriment,legacy,legacy,0,uniform,0,0,0,0,24,24,24,0,0,74,74,74,74,74,0,74,0,47,47,47,47,47,0,47,19-02-22,19-02-22,15:16:39,Sat Mar 19 2022 15:16:39 GMT+0100 (Central European Standard Time),The main experiment item,yes,0,0,C:/Users/rrics/Documents/!!ResearchBMECOGSCI/gnet,0,0,0,prototype3.png,no,mono,no,18,no,black,no,no,768,1208,3.5.6,legacy,xpyriment,osweb,1.3.13,0,down,space,left,down,44125,15985,31268,44125,2,legacy,824,1536,24,864,24,0,0,1536,1647699421344,1024,2,48000,-16,experiment,p4sarr2.png,0,even,Win32,371,128201,125187,371,371,648676,650180,643675,129721,643675,371,910214,911728,907213,650186,907213,visual_patterns,0,0,0,yes,1366
