acc,accuracy,average_response_time,avg_rt,background,bidi,browser_codename,browser_name,browser_version,canvas_backend,clock_backend,color_backend,compensation,coordinates,count_end,count_experiment,count_osweb,count_prestudy,count_prestudy_isi,count_prestudy_sequence,count_prestudy_stimpres,count_start,count_study,count_study_coroutines,count_study_isi,count_study_logger,count_study_response,count_study_sequence,count_study_start,count_study_stimpres,count_test,count_test_coroutines,count_test_isi,count_test_logger,count_test_response,count_test_sequence,count_test_start,count_test_stimpres,date_startdate,date_startdateUTC,date_starttime,datetime,description,disable_garbage_collection,experiment_debug,experiment_parameters,experiment_path,experiment_pilot,experiment_taskname,experiment_taskversion,fampict,font_bold,font_family,font_italic,font_size,font_underline,foreground,form_clicks,fullscreen,height,jatosStudyResultId,jatosVersion,keyboard_backend,mouse_backend,opensesame_codename,opensesame_version,repeat_cycle,response,response_start,response_study_start,response_test_start,response_time,response_time_start,response_time_study_start,response_time_test_start,round_decimals,sampler_backend,screen_availableHeight,screen_availableWidth,screen_colorDepth,screen_height,screen_pixelDepth,screen_screenX,screen_screenY,screen_width,sessionid,sound_buf_size,sound_channels,sound_freq,sound_sample_size,start,stim,subject_nr,subject_parity,system_os,time_prestudy,time_prestudy_isi,time_prestudy_stimpres,time_start,time_study,time_study_isi,time_study_logger,time_study_response,time_study_start,time_study_stimpres,time_test,time_test_isi,time_test_logger,time_test_response,time_test_start,time_test_stimpres,title,total_correct,total_response_time,total_responses,uniform_coordinates,width
undefined,undefined,undefined,undefined,white,no,Mozilla,Netscape,"5.0 (Windows NT 10.0; Win64; x64) AppleWebKit/537.36 (KHTML, like Gecko) Chrome/99.0.4844.82 Safari/537.36",xpyriment,legacy,legacy,0,uniform,0,0,0,0,24,24,24,0,0,0,0,0,0,0,0,0,0,,,,,,0,,26-02-22,26-02-22,14:03:18,Sat Mar 26 2022 14:03:18 GMT+0100 (közép-európai téli idő),The main experiment item,yes,0,0,C:/Users/rrics/Documents/!!ResearchBMECOGSCI/gnet,0,0,0,prototype2.png,no,mono,no,18,no,black,no,no,768,1209,3.5.6,legacy,xpyriment,osweb,1.3.13,0,space,space,space,,33034,4561,33034,,2,legacy,680,1280,24,720,24,0,0,1280,1648299841132,1024,2,48000,-16,experiment,p6sarr1.png,1,odd,Win32,184,116588,113582,184,184,156175,157683,151181,118116,151181,184,,,,,,visual_patterns,0,0,0,yes,1366
undefined,undefined,undefined,undefined,white,no,Mozilla,Netscape,"5.0 (Windows NT 10.0; Win64; x64) AppleWebKit/537.36 (KHTML, like Gecko) Chrome/99.0.4844.82 Safari/537.36",xpyriment,legacy,legacy,0,uniform,0,0,0,0,24,24,24,0,0,1,1,1,1,1,0,1,0,,,,,,0,,26-02-22,26-02-22,14:03:18,Sat Mar 26 2022 14:03:18 GMT+0100 (közép-európai téli idő),The main experiment item,yes,0,0,C:/Users/rrics/Documents/!!ResearchBMECOGSCI/gnet,0,0,0,prototype2.png,no,mono,no,18,no,black,no,no,768,1209,3.5.6,legacy,xpyriment,osweb,1.3.13,0,space,space,space,,33034,4561,33034,,2,legacy,680,1280,24,720,24,0,0,1280,1648299841132,1024,2,48000,-16,experiment,prototype3.png,1,odd,Win32,184,116588,113582,184,184,162717,164234,157724,118116,157724,184,,,,,,visual_patterns,0,0,0,yes,1366
undefined,undefined,undefined,undefined,white,no,Mozilla,Netscape,"5.0 (Windows NT 10.0; Win64; x64) AppleWebKit/537.36 (KHTML, like Gecko) Chrome/99.0.4844.82 Safari/537.36",xpyriment,legacy,legacy,0,uniform,0,0,0,0,24,24,24,0,0,2,2,2,2,2,0,2,0,,,,,,0,,26-02-22,26-02-22,14:03:18,Sat Mar 26 2022 14:03:18 GMT+0100 (közép-európai téli idő),The main experiment item,yes,0,0,C:/Users/rrics/Documents/!!ResearchBMECOGSCI/gnet,0,0,0,prototype2.png,no,mono,no,18,no,black,no,no,768,1209,3.5.6,legacy,xpyriment,osweb,1.3.13,0,space,space,space,,33034,4561,33034,,2,legacy,680,1280,24,720,24,0,0,1280,1648299841132,1024,2,48000,-16,experiment,p3sarr1.png,1,odd,Win32,184,116588,113582,184,184,169249,170752,164254,118116,164254,184,,,,,,visual_patterns,0,0,0,yes,1366
undefined,undefined,undefined,undefined,white,no,Mozilla,Netscape,"5.0 (Windows NT 10.0; Win64; x64) AppleWebKit/537.36 (KHTML, like Gecko) Chrome/99.0.4844.82 Safari/537.36",xpyriment,legacy,legacy,0,uniform,0,0,0,0,24,24,24,0,0,3,3,3,3,3,0,3,0,,,,,,0,,26-02-22,26-02-22,14:03:18,Sat Mar 26 2022 14:03:18 GMT+0100 (közép-európai téli idő),The main experiment item,yes,0,0,C:/Users/rrics/Documents/!!ResearchBMECOGSCI/gnet,0,0,0,prototype2.png,no,mono,no,18,no,black,no,no,768,1209,3.5.6,legacy,xpyriment,osweb,1.3.13,0,space,space,space,,33034,4561,33034,,2,legacy,680,1280,24,720,24,0,0,1280,1648299841132,1024,2,48000,-16,experiment,p9sarr2.png,1,odd,Win32,184,116588,113582,184,184,175770,177287,170774,118116,170773,184,,,,,,visual_patterns,0,0,0,yes,1366
undefined,undefined,undefined,undefined,white,no,Mozilla,Netscape,"5.0 (Windows NT 10.0; Win64; x64) AppleWebKit/537.36 (KHTML, like Gecko) Chrome/99.0.4844.82 Safari/537.36",xpyriment,legacy,legacy,0,uniform,0,0,0,0,24,24,24,0,0,4,4,4,4,4,0,4,0,,,,,,0,,26-02-22,26-02-22,14:03:18,Sat Mar 26 2022 14:03:18 GMT+0100 (közép-európai téli idő),The main experiment item,yes,0,0,C:/Users/rrics/Documents/!!ResearchBMECOGSCI/gnet,0,0,0,prototype2.png,no,mono,no,18,no,black,no,no,768,1209,3.5.6,legacy,xpyriment,osweb,1.3.13,0,space,space,space,,33034,4561,33034,,2,legacy,680,1280,24,720,24,0,0,1280,1648299841132,1024,2,48000,-16,experiment,p4sarr2.png,1,odd,Win32,184,116588,113582,184,184,182299,183806,177301,118116,177301,184,,,,,,visual_patterns,0,0,0,yes,1366
undefined,undefined,undefined,undefined,white,no,Mozilla,Netscape,"5.0 (Windows NT 10.0; Win64; x64) AppleWebKit/537.36 (KHTML, like Gecko) Chrome/99.0.4844.82 Safari/537.36",xpyriment,legacy,legacy,0,uniform,0,0,0,0,24,24,24,0,0,5,5,5,5,5,0,5,0,,,,,,0,,26-02-22,26-02-22,14:03:18,Sat Mar 26 2022 14:03:18 GMT+0100 (közép-európai téli idő),The main experiment item,yes,0,0,C:/Users/rrics/Documents/!!ResearchBMECOGSCI/gnet,0,0,0,prototype2.png,no,mono,no,18,no,black,no,no,768,1209,3.5.6,legacy,xpyriment,osweb,1.3.13,0,space,space,space,,33034,4561,33034,,2,legacy,680,1280,24,720,24,0,0,1280,1648299841132,1024,2,48000,-16,experiment,p4sarrshacol2.png,1,odd,Win32,184,116588,113582,184,184,188824,190340,183820,118116,183820,184,,,,,,visual_patterns,0,0,0,yes,1366
undefined,undefined,undefined,undefined,white,no,Mozilla,Netscape,"5.0 (Windows NT 10.0; Win64; x64) AppleWebKit/537.36 (KHTML, like Gecko) Chrome/99.0.4844.82 Safari/537.36",xpyriment,legacy,legacy,0,uniform,0,0,0,0,24,24,24,0,0,6,6,6,6,6,0,6,0,,,,,,0,,26-02-22,26-02-22,14:03:18,Sat Mar 26 2022 14:03:18 GMT+0100 (közép-európai téli idő),The main experiment item,yes,0,0,C:/Users/rrics/Documents/!!ResearchBMECOGSCI/gnet,0,0,0,prototype2.png,no,mono,no,18,no,black,no,no,768,1209,3.5.6,legacy,xpyriment,osweb,1.3.13,0,space,space,space,,33034,4561,33034,,2,legacy,680,1280,24,720,24,0,0,1280,1648299841132,1024,2,48000,-16,experiment,p5sarrsha2.png,1,odd,Win32,184,116588,113582,184,184,195353,196859,190351,118116,190351,184,,,,,,visual_patterns,0,0,0,yes,1366
undefined,undefined,undefined,undefined,white,no,Mozilla,Netscape,"5.0 (Windows NT 10.0; Win64; x64) AppleWebKit/537.36 (KHTML, like Gecko) Chrome/99.0.4844.82 Safari/537.36",xpyriment,legacy,legacy,0,uniform,0,0,0,0,24,24,24,0,0,7,7,7,7,7,0,7,0,,,,,,0,,26-02-22,26-02-22,14:03:18,Sat Mar 26 2022 14:03:18 GMT+0100 (közép-európai téli idő),The main experiment item,yes,0,0,C:/Users/rrics/Documents/!!ResearchBMECOGSCI/gnet,0,0,0,prototype2.png,no,mono,no,18,no,black,no,no,768,1209,3.5.6,legacy,xpyriment,osweb,1.3.13,0,space,space,space,,33034,4561,33034,,2,legacy,680,1280,24,720,24,0,0,1280,1648299841132,1024,2,48000,-16,experiment,p2sarr1.png,1,odd,Win32,184,116588,113582,184,184,201878,203395,196875,118116,196875,184,,,,,,visual_patterns,0,0,0,yes,1366
undefined,undefined,undefined,undefined,white,no,Mozilla,Netscape,"5.0 (Windows NT 10.0; Win64; x64) AppleWebKit/537.36 (KHTML, like Gecko) Chrome/99.0.4844.82 Safari/537.36",xpyriment,legacy,legacy,0,uniform,0,0,0,0,24,24,24,0,0,8,8,8,8,8,0,8,0,,,,,,0,,26-02-22,26-02-22,14:03:18,Sat Mar 26 2022 14:03:18 GMT+0100 (közép-európai téli idő),The main experiment item,yes,0,0,C:/Users/rrics/Documents/!!ResearchBMECOGSCI/gnet,0,0,0,prototype2.png,no,mono,no,18,no,black,no,no,768,1209,3.5.6,legacy,xpyriment,osweb,1.3.13,0,space,space,space,,33034,4561,33034,,2,legacy,680,1280,24,720,24,0,0,1280,1648299841132,1024,2,48000,-16,experiment,prototype4.png,1,odd,Win32,184,116588,113582,184,184,208408,209913,203411,118116,203411,184,,,,,,visual_patterns,0,0,0,yes,1366
undefined,undefined,undefined,undefined,white,no,Mozilla,Netscape,"5.0 (Windows NT 10.0; Win64; x64) AppleWebKit/537.36 (KHTML, like Gecko) Chrome/99.0.4844.82 Safari/537.36",xpyriment,legacy,legacy,0,uniform,0,0,0,0,24,24,24,0,0,9,9,9,9,9,0,9,0,,,,,,0,,26-02-22,26-02-22,14:03:18,Sat Mar 26 2022 14:03:18 GMT+0100 (közép-európai téli idő),The main experiment item,yes,0,0,C:/Users/rrics/Documents/!!ResearchBMECOGSCI/gnet,0,0,0,prototype2.png,no,mono,no,18,no,black,no,no,768,1209,3.5.6,legacy,xpyriment,osweb,1.3.13,0,space,space,space,,33034,4561,33034,,2,legacy,680,1280,24,720,24,0,0,1280,1648299841132,1024,2,48000,-16,experiment,p5sarrsha1.png,1,odd,Win32,184,116588,113582,184,184,214925,216431,209928,118116,209928,184,,,,,,visual_patterns,0,0,0,yes,1366
undefined,undefined,undefined,undefined,white,no,Mozilla,Netscape,"5.0 (Windows NT 10.0; Win64; x64) AppleWebKit/537.36 (KHTML, like Gecko) Chrome/99.0.4844.82 Safari/537.36",xpyriment,legacy,legacy,0,uniform,0,0,0,0,24,24,24,0,0,10,10,10,10,10,0,10,0,,,,,,0,,26-02-22,26-02-22,14:03:18,Sat Mar 26 2022 14:03:18 GMT+0100 (közép-európai téli idő),The main experiment item,yes,0,0,C:/Users/rrics/Documents/!!ResearchBMECOGSCI/gnet,0,0,0,prototype2.png,no,mono,no,18,no,black,no,no,768,1209,3.5.6,legacy,xpyriment,osweb,1.3.13,0,space,space,space,,33034,4561,33034,,2,legacy,680,1280,24,720,24,0,0,1280,1648299841132,1024,2,48000,-16,experiment,p5sarrcol1.png,1,odd,Win32,184,116588,113582,184,184,221441,222950,216445,118116,216444,184,,,,,,visual_patterns,0,0,0,yes,1366
undefined,undefined,undefined,undefined,white,no,Mozilla,Netscape,"5.0 (Windows NT 10.0; Win64; x64) AppleWebKit/537.36 (KHTML, like Gecko) Chrome/99.0.4844.82 Safari/537.36",xpyriment,legacy,legacy,0,uniform,0,0,0,0,24,24,24,0,0,11,11,11,11,11,0,11,0,,,,,,0,,26-02-22,26-02-22,14:03:18,Sat Mar 26 2022 14:03:18 GMT+0100 (közép-európai téli idő),The main experiment item,yes,0,0,C:/Users/rrics/Documents/!!ResearchBMECOGSCI/gnet,0,0,0,prototype2.png,no,mono,no,18,no,black,no,no,768,1209,3.5.6,legacy,xpyriment,osweb,1.3.13,0,space,space,space,,33034,4561,33034,,2,legacy,680,1280,24,720,24,0,0,1280,1648299841132,1024,2,48000,-16,experiment,p8sarr2.png,1,odd,Win32,184,116588,113582,184,184,227960,229468,222960,118116,222960,184,,,,,,visual_patterns,0,0,0,yes,1366
undefined,undefined,undefined,undefined,white,no,Mozilla,Netscape,"5.0 (Windows NT 10.0; Win64; x64) AppleWebKit/537.36 (KHTML, like Gecko) Chrome/99.0.4844.82 Safari/537.36",xpyriment,legacy,legacy,0,uniform,0,0,0,0,24,24,24,0,0,12,12,12,12,12,0,12,0,,,,,,0,,26-02-22,26-02-22,14:03:18,Sat Mar 26 2022 14:03:18 GMT+0100 (közép-európai téli idő),The main experiment item,yes,0,0,C:/Users/rrics/Documents/!!ResearchBMECOGSCI/gnet,0,0,0,prototype2.png,no,mono,no,18,no,black,no,no,768,1209,3.5.6,legacy,xpyriment,osweb,1.3.13,0,space,space,space,,33034,4561,33034,,2,legacy,680,1280,24,720,24,0,0,1280,1648299841132,1024,2,48000,-16,experiment,p5sarrshacol2.png,1,odd,Win32,184,116588,113582,184,184,234480,235987,229481,118116,229481,184,,,,,,visual_patterns,0,0,0,yes,1366
undefined,undefined,undefined,undefined,white,no,Mozilla,Netscape,"5.0 (Windows NT 10.0; Win64; x64) AppleWebKit/537.36 (KHTML, like Gecko) Chrome/99.0.4844.82 Safari/537.36",xpyriment,legacy,legacy,0,uniform,0,0,0,0,24,24,24,0,0,13,13,13,13,13,0,13,0,,,,,,0,,26-02-22,26-02-22,14:03:18,Sat Mar 26 2022 14:03:18 GMT+0100 (közép-európai téli idő),The main experiment item,yes,0,0,C:/Users/rrics/Documents/!!ResearchBMECOGSCI/gnet,0,0,0,prototype2.png,no,mono,no,18,no,black,no,no,768,1209,3.5.6,legacy,xpyriment,osweb,1.3.13,0,space,space,space,,33034,4561,33034,,2,legacy,680,1280,24,720,24,0,0,1280,1648299841132,1024,2,48000,-16,experiment,p8sarr1.png,1,odd,Win32,184,116588,113582,184,184,240997,242505,236000,118116,236000,184,,,,,,visual_patterns,0,0,0,yes,1366
undefined,undefined,undefined,undefined,white,no,Mozilla,Netscape,"5.0 (Windows NT 10.0; Win64; x64) AppleWebKit/537.36 (KHTML, like Gecko) Chrome/99.0.4844.82 Safari/537.36",xpyriment,legacy,legacy,0,uniform,0,0,0,0,24,24,24,0,0,14,14,14,14,14,0,14,0,,,,,,0,,26-02-22,26-02-22,14:03:18,Sat Mar 26 2022 14:03:18 GMT+0100 (közép-európai téli idő),The main experiment item,yes,0,0,C:/Users/rrics/Documents/!!ResearchBMECOGSCI/gnet,0,0,0,prototype2.png,no,mono,no,18,no,black,no,no,768,1209,3.5.6,legacy,xpyriment,osweb,1.3.13,0,space,space,space,,33034,4561,33034,,2,legacy,680,1280,24,720,24,0,0,1280,1648299841132,1024,2,48000,-16,experiment,p3sarrcol1.png,1,odd,Win32,184,116588,113582,184,184,247519,249023,242518,118116,242518,184,,,,,,visual_patterns,0,0,0,yes,1366
undefined,undefined,undefined,undefined,white,no,Mozilla,Netscape,"5.0 (Windows NT 10.0; Win64; x64) AppleWebKit/537.36 (KHTML, like Gecko) Chrome/99.0.4844.82 Safari/537.36",xpyriment,legacy,legacy,0,uniform,0,0,0,0,24,24,24,0,0,15,15,15,15,15,0,15,0,,,,,,0,,26-02-22,26-02-22,14:03:18,Sat Mar 26 2022 14:03:18 GMT+0100 (közép-európai téli idő),The main experiment item,yes,0,0,C:/Users/rrics/Documents/!!ResearchBMECOGSCI/gnet,0,0,0,prototype2.png,no,mono,no,18,no,black,no,no,768,1209,3.5.6,legacy,xpyriment,osweb,1.3.13,0,space,space,space,,33034,4561,33034,,2,legacy,680,1280,24,720,24,0,0,1280,1648299841132,1024,2,48000,-16,experiment,prototype1.png,1,odd,Win32,184,116588,113582,184,184,254036,255542,249035,118116,249035,184,,,,,,visual_patterns,0,0,0,yes,1366
undefined,undefined,undefined,undefined,white,no,Mozilla,Netscape,"5.0 (Windows NT 10.0; Win64; x64) AppleWebKit/537.36 (KHTML, like Gecko) Chrome/99.0.4844.82 Safari/537.36",xpyriment,legacy,legacy,0,uniform,0,0,0,0,24,24,24,0,0,16,16,16,16,16,0,16,0,,,,,,0,,26-02-22,26-02-22,14:03:18,Sat Mar 26 2022 14:03:18 GMT+0100 (közép-európai téli idő),The main experiment item,yes,0,0,C:/Users/rrics/Documents/!!ResearchBMECOGSCI/gnet,0,0,0,prototype2.png,no,mono,no,18,no,black,no,no,768,1209,3.5.6,legacy,xpyriment,osweb,1.3.13,0,space,space,space,,33034,4561,33034,,2,legacy,680,1280,24,720,24,0,0,1280,1648299841132,1024,2,48000,-16,experiment,p2sarr2.png,1,odd,Win32,184,116588,113582,184,184,260577,262105,255579,118116,255579,184,,,,,,visual_patterns,0,0,0,yes,1366
undefined,undefined,undefined,undefined,white,no,Mozilla,Netscape,"5.0 (Windows NT 10.0; Win64; x64) AppleWebKit/537.36 (KHTML, like Gecko) Chrome/99.0.4844.82 Safari/537.36",xpyriment,legacy,legacy,0,uniform,0,0,0,0,24,24,24,0,0,17,17,17,17,17,0,17,0,,,,,,0,,26-02-22,26-02-22,14:03:18,Sat Mar 26 2022 14:03:18 GMT+0100 (közép-európai téli idő),The main experiment item,yes,0,0,C:/Users/rrics/Documents/!!ResearchBMECOGSCI/gnet,0,0,0,prototype2.png,no,mono,no,18,no,black,no,no,768,1209,3.5.6,legacy,xpyriment,osweb,1.3.13,0,space,space,space,,33034,4561,33034,,2,legacy,680,1280,24,720,24,0,0,1280,1648299841132,1024,2,48000,-16,experiment,p3sarrsha2.png,1,odd,Win32,184,116588,113582,184,184,267122,268629,262116,118116,262116,184,,,,,,visual_patterns,0,0,0,yes,1366
undefined,undefined,undefined,undefined,white,no,Mozilla,Netscape,"5.0 (Windows NT 10.0; Win64; x64) AppleWebKit/537.36 (KHTML, like Gecko) Chrome/99.0.4844.82 Safari/537.36",xpyriment,legacy,legacy,0,uniform,0,0,0,0,24,24,24,0,0,18,18,18,18,18,0,18,0,,,,,,0,,26-02-22,26-02-22,14:03:18,Sat Mar 26 2022 14:03:18 GMT+0100 (közép-európai téli idő),The main experiment item,yes,0,0,C:/Users/rrics/Documents/!!ResearchBMECOGSCI/gnet,0,0,0,prototype2.png,no,mono,no,18,no,black,no,no,768,1209,3.5.6,legacy,xpyriment,osweb,1.3.13,0,space,space,space,,33034,4561,33034,,2,legacy,680,1280,24,720,24,0,0,1280,1648299841132,1024,2,48000,-16,experiment,prototype4.png,1,odd,Win32,184,116588,113582,184,184,273641,275147,268638,118116,268638,184,,,,,,visual_patterns,0,0,0,yes,1366
undefined,undefined,undefined,undefined,white,no,Mozilla,Netscape,"5.0 (Windows NT 10.0; Win64; x64) AppleWebKit/537.36 (KHTML, like Gecko) Chrome/99.0.4844.82 Safari/537.36",xpyriment,legacy,legacy,0,uniform,0,0,0,0,24,24,24,0,0,19,19,19,19,19,0,19,0,,,,,,0,,26-02-22,26-02-22,14:03:18,Sat Mar 26 2022 14:03:18 GMT+0100 (közép-európai téli idő),The main experiment item,yes,0,0,C:/Users/rrics/Documents/!!ResearchBMECOGSCI/gnet,0,0,0,prototype2.png,no,mono,no,18,no,black,no,no,768,1209,3.5.6,legacy,xpyriment,osweb,1.3.13,0,space,space,space,,33034,4561,33034,,2,legacy,680,1280,24,720,24,0,0,1280,1648299841132,1024,2,48000,-16,experiment,p3sarrsha1.png,1,odd,Win32,184,116588,113582,184,184,280159,281666,275157,118116,275157,184,,,,,,visual_patterns,0,0,0,yes,1366
undefined,undefined,undefined,undefined,white,no,Mozilla,Netscape,"5.0 (Windows NT 10.0; Win64; x64) AppleWebKit/537.36 (KHTML, like Gecko) Chrome/99.0.4844.82 Safari/537.36",xpyriment,legacy,legacy,0,uniform,0,0,0,0,24,24,24,0,0,20,20,20,20,20,0,20,0,,,,,,0,,26-02-22,26-02-22,14:03:18,Sat Mar 26 2022 14:03:18 GMT+0100 (közép-európai téli idő),The main experiment item,yes,0,0,C:/Users/rrics/Documents/!!ResearchBMECOGSCI/gnet,0,0,0,prototype2.png,no,mono,no,18,no,black,no,no,768,1209,3.5.6,legacy,xpyriment,osweb,1.3.13,0,space,space,space,,33034,4561,33034,,2,legacy,680,1280,24,720,24,0,0,1280,1648299841132,1024,2,48000,-16,experiment,prototype2.png,1,odd,Win32,184,116588,113582,184,184,286679,288184,281683,118116,281683,184,,,,,,visual_patterns,0,0,0,yes,1366
undefined,undefined,undefined,undefined,white,no,Mozilla,Netscape,"5.0 (Windows NT 10.0; Win64; x64) AppleWebKit/537.36 (KHTML, like Gecko) Chrome/99.0.4844.82 Safari/537.36",xpyriment,legacy,legacy,0,uniform,0,0,0,0,24,24,24,0,0,21,21,21,21,21,0,21,0,,,,,,0,,26-02-22,26-02-22,14:03:18,Sat Mar 26 2022 14:03:18 GMT+0100 (közép-európai téli idő),The main experiment item,yes,0,0,C:/Users/rrics/Documents/!!ResearchBMECOGSCI/gnet,0,0,0,prototype2.png,no,mono,no,18,no,black,no,no,768,1209,3.5.6,legacy,xpyriment,osweb,1.3.13,0,space,space,space,,33034,4561,33034,,2,legacy,680,1280,24,720,24,0,0,1280,1648299841132,1024,2,48000,-16,experiment,p4sarrcol2.png,1,odd,Win32,184,116588,113582,184,184,293219,294736,288217,118116,288217,184,,,,,,visual_patterns,0,0,0,yes,1366
undefined,undefined,undefined,undefined,white,no,Mozilla,Netscape,"5.0 (Windows NT 10.0; Win64; x64) AppleWebKit/537.36 (KHTML, like Gecko) Chrome/99.0.4844.82 Safari/537.36",xpyriment,legacy,legacy,0,uniform,0,0,0,0,24,24,24,0,0,22,22,22,22,22,0,22,0,,,,,,0,,26-02-22,26-02-22,14:03:18,Sat Mar 26 2022 14:03:18 GMT+0100 (közép-európai téli idő),The main experiment item,yes,0,0,C:/Users/rrics/Documents/!!ResearchBMECOGSCI/gnet,0,0,0,prototype2.png,no,mono,no,18,no,black,no,no,768,1209,3.5.6,legacy,xpyriment,osweb,1.3.13,0,space,space,space,,33034,4561,33034,,2,legacy,680,1280,24,720,24,0,0,1280,1648299841132,1024,2,48000,-16,experiment,p5sarrshacol1.png,1,odd,Win32,184,116588,113582,184,184,299747,301254,294750,118116,294750,184,,,,,,visual_patterns,0,0,0,yes,1366
undefined,undefined,undefined,undefined,white,no,Mozilla,Netscape,"5.0 (Windows NT 10.0; Win64; x64) AppleWebKit/537.36 (KHTML, like Gecko) Chrome/99.0.4844.82 Safari/537.36",xpyriment,legacy,legacy,0,uniform,0,0,0,0,24,24,24,0,0,23,23,23,23,23,0,23,0,,,,,,0,,26-02-22,26-02-22,14:03:18,Sat Mar 26 2022 14:03:18 GMT+0100 (közép-európai téli idő),The main experiment item,yes,0,0,C:/Users/rrics/Documents/!!ResearchBMECOGSCI/gnet,0,0,0,prototype2.png,no,mono,no,18,no,black,no,no,768,1209,3.5.6,legacy,xpyriment,osweb,1.3.13,0,space,space,space,,33034,4561,33034,,2,legacy,680,1280,24,720,24,0,0,1280,1648299841132,1024,2,48000,-16,experiment,prototype2.png,1,odd,Win32,184,116588,113582,184,184,306267,307773,301265,118116,301265,184,,,,,,visual_patterns,0,0,0,yes,1366
undefined,undefined,undefined,undefined,white,no,Mozilla,Netscape,"5.0 (Windows NT 10.0; Win64; x64) AppleWebKit/537.36 (KHTML, like Gecko) Chrome/99.0.4844.82 Safari/537.36",xpyriment,legacy,legacy,0,uniform,0,0,0,0,24,24,24,0,0,24,24,24,24,24,0,24,0,,,,,,0,,26-02-22,26-02-22,14:03:18,Sat Mar 26 2022 14:03:18 GMT+0100 (közép-európai téli idő),The main experiment item,yes,0,0,C:/Users/rrics/Documents/!!ResearchBMECOGSCI/gnet,0,0,0,prototype2.png,no,mono,no,18,no,black,no,no,768,1209,3.5.6,legacy,xpyriment,osweb,1.3.13,0,space,space,space,,33034,4561,33034,,2,legacy,680,1280,24,720,24,0,0,1280,1648299841132,1024,2,48000,-16,experiment,p4sarrsha2.png,1,odd,Win32,184,116588,113582,184,184,312783,314291,307784,118116,307784,184,,,,,,visual_patterns,0,0,0,yes,1366
undefined,undefined,undefined,undefined,white,no,Mozilla,Netscape,"5.0 (Windows NT 10.0; Win64; x64) AppleWebKit/537.36 (KHTML, like Gecko) Chrome/99.0.4844.82 Safari/537.36",xpyriment,legacy,legacy,0,uniform,0,0,0,0,24,24,24,0,0,25,25,25,25,25,0,25,0,,,,,,0,,26-02-22,26-02-22,14:03:18,Sat Mar 26 2022 14:03:18 GMT+0100 (közép-európai téli idő),The main experiment item,yes,0,0,C:/Users/rrics/Documents/!!ResearchBMECOGSCI/gnet,0,0,0,prototype2.png,no,mono,no,18,no,black,no,no,768,1209,3.5.6,legacy,xpyriment,osweb,1.3.13,0,space,space,space,,33034,4561,33034,,2,legacy,680,1280,24,720,24,0,0,1280,1648299841132,1024,2,48000,-16,experiment,p9sarr1.png,1,odd,Win32,184,116588,113582,184,184,319303,320810,314305,118116,314305,184,,,,,,visual_patterns,0,0,0,yes,1366
undefined,undefined,undefined,undefined,white,no,Mozilla,Netscape,"5.0 (Windows NT 10.0; Win64; x64) AppleWebKit/537.36 (KHTML, like Gecko) Chrome/99.0.4844.82 Safari/537.36",xpyriment,legacy,legacy,0,uniform,0,0,0,0,24,24,24,0,0,26,26,26,26,26,0,26,0,,,,,,0,,26-02-22,26-02-22,14:03:18,Sat Mar 26 2022 14:03:18 GMT+0100 (közép-európai téli idő),The main experiment item,yes,0,0,C:/Users/rrics/Documents/!!ResearchBMECOGSCI/gnet,0,0,0,prototype2.png,no,mono,no,18,no,black,no,no,768,1209,3.5.6,legacy,xpyriment,osweb,1.3.13,0,space,space,space,,33034,4561,33034,,2,legacy,680,1280,24,720,24,0,0,1280,1648299841132,1024,2,48000,-16,experiment,prototype1.png,1,odd,Win32,184,116588,113582,184,184,325844,327345,320841,118116,320841,184,,,,,,visual_patterns,0,0,0,yes,1366
undefined,undefined,undefined,undefined,white,no,Mozilla,Netscape,"5.0 (Windows NT 10.0; Win64; x64) AppleWebKit/537.36 (KHTML, like Gecko) Chrome/99.0.4844.82 Safari/537.36",xpyriment,legacy,legacy,0,uniform,0,0,0,0,24,24,24,0,0,27,27,27,27,27,0,27,0,,,,,,0,,26-02-22,26-02-22,14:03:18,Sat Mar 26 2022 14:03:18 GMT+0100 (közép-európai téli idő),The main experiment item,yes,0,0,C:/Users/rrics/Documents/!!ResearchBMECOGSCI/gnet,0,0,0,prototype2.png,no,mono,no,18,no,black,no,no,768,1209,3.5.6,legacy,xpyriment,osweb,1.3.13,0,space,space,space,,33034,4561,33034,,2,legacy,680,1280,24,720,24,0,0,1280,1648299841132,1024,2,48000,-16,experiment,p4sarrcol1.png,1,odd,Win32,184,116588,113582,184,184,332357,333863,327358,118116,327358,184,,,,,,visual_patterns,0,0,0,yes,1366
undefined,undefined,undefined,undefined,white,no,Mozilla,Netscape,"5.0 (Windows NT 10.0; Win64; x64) AppleWebKit/537.36 (KHTML, like Gecko) Chrome/99.0.4844.82 Safari/537.36",xpyriment,legacy,legacy,0,uniform,0,0,0,0,24,24,24,0,0,28,28,28,28,28,0,28,0,,,,,,0,,26-02-22,26-02-22,14:03:18,Sat Mar 26 2022 14:03:18 GMT+0100 (közép-európai téli idő),The main experiment item,yes,0,0,C:/Users/rrics/Documents/!!ResearchBMECOGSCI/gnet,0,0,0,prototype2.png,no,mono,no,18,no,black,no,no,768,1209,3.5.6,legacy,xpyriment,osweb,1.3.13,0,space,space,space,,33034,4561,33034,,2,legacy,680,1280,24,720,24,0,0,1280,1648299841132,1024,2,48000,-16,experiment,prototype4.png,1,odd,Win32,184,116588,113582,184,184,338875,340382,333873,118116,333873,184,,,,,,visual_patterns,0,0,0,yes,1366
undefined,undefined,undefined,undefined,white,no,Mozilla,Netscape,"5.0 (Windows NT 10.0; Win64; x64) AppleWebKit/537.36 (KHTML, like Gecko) Chrome/99.0.4844.82 Safari/537.36",xpyriment,legacy,legacy,0,uniform,0,0,0,0,24,24,24,0,0,29,29,29,29,29,0,29,0,,,,,,0,,26-02-22,26-02-22,14:03:18,Sat Mar 26 2022 14:03:18 GMT+0100 (közép-európai téli idő),The main experiment item,yes,0,0,C:/Users/rrics/Documents/!!ResearchBMECOGSCI/gnet,0,0,0,prototype2.png,no,mono,no,18,no,black,no,no,768,1209,3.5.6,legacy,xpyriment,osweb,1.3.13,0,space,space,space,,33034,4561,33034,,2,legacy,680,1280,24,720,24,0,0,1280,1648299841132,1024,2,48000,-16,experiment,prototype5.png,1,odd,Win32,184,116588,113582,184,184,345392,346900,340396,118116,340396,184,,,,,,visual_patterns,0,0,0,yes,1366
undefined,undefined,undefined,undefined,white,no,Mozilla,Netscape,"5.0 (Windows NT 10.0; Win64; x64) AppleWebKit/537.36 (KHTML, like Gecko) Chrome/99.0.4844.82 Safari/537.36",xpyriment,legacy,legacy,0,uniform,0,0,0,0,24,24,24,0,0,30,30,30,30,30,0,30,0,,,,,,0,,26-02-22,26-02-22,14:03:18,Sat Mar 26 2022 14:03:18 GMT+0100 (közép-európai téli idő),The main experiment item,yes,0,0,C:/Users/rrics/Documents/!!ResearchBMECOGSCI/gnet,0,0,0,prototype2.png,no,mono,no,18,no,black,no,no,768,1209,3.5.6,legacy,xpyriment,osweb,1.3.13,0,space,space,space,,33034,4561,33034,,2,legacy,680,1280,24,720,24,0,0,1280,1648299841132,1024,2,48000,-16,experiment,p5sarrcol2.png,1,odd,Win32,184,116588,113582,184,184,351912,353418,346918,118116,346918,184,,,,,,visual_patterns,0,0,0,yes,1366
undefined,undefined,undefined,undefined,white,no,Mozilla,Netscape,"5.0 (Windows NT 10.0; Win64; x64) AppleWebKit/537.36 (KHTML, like Gecko) Chrome/99.0.4844.82 Safari/537.36",xpyriment,legacy,legacy,0,uniform,0,0,0,0,24,24,24,0,0,31,31,31,31,31,0,31,0,,,,,,0,,26-02-22,26-02-22,14:03:18,Sat Mar 26 2022 14:03:18 GMT+0100 (közép-európai téli idő),The main experiment item,yes,0,0,C:/Users/rrics/Documents/!!ResearchBMECOGSCI/gnet,0,0,0,prototype2.png,no,mono,no,18,no,black,no,no,768,1209,3.5.6,legacy,xpyriment,osweb,1.3.13,0,space,space,space,,33034,4561,33034,,2,legacy,680,1280,24,720,24,0,0,1280,1648299841132,1024,2,48000,-16,experiment,p2sarrsha2.png,1,odd,Win32,184,116588,113582,184,184,358453,359970,353452,118116,353452,184,,,,,,visual_patterns,0,0,0,yes,1366
undefined,undefined,undefined,undefined,white,no,Mozilla,Netscape,"5.0 (Windows NT 10.0; Win64; x64) AppleWebKit/537.36 (KHTML, like Gecko) Chrome/99.0.4844.82 Safari/537.36",xpyriment,legacy,legacy,0,uniform,0,0,0,0,24,24,24,0,0,32,32,32,32,32,0,32,0,,,,,,0,,26-02-22,26-02-22,14:03:18,Sat Mar 26 2022 14:03:18 GMT+0100 (közép-európai téli idő),The main experiment item,yes,0,0,C:/Users/rrics/Documents/!!ResearchBMECOGSCI/gnet,0,0,0,prototype2.png,no,mono,no,18,no,black,no,no,768,1209,3.5.6,legacy,xpyriment,osweb,1.3.13,0,space,space,space,,33034,4561,33034,,2,legacy,680,1280,24,720,24,0,0,1280,1648299841132,1024,2,48000,-16,experiment,p5sarr1.png,1,odd,Win32,184,116588,113582,184,184,364983,366488,359985,118116,359985,184,,,,,,visual_patterns,0,0,0,yes,1366
undefined,undefined,undefined,undefined,white,no,Mozilla,Netscape,"5.0 (Windows NT 10.0; Win64; x64) AppleWebKit/537.36 (KHTML, like Gecko) Chrome/99.0.4844.82 Safari/537.36",xpyriment,legacy,legacy,0,uniform,0,0,0,0,24,24,24,0,0,33,33,33,33,33,0,33,0,,,,,,0,,26-02-22,26-02-22,14:03:18,Sat Mar 26 2022 14:03:18 GMT+0100 (közép-európai téli idő),The main experiment item,yes,0,0,C:/Users/rrics/Documents/!!ResearchBMECOGSCI/gnet,0,0,0,prototype2.png,no,mono,no,18,no,black,no,no,768,1209,3.5.6,legacy,xpyriment,osweb,1.3.13,0,space,space,space,,33034,4561,33034,,2,legacy,680,1280,24,720,24,0,0,1280,1648299841132,1024,2,48000,-16,experiment,p3sarrshacol1.png,1,odd,Win32,184,116588,113582,184,184,371500,373007,366500,118116,366500,184,,,,,,visual_patterns,0,0,0,yes,1366
undefined,undefined,undefined,undefined,white,no,Mozilla,Netscape,"5.0 (Windows NT 10.0; Win64; x64) AppleWebKit/537.36 (KHTML, like Gecko) Chrome/99.0.4844.82 Safari/537.36",xpyriment,legacy,legacy,0,uniform,0,0,0,0,24,24,24,0,0,34,34,34,34,34,0,34,0,,,,,,0,,26-02-22,26-02-22,14:03:18,Sat Mar 26 2022 14:03:18 GMT+0100 (közép-európai téli idő),The main experiment item,yes,0,0,C:/Users/rrics/Documents/!!ResearchBMECOGSCI/gnet,0,0,0,prototype2.png,no,mono,no,18,no,black,no,no,768,1209,3.5.6,legacy,xpyriment,osweb,1.3.13,0,space,space,space,,33034,4561,33034,,2,legacy,680,1280,24,720,24,0,0,1280,1648299841132,1024,2,48000,-16,experiment,prototype1.png,1,odd,Win32,184,116588,113582,184,184,378019,379535,373019,118116,373019,184,,,,,,visual_patterns,0,0,0,yes,1366
undefined,undefined,undefined,undefined,white,no,Mozilla,Netscape,"5.0 (Windows NT 10.0; Win64; x64) AppleWebKit/537.36 (KHTML, like Gecko) Chrome/99.0.4844.82 Safari/537.36",xpyriment,legacy,legacy,0,uniform,0,0,0,0,24,24,24,0,0,35,35,35,35,35,0,35,0,,,,,,0,,26-02-22,26-02-22,14:03:18,Sat Mar 26 2022 14:03:18 GMT+0100 (közép-európai téli idő),The main experiment item,yes,0,0,C:/Users/rrics/Documents/!!ResearchBMECOGSCI/gnet,0,0,0,prototype2.png,no,mono,no,18,no,black,no,no,768,1209,3.5.6,legacy,xpyriment,osweb,1.3.13,0,space,space,space,,33034,4561,33034,,2,legacy,680,1280,24,720,24,0,0,1280,1648299841132,1024,2,48000,-16,experiment,p4sarrshacol1.png,1,odd,Win32,184,116588,113582,184,184,384560,386077,379549,118116,379549,184,,,,,,visual_patterns,0,0,0,yes,1366
undefined,undefined,undefined,undefined,white,no,Mozilla,Netscape,"5.0 (Windows NT 10.0; Win64; x64) AppleWebKit/537.36 (KHTML, like Gecko) Chrome/99.0.4844.82 Safari/537.36",xpyriment,legacy,legacy,0,uniform,0,0,0,0,24,24,24,0,0,36,36,36,36,36,0,36,0,,,,,,0,,26-02-22,26-02-22,14:03:18,Sat Mar 26 2022 14:03:18 GMT+0100 (közép-európai téli idő),The main experiment item,yes,0,0,C:/Users/rrics/Documents/!!ResearchBMECOGSCI/gnet,0,0,0,prototype2.png,no,mono,no,18,no,black,no,no,768,1209,3.5.6,legacy,xpyriment,osweb,1.3.13,0,space,space,space,,33034,4561,33034,,2,legacy,680,1280,24,720,24,0,0,1280,1648299841132,1024,2,48000,-16,experiment,prototype3.png,1,odd,Win32,184,116588,113582,184,184,391107,392612,386110,118116,386110,184,,,,,,visual_patterns,0,0,0,yes,1366
undefined,undefined,undefined,undefined,white,no,Mozilla,Netscape,"5.0 (Windows NT 10.0; Win64; x64) AppleWebKit/537.36 (KHTML, like Gecko) Chrome/99.0.4844.82 Safari/537.36",xpyriment,legacy,legacy,0,uniform,0,0,0,0,24,24,24,0,0,37,37,37,37,37,0,37,0,,,,,,0,,26-02-22,26-02-22,14:03:18,Sat Mar 26 2022 14:03:18 GMT+0100 (közép-európai téli idő),The main experiment item,yes,0,0,C:/Users/rrics/Documents/!!ResearchBMECOGSCI/gnet,0,0,0,prototype2.png,no,mono,no,18,no,black,no,no,768,1209,3.5.6,legacy,xpyriment,osweb,1.3.13,0,space,space,space,,33034,4561,33034,,2,legacy,680,1280,24,720,24,0,0,1280,1648299841132,1024,2,48000,-16,experiment,prototype3.png,1,odd,Win32,184,116588,113582,184,184,397629,399130,392624,118116,392623,184,,,,,,visual_patterns,0,0,0,yes,1366
undefined,undefined,undefined,undefined,white,no,Mozilla,Netscape,"5.0 (Windows NT 10.0; Win64; x64) AppleWebKit/537.36 (KHTML, like Gecko) Chrome/99.0.4844.82 Safari/537.36",xpyriment,legacy,legacy,0,uniform,0,0,0,0,24,24,24,0,0,38,38,38,38,38,0,38,0,,,,,,0,,26-02-22,26-02-22,14:03:18,Sat Mar 26 2022 14:03:18 GMT+0100 (közép-európai téli idő),The main experiment item,yes,0,0,C:/Users/rrics/Documents/!!ResearchBMECOGSCI/gnet,0,0,0,prototype2.png,no,mono,no,18,no,black,no,no,768,1209,3.5.6,legacy,xpyriment,osweb,1.3.13,0,space,space,space,,33034,4561,33034,,2,legacy,680,1280,24,720,24,0,0,1280,1648299841132,1024,2,48000,-16,experiment,p7sarr1.png,1,odd,Win32,184,116588,113582,184,184,404145,405649,399144,118116,399144,184,,,,,,visual_patterns,0,0,0,yes,1366
undefined,undefined,undefined,undefined,white,no,Mozilla,Netscape,"5.0 (Windows NT 10.0; Win64; x64) AppleWebKit/537.36 (KHTML, like Gecko) Chrome/99.0.4844.82 Safari/537.36",xpyriment,legacy,legacy,0,uniform,0,0,0,0,24,24,24,0,0,39,39,39,39,39,0,39,0,,,,,,0,,26-02-22,26-02-22,14:03:18,Sat Mar 26 2022 14:03:18 GMT+0100 (közép-európai téli idő),The main experiment item,yes,0,0,C:/Users/rrics/Documents/!!ResearchBMECOGSCI/gnet,0,0,0,prototype2.png,no,mono,no,18,no,black,no,no,768,1209,3.5.6,legacy,xpyriment,osweb,1.3.13,0,space,space,space,,33034,4561,33034,,2,legacy,680,1280,24,720,24,0,0,1280,1648299841132,1024,2,48000,-16,experiment,p1sarrsha1.png,1,odd,Win32,184,116588,113582,184,184,410661,412168,405664,118116,405664,184,,,,,,visual_patterns,0,0,0,yes,1366
undefined,undefined,undefined,undefined,white,no,Mozilla,Netscape,"5.0 (Windows NT 10.0; Win64; x64) AppleWebKit/537.36 (KHTML, like Gecko) Chrome/99.0.4844.82 Safari/537.36",xpyriment,legacy,legacy,0,uniform,0,0,0,0,24,24,24,0,0,40,40,40,40,40,0,40,0,,,,,,0,,26-02-22,26-02-22,14:03:18,Sat Mar 26 2022 14:03:18 GMT+0100 (közép-európai téli idő),The main experiment item,yes,0,0,C:/Users/rrics/Documents/!!ResearchBMECOGSCI/gnet,0,0,0,prototype2.png,no,mono,no,18,no,black,no,no,768,1209,3.5.6,legacy,xpyriment,osweb,1.3.13,0,space,space,space,,33034,4561,33034,,2,legacy,680,1280,24,720,24,0,0,1280,1648299841132,1024,2,48000,-16,experiment,prototype5.png,1,odd,Win32,184,116588,113582,184,184,417180,418686,412178,118116,412178,184,,,,,,visual_patterns,0,0,0,yes,1366
undefined,undefined,undefined,undefined,white,no,Mozilla,Netscape,"5.0 (Windows NT 10.0; Win64; x64) AppleWebKit/537.36 (KHTML, like Gecko) Chrome/99.0.4844.82 Safari/537.36",xpyriment,legacy,legacy,0,uniform,0,0,0,0,24,24,24,0,0,41,41,41,41,41,0,41,0,,,,,,0,,26-02-22,26-02-22,14:03:18,Sat Mar 26 2022 14:03:18 GMT+0100 (közép-európai téli idő),The main experiment item,yes,0,0,C:/Users/rrics/Documents/!!ResearchBMECOGSCI/gnet,0,0,0,prototype2.png,no,mono,no,18,no,black,no,no,768,1209,3.5.6,legacy,xpyriment,osweb,1.3.13,0,space,space,space,,33034,4561,33034,,2,legacy,680,1280,24,720,24,0,0,1280,1648299841132,1024,2,48000,-16,experiment,p3sarrshacol2.png,1,odd,Win32,184,116588,113582,184,184,423721,425237,418724,118116,418724,184,,,,,,visual_patterns,0,0,0,yes,1366
undefined,undefined,undefined,undefined,white,no,Mozilla,Netscape,"5.0 (Windows NT 10.0; Win64; x64) AppleWebKit/537.36 (KHTML, like Gecko) Chrome/99.0.4844.82 Safari/537.36",xpyriment,legacy,legacy,0,uniform,0,0,0,0,24,24,24,0,0,42,42,42,42,42,0,42,0,,,,,,0,,26-02-22,26-02-22,14:03:18,Sat Mar 26 2022 14:03:18 GMT+0100 (közép-európai téli idő),The main experiment item,yes,0,0,C:/Users/rrics/Documents/!!ResearchBMECOGSCI/gnet,0,0,0,prototype2.png,no,mono,no,18,no,black,no,no,768,1209,3.5.6,legacy,xpyriment,osweb,1.3.13,0,space,space,space,,33034,4561,33034,,2,legacy,680,1280,24,720,24,0,0,1280,1648299841132,1024,2,48000,-16,experiment,p3sarrcol2.png,1,odd,Win32,184,116588,113582,184,184,430250,431756,425250,118116,425250,184,,,,,,visual_patterns,0,0,0,yes,1366
undefined,undefined,undefined,undefined,white,no,Mozilla,Netscape,"5.0 (Windows NT 10.0; Win64; x64) AppleWebKit/537.36 (KHTML, like Gecko) Chrome/99.0.4844.82 Safari/537.36",xpyriment,legacy,legacy,0,uniform,0,0,0,0,24,24,24,0,0,43,43,43,43,43,0,43,0,,,,,,0,,26-02-22,26-02-22,14:03:18,Sat Mar 26 2022 14:03:18 GMT+0100 (közép-európai téli idő),The main experiment item,yes,0,0,C:/Users/rrics/Documents/!!ResearchBMECOGSCI/gnet,0,0,0,prototype2.png,no,mono,no,18,no,black,no,no,768,1209,3.5.6,legacy,xpyriment,osweb,1.3.13,0,space,space,space,,33034,4561,33034,,2,legacy,680,1280,24,720,24,0,0,1280,1648299841132,1024,2,48000,-16,experiment,p3sarr2.png,1,odd,Win32,184,116588,113582,184,184,436771,438275,431770,118116,431770,184,,,,,,visual_patterns,0,0,0,yes,1366
undefined,undefined,undefined,undefined,white,no,Mozilla,Netscape,"5.0 (Windows NT 10.0; Win64; x64) AppleWebKit/537.36 (KHTML, like Gecko) Chrome/99.0.4844.82 Safari/537.36",xpyriment,legacy,legacy,0,uniform,0,0,0,0,24,24,24,0,0,44,44,44,44,44,0,44,0,,,,,,0,,26-02-22,26-02-22,14:03:18,Sat Mar 26 2022 14:03:18 GMT+0100 (közép-európai téli idő),The main experiment item,yes,0,0,C:/Users/rrics/Documents/!!ResearchBMECOGSCI/gnet,0,0,0,prototype2.png,no,mono,no,18,no,black,no,no,768,1209,3.5.6,legacy,xpyriment,osweb,1.3.13,0,space,space,space,,33034,4561,33034,,2,legacy,680,1280,24,720,24,0,0,1280,1648299841132,1024,2,48000,-16,experiment,p2sarrsha1.png,1,odd,Win32,184,116588,113582,184,184,443287,444793,438286,118116,438286,184,,,,,,visual_patterns,0,0,0,yes,1366
undefined,undefined,undefined,undefined,white,no,Mozilla,Netscape,"5.0 (Windows NT 10.0; Win64; x64) AppleWebKit/537.36 (KHTML, like Gecko) Chrome/99.0.4844.82 Safari/537.36",xpyriment,legacy,legacy,0,uniform,0,0,0,0,24,24,24,0,0,45,45,45,45,45,0,45,0,,,,,,0,,26-02-22,26-02-22,14:03:18,Sat Mar 26 2022 14:03:18 GMT+0100 (közép-európai téli idő),The main experiment item,yes,0,0,C:/Users/rrics/Documents/!!ResearchBMECOGSCI/gnet,0,0,0,prototype2.png,no,mono,no,18,no,black,no,no,768,1209,3.5.6,legacy,xpyriment,osweb,1.3.13,0,space,space,space,,33034,4561,33034,,2,legacy,680,1280,24,720,24,0,0,1280,1648299841132,1024,2,48000,-16,experiment,p4sarrsha1.png,1,odd,Win32,184,116588,113582,184,184,449807,451311,444808,118116,444808,184,,,,,,visual_patterns,0,0,0,yes,1366
undefined,undefined,undefined,undefined,white,no,Mozilla,Netscape,"5.0 (Windows NT 10.0; Win64; x64) AppleWebKit/537.36 (KHTML, like Gecko) Chrome/99.0.4844.82 Safari/537.36",xpyriment,legacy,legacy,0,uniform,0,0,0,0,24,24,24,0,0,46,46,46,46,46,0,46,0,,,,,,0,,26-02-22,26-02-22,14:03:18,Sat Mar 26 2022 14:03:18 GMT+0100 (közép-európai téli idő),The main experiment item,yes,0,0,C:/Users/rrics/Documents/!!ResearchBMECOGSCI/gnet,0,0,0,prototype2.png,no,mono,no,18,no,black,no,no,768,1209,3.5.6,legacy,xpyriment,osweb,1.3.13,0,space,space,space,,33034,4561,33034,,2,legacy,680,1280,24,720,24,0,0,1280,1648299841132,1024,2,48000,-16,experiment,p1sarrcol1.png,1,odd,Win32,184,116588,113582,184,184,456324,457829,451326,118116,451326,184,,,,,,visual_patterns,0,0,0,yes,1366
undefined,undefined,undefined,undefined,white,no,Mozilla,Netscape,"5.0 (Windows NT 10.0; Win64; x64) AppleWebKit/537.36 (KHTML, like Gecko) Chrome/99.0.4844.82 Safari/537.36",xpyriment,legacy,legacy,0,uniform,0,0,0,0,24,24,24,0,0,47,47,47,47,47,0,47,0,,,,,,0,,26-02-22,26-02-22,14:03:18,Sat Mar 26 2022 14:03:18 GMT+0100 (közép-európai téli idő),The main experiment item,yes,0,0,C:/Users/rrics/Documents/!!ResearchBMECOGSCI/gnet,0,0,0,prototype2.png,no,mono,no,18,no,black,no,no,768,1209,3.5.6,legacy,xpyriment,osweb,1.3.13,0,space,space,space,,33034,4561,33034,,2,legacy,680,1280,24,720,24,0,0,1280,1648299841132,1024,2,48000,-16,experiment,p1sarrsha2.png,1,odd,Win32,184,116588,113582,184,184,462842,464348,457840,118116,457839,184,,,,,,visual_patterns,0,0,0,yes,1366
undefined,undefined,undefined,undefined,white,no,Mozilla,Netscape,"5.0 (Windows NT 10.0; Win64; x64) AppleWebKit/537.36 (KHTML, like Gecko) Chrome/99.0.4844.82 Safari/537.36",xpyriment,legacy,legacy,0,uniform,0,0,0,0,24,24,24,0,0,48,48,48,48,48,0,48,0,,,,,,0,,26-02-22,26-02-22,14:03:18,Sat Mar 26 2022 14:03:18 GMT+0100 (közép-európai téli idő),The main experiment item,yes,0,0,C:/Users/rrics/Documents/!!ResearchBMECOGSCI/gnet,0,0,0,prototype2.png,no,mono,no,18,no,black,no,no,768,1209,3.5.6,legacy,xpyriment,osweb,1.3.13,0,space,space,space,,33034,4561,33034,,2,legacy,680,1280,24,720,24,0,0,1280,1648299841132,1024,2,48000,-16,experiment,p7sarr2.png,1,odd,Win32,184,116588,113582,184,184,469361,470867,464360,118116,464360,184,,,,,,visual_patterns,0,0,0,yes,1366
undefined,undefined,undefined,undefined,white,no,Mozilla,Netscape,"5.0 (Windows NT 10.0; Win64; x64) AppleWebKit/537.36 (KHTML, like Gecko) Chrome/99.0.4844.82 Safari/537.36",xpyriment,legacy,legacy,0,uniform,0,0,0,0,24,24,24,0,0,49,49,49,49,49,0,49,0,,,,,,0,,26-02-22,26-02-22,14:03:18,Sat Mar 26 2022 14:03:18 GMT+0100 (közép-európai téli idő),The main experiment item,yes,0,0,C:/Users/rrics/Documents/!!ResearchBMECOGSCI/gnet,0,0,0,prototype2.png,no,mono,no,18,no,black,no,no,768,1209,3.5.6,legacy,xpyriment,osweb,1.3.13,0,space,space,space,,33034,4561,33034,,2,legacy,680,1280,24,720,24,0,0,1280,1648299841132,1024,2,48000,-16,experiment,p4sarr1.png,1,odd,Win32,184,116588,113582,184,184,475880,477385,470882,118116,470882,184,,,,,,visual_patterns,0,0,0,yes,1366
undefined,undefined,undefined,undefined,white,no,Mozilla,Netscape,"5.0 (Windows NT 10.0; Win64; x64) AppleWebKit/537.36 (KHTML, like Gecko) Chrome/99.0.4844.82 Safari/537.36",xpyriment,legacy,legacy,0,uniform,0,0,0,0,24,24,24,0,0,50,50,50,50,50,0,50,0,,,,,,0,,26-02-22,26-02-22,14:03:18,Sat Mar 26 2022 14:03:18 GMT+0100 (közép-európai téli idő),The main experiment item,yes,0,0,C:/Users/rrics/Documents/!!ResearchBMECOGSCI/gnet,0,0,0,prototype2.png,no,mono,no,18,no,black,no,no,768,1209,3.5.6,legacy,xpyriment,osweb,1.3.13,0,space,space,space,,33034,4561,33034,,2,legacy,680,1280,24,720,24,0,0,1280,1648299841132,1024,2,48000,-16,experiment,p10sarr1.png,1,odd,Win32,184,116588,113582,184,184,482397,483904,477396,118116,477396,184,,,,,,visual_patterns,0,0,0,yes,1366
undefined,undefined,undefined,undefined,white,no,Mozilla,Netscape,"5.0 (Windows NT 10.0; Win64; x64) AppleWebKit/537.36 (KHTML, like Gecko) Chrome/99.0.4844.82 Safari/537.36",xpyriment,legacy,legacy,0,uniform,0,0,0,0,24,24,24,0,0,51,51,51,51,51,0,51,0,,,,,,0,,26-02-22,26-02-22,14:03:18,Sat Mar 26 2022 14:03:18 GMT+0100 (közép-európai téli idő),The main experiment item,yes,0,0,C:/Users/rrics/Documents/!!ResearchBMECOGSCI/gnet,0,0,0,prototype2.png,no,mono,no,18,no,black,no,no,768,1209,3.5.6,legacy,xpyriment,osweb,1.3.13,0,space,space,space,,33034,4561,33034,,2,legacy,680,1280,24,720,24,0,0,1280,1648299841132,1024,2,48000,-16,experiment,prototype3.png,1,odd,Win32,184,116588,113582,184,184,488939,490455,483934,118116,483934,184,,,,,,visual_patterns,0,0,0,yes,1366
undefined,undefined,undefined,undefined,white,no,Mozilla,Netscape,"5.0 (Windows NT 10.0; Win64; x64) AppleWebKit/537.36 (KHTML, like Gecko) Chrome/99.0.4844.82 Safari/537.36",xpyriment,legacy,legacy,0,uniform,0,0,0,0,24,24,24,0,0,52,52,52,52,52,0,52,0,,,,,,0,,26-02-22,26-02-22,14:03:18,Sat Mar 26 2022 14:03:18 GMT+0100 (közép-európai téli idő),The main experiment item,yes,0,0,C:/Users/rrics/Documents/!!ResearchBMECOGSCI/gnet,0,0,0,prototype2.png,no,mono,no,18,no,black,no,no,768,1209,3.5.6,legacy,xpyriment,osweb,1.3.13,0,space,space,space,,33034,4561,33034,,2,legacy,680,1280,24,720,24,0,0,1280,1648299841132,1024,2,48000,-16,experiment,p1sarr1.png,1,odd,Win32,184,116588,113582,184,184,495467,496974,490470,118116,490470,184,,,,,,visual_patterns,0,0,0,yes,1366
undefined,undefined,undefined,undefined,white,no,Mozilla,Netscape,"5.0 (Windows NT 10.0; Win64; x64) AppleWebKit/537.36 (KHTML, like Gecko) Chrome/99.0.4844.82 Safari/537.36",xpyriment,legacy,legacy,0,uniform,0,0,0,0,24,24,24,0,0,53,53,53,53,53,0,53,0,,,,,,0,,26-02-22,26-02-22,14:03:18,Sat Mar 26 2022 14:03:18 GMT+0100 (közép-európai téli idő),The main experiment item,yes,0,0,C:/Users/rrics/Documents/!!ResearchBMECOGSCI/gnet,0,0,0,prototype2.png,no,mono,no,18,no,black,no,no,768,1209,3.5.6,legacy,xpyriment,osweb,1.3.13,0,space,space,space,,33034,4561,33034,,2,legacy,680,1280,24,720,24,0,0,1280,1648299841132,1024,2,48000,-16,experiment,p1sarrcol2.png,1,odd,Win32,184,116588,113582,184,184,501987,503492,496990,118116,496990,184,,,,,,visual_patterns,0,0,0,yes,1366
undefined,undefined,undefined,undefined,white,no,Mozilla,Netscape,"5.0 (Windows NT 10.0; Win64; x64) AppleWebKit/537.36 (KHTML, like Gecko) Chrome/99.0.4844.82 Safari/537.36",xpyriment,legacy,legacy,0,uniform,0,0,0,0,24,24,24,0,0,54,54,54,54,54,0,54,0,,,,,,0,,26-02-22,26-02-22,14:03:18,Sat Mar 26 2022 14:03:18 GMT+0100 (közép-európai téli idő),The main experiment item,yes,0,0,C:/Users/rrics/Documents/!!ResearchBMECOGSCI/gnet,0,0,0,prototype2.png,no,mono,no,18,no,black,no,no,768,1209,3.5.6,legacy,xpyriment,osweb,1.3.13,0,space,space,space,,33034,4561,33034,,2,legacy,680,1280,24,720,24,0,0,1280,1648299841132,1024,2,48000,-16,experiment,p2sarrcol2.png,1,odd,Win32,184,116588,113582,184,184,508505,510011,503505,118116,503504,184,,,,,,visual_patterns,0,0,0,yes,1366
undefined,undefined,undefined,undefined,white,no,Mozilla,Netscape,"5.0 (Windows NT 10.0; Win64; x64) AppleWebKit/537.36 (KHTML, like Gecko) Chrome/99.0.4844.82 Safari/537.36",xpyriment,legacy,legacy,0,uniform,0,0,0,0,24,24,24,0,0,55,55,55,55,55,0,55,0,,,,,,0,,26-02-22,26-02-22,14:03:18,Sat Mar 26 2022 14:03:18 GMT+0100 (közép-európai téli idő),The main experiment item,yes,0,0,C:/Users/rrics/Documents/!!ResearchBMECOGSCI/gnet,0,0,0,prototype2.png,no,mono,no,18,no,black,no,no,768,1209,3.5.6,legacy,xpyriment,osweb,1.3.13,0,space,space,space,,33034,4561,33034,,2,legacy,680,1280,24,720,24,0,0,1280,1648299841132,1024,2,48000,-16,experiment,prototype4.png,1,odd,Win32,184,116588,113582,184,184,515022,516529,510021,118116,510021,184,,,,,,visual_patterns,0,0,0,yes,1366
undefined,undefined,undefined,undefined,white,no,Mozilla,Netscape,"5.0 (Windows NT 10.0; Win64; x64) AppleWebKit/537.36 (KHTML, like Gecko) Chrome/99.0.4844.82 Safari/537.36",xpyriment,legacy,legacy,0,uniform,0,0,0,0,24,24,24,0,0,56,56,56,56,56,0,56,0,,,,,,0,,26-02-22,26-02-22,14:03:18,Sat Mar 26 2022 14:03:18 GMT+0100 (közép-európai téli idő),The main experiment item,yes,0,0,C:/Users/rrics/Documents/!!ResearchBMECOGSCI/gnet,0,0,0,prototype2.png,no,mono,no,18,no,black,no,no,768,1209,3.5.6,legacy,xpyriment,osweb,1.3.13,0,space,space,space,,33034,4561,33034,,2,legacy,680,1280,24,720,24,0,0,1280,1648299841132,1024,2,48000,-16,experiment,p2sarrshacol1.png,1,odd,Win32,184,116588,113582,184,184,521565,523081,516561,118116,516561,184,,,,,,visual_patterns,0,0,0,yes,1366
undefined,undefined,undefined,undefined,white,no,Mozilla,Netscape,"5.0 (Windows NT 10.0; Win64; x64) AppleWebKit/537.36 (KHTML, like Gecko) Chrome/99.0.4844.82 Safari/537.36",xpyriment,legacy,legacy,0,uniform,0,0,0,0,24,24,24,0,0,57,57,57,57,57,0,57,0,,,,,,0,,26-02-22,26-02-22,14:03:18,Sat Mar 26 2022 14:03:18 GMT+0100 (közép-európai téli idő),The main experiment item,yes,0,0,C:/Users/rrics/Documents/!!ResearchBMECOGSCI/gnet,0,0,0,prototype2.png,no,mono,no,18,no,black,no,no,768,1209,3.5.6,legacy,xpyriment,osweb,1.3.13,0,space,space,space,,33034,4561,33034,,2,legacy,680,1280,24,720,24,0,0,1280,1648299841132,1024,2,48000,-16,experiment,prototype5.png,1,odd,Win32,184,116588,113582,184,184,528093,529599,523093,118116,523093,184,,,,,,visual_patterns,0,0,0,yes,1366
undefined,undefined,undefined,undefined,white,no,Mozilla,Netscape,"5.0 (Windows NT 10.0; Win64; x64) AppleWebKit/537.36 (KHTML, like Gecko) Chrome/99.0.4844.82 Safari/537.36",xpyriment,legacy,legacy,0,uniform,0,0,0,0,24,24,24,0,0,58,58,58,58,58,0,58,0,,,,,,0,,26-02-22,26-02-22,14:03:18,Sat Mar 26 2022 14:03:18 GMT+0100 (közép-európai téli idő),The main experiment item,yes,0,0,C:/Users/rrics/Documents/!!ResearchBMECOGSCI/gnet,0,0,0,prototype2.png,no,mono,no,18,no,black,no,no,768,1209,3.5.6,legacy,xpyriment,osweb,1.3.13,0,space,space,space,,33034,4561,33034,,2,legacy,680,1280,24,720,24,0,0,1280,1648299841132,1024,2,48000,-16,experiment,prototype2.png,1,odd,Win32,184,116588,113582,184,184,534611,536118,529609,118116,529609,184,,,,,,visual_patterns,0,0,0,yes,1366
undefined,undefined,undefined,undefined,white,no,Mozilla,Netscape,"5.0 (Windows NT 10.0; Win64; x64) AppleWebKit/537.36 (KHTML, like Gecko) Chrome/99.0.4844.82 Safari/537.36",xpyriment,legacy,legacy,0,uniform,0,0,0,0,24,24,24,0,0,59,59,59,59,59,0,59,0,,,,,,0,,26-02-22,26-02-22,14:03:18,Sat Mar 26 2022 14:03:18 GMT+0100 (közép-európai téli idő),The main experiment item,yes,0,0,C:/Users/rrics/Documents/!!ResearchBMECOGSCI/gnet,0,0,0,prototype2.png,no,mono,no,18,no,black,no,no,768,1209,3.5.6,legacy,xpyriment,osweb,1.3.13,0,space,space,space,,33034,4561,33034,,2,legacy,680,1280,24,720,24,0,0,1280,1648299841132,1024,2,48000,-16,experiment,prototype5.png,1,odd,Win32,184,116588,113582,184,184,541130,542636,536126,118116,536126,184,,,,,,visual_patterns,0,0,0,yes,1366
undefined,undefined,undefined,undefined,white,no,Mozilla,Netscape,"5.0 (Windows NT 10.0; Win64; x64) AppleWebKit/537.36 (KHTML, like Gecko) Chrome/99.0.4844.82 Safari/537.36",xpyriment,legacy,legacy,0,uniform,0,0,0,0,24,24,24,0,0,60,60,60,60,60,0,60,0,,,,,,0,,26-02-22,26-02-22,14:03:18,Sat Mar 26 2022 14:03:18 GMT+0100 (közép-európai téli idő),The main experiment item,yes,0,0,C:/Users/rrics/Documents/!!ResearchBMECOGSCI/gnet,0,0,0,prototype2.png,no,mono,no,18,no,black,no,no,768,1209,3.5.6,legacy,xpyriment,osweb,1.3.13,0,space,space,space,,33034,4561,33034,,2,legacy,680,1280,24,720,24,0,0,1280,1648299841132,1024,2,48000,-16,experiment,p1sarrshacol2.png,1,odd,Win32,184,116588,113582,184,184,547648,549155,542649,118116,542649,184,,,,,,visual_patterns,0,0,0,yes,1366
undefined,undefined,undefined,undefined,white,no,Mozilla,Netscape,"5.0 (Windows NT 10.0; Win64; x64) AppleWebKit/537.36 (KHTML, like Gecko) Chrome/99.0.4844.82 Safari/537.36",xpyriment,legacy,legacy,0,uniform,0,0,0,0,24,24,24,0,0,61,61,61,61,61,0,61,0,,,,,,0,,26-02-22,26-02-22,14:03:18,Sat Mar 26 2022 14:03:18 GMT+0100 (közép-európai téli idő),The main experiment item,yes,0,0,C:/Users/rrics/Documents/!!ResearchBMECOGSCI/gnet,0,0,0,prototype2.png,no,mono,no,18,no,black,no,no,768,1209,3.5.6,legacy,xpyriment,osweb,1.3.13,0,space,space,space,,33034,4561,33034,,2,legacy,680,1280,24,720,24,0,0,1280,1648299841132,1024,2,48000,-16,experiment,p2sarrcol1.png,1,odd,Win32,184,116588,113582,184,184,554190,555706,549187,118116,549187,184,,,,,,visual_patterns,0,0,0,yes,1366
undefined,undefined,undefined,undefined,white,no,Mozilla,Netscape,"5.0 (Windows NT 10.0; Win64; x64) AppleWebKit/537.36 (KHTML, like Gecko) Chrome/99.0.4844.82 Safari/537.36",xpyriment,legacy,legacy,0,uniform,0,0,0,0,24,24,24,0,0,62,62,62,62,62,0,62,0,,,,,,0,,26-02-22,26-02-22,14:03:18,Sat Mar 26 2022 14:03:18 GMT+0100 (közép-európai téli idő),The main experiment item,yes,0,0,C:/Users/rrics/Documents/!!ResearchBMECOGSCI/gnet,0,0,0,prototype2.png,no,mono,no,18,no,black,no,no,768,1209,3.5.6,legacy,xpyriment,osweb,1.3.13,0,space,space,space,,33034,4561,33034,,2,legacy,680,1280,24,720,24,0,0,1280,1648299841132,1024,2,48000,-16,experiment,p5sarr2.png,1,odd,Win32,184,116588,113582,184,184,560718,562225,555722,118116,555722,184,,,,,,visual_patterns,0,0,0,yes,1366
undefined,undefined,undefined,undefined,white,no,Mozilla,Netscape,"5.0 (Windows NT 10.0; Win64; x64) AppleWebKit/537.36 (KHTML, like Gecko) Chrome/99.0.4844.82 Safari/537.36",xpyriment,legacy,legacy,0,uniform,0,0,0,0,24,24,24,0,0,63,63,63,63,63,0,63,0,,,,,,0,,26-02-22,26-02-22,14:03:18,Sat Mar 26 2022 14:03:18 GMT+0100 (közép-európai téli idő),The main experiment item,yes,0,0,C:/Users/rrics/Documents/!!ResearchBMECOGSCI/gnet,0,0,0,prototype2.png,no,mono,no,18,no,black,no,no,768,1209,3.5.6,legacy,xpyriment,osweb,1.3.13,0,space,space,space,,33034,4561,33034,,2,legacy,680,1280,24,720,24,0,0,1280,1648299841132,1024,2,48000,-16,experiment,p10sarr2.png,1,odd,Win32,184,116588,113582,184,184,567243,568760,562239,118116,562239,184,,,,,,visual_patterns,0,0,0,yes,1366
undefined,undefined,undefined,undefined,white,no,Mozilla,Netscape,"5.0 (Windows NT 10.0; Win64; x64) AppleWebKit/537.36 (KHTML, like Gecko) Chrome/99.0.4844.82 Safari/537.36",xpyriment,legacy,legacy,0,uniform,0,0,0,0,24,24,24,0,0,64,64,64,64,64,0,64,0,,,,,,0,,26-02-22,26-02-22,14:03:18,Sat Mar 26 2022 14:03:18 GMT+0100 (közép-európai téli idő),The main experiment item,yes,0,0,C:/Users/rrics/Documents/!!ResearchBMECOGSCI/gnet,0,0,0,prototype2.png,no,mono,no,18,no,black,no,no,768,1209,3.5.6,legacy,xpyriment,osweb,1.3.13,0,space,space,space,,33034,4561,33034,,2,legacy,680,1280,24,720,24,0,0,1280,1648299841132,1024,2,48000,-16,experiment,prototype1.png,1,odd,Win32,184,116588,113582,184,184,573771,575278,568769,118116,568769,184,,,,,,visual_patterns,0,0,0,yes,1366
undefined,undefined,undefined,undefined,white,no,Mozilla,Netscape,"5.0 (Windows NT 10.0; Win64; x64) AppleWebKit/537.36 (KHTML, like Gecko) Chrome/99.0.4844.82 Safari/537.36",xpyriment,legacy,legacy,0,uniform,0,0,0,0,24,24,24,0,0,65,65,65,65,65,0,65,0,,,,,,0,,26-02-22,26-02-22,14:03:18,Sat Mar 26 2022 14:03:18 GMT+0100 (közép-európai téli idő),The main experiment item,yes,0,0,C:/Users/rrics/Documents/!!ResearchBMECOGSCI/gnet,0,0,0,prototype2.png,no,mono,no,18,no,black,no,no,768,1209,3.5.6,legacy,xpyriment,osweb,1.3.13,0,space,space,space,,33034,4561,33034,,2,legacy,680,1280,24,720,24,0,0,1280,1648299841132,1024,2,48000,-16,experiment,prototype4.png,1,odd,Win32,184,116588,113582,184,184,580293,581797,575288,118116,575288,184,,,,,,visual_patterns,0,0,0,yes,1366
undefined,undefined,undefined,undefined,white,no,Mozilla,Netscape,"5.0 (Windows NT 10.0; Win64; x64) AppleWebKit/537.36 (KHTML, like Gecko) Chrome/99.0.4844.82 Safari/537.36",xpyriment,legacy,legacy,0,uniform,0,0,0,0,24,24,24,0,0,66,66,66,66,66,0,66,0,,,,,,0,,26-02-22,26-02-22,14:03:18,Sat Mar 26 2022 14:03:18 GMT+0100 (közép-európai téli idő),The main experiment item,yes,0,0,C:/Users/rrics/Documents/!!ResearchBMECOGSCI/gnet,0,0,0,prototype2.png,no,mono,no,18,no,black,no,no,768,1209,3.5.6,legacy,xpyriment,osweb,1.3.13,0,space,space,space,,33034,4561,33034,,2,legacy,680,1280,24,720,24,0,0,1280,1648299841132,1024,2,48000,-16,experiment,p2sarrshacol2.png,1,odd,Win32,184,116588,113582,184,184,586827,588332,581828,118116,581828,184,,,,,,visual_patterns,0,0,0,yes,1366
undefined,undefined,undefined,undefined,white,no,Mozilla,Netscape,"5.0 (Windows NT 10.0; Win64; x64) AppleWebKit/537.36 (KHTML, like Gecko) Chrome/99.0.4844.82 Safari/537.36",xpyriment,legacy,legacy,0,uniform,0,0,0,0,24,24,24,0,0,67,67,67,67,67,0,67,0,,,,,,0,,26-02-22,26-02-22,14:03:18,Sat Mar 26 2022 14:03:18 GMT+0100 (közép-európai téli idő),The main experiment item,yes,0,0,C:/Users/rrics/Documents/!!ResearchBMECOGSCI/gnet,0,0,0,prototype2.png,no,mono,no,18,no,black,no,no,768,1209,3.5.6,legacy,xpyriment,osweb,1.3.13,0,space,space,space,,33034,4561,33034,,2,legacy,680,1280,24,720,24,0,0,1280,1648299841132,1024,2,48000,-16,experiment,p1sarr2.png,1,odd,Win32,184,116588,113582,184,184,593344,594861,588346,118116,588346,184,,,,,,visual_patterns,0,0,0,yes,1366
undefined,undefined,undefined,undefined,white,no,Mozilla,Netscape,"5.0 (Windows NT 10.0; Win64; x64) AppleWebKit/537.36 (KHTML, like Gecko) Chrome/99.0.4844.82 Safari/537.36",xpyriment,legacy,legacy,0,uniform,0,0,0,0,24,24,24,0,0,68,68,68,68,68,0,68,0,,,,,,0,,26-02-22,26-02-22,14:03:18,Sat Mar 26 2022 14:03:18 GMT+0100 (közép-európai téli idő),The main experiment item,yes,0,0,C:/Users/rrics/Documents/!!ResearchBMECOGSCI/gnet,0,0,0,prototype2.png,no,mono,no,18,no,black,no,no,768,1209,3.5.6,legacy,xpyriment,osweb,1.3.13,0,space,space,space,,33034,4561,33034,,2,legacy,680,1280,24,720,24,0,0,1280,1648299841132,1024,2,48000,-16,experiment,p6sarr2.png,1,odd,Win32,184,116588,113582,184,184,599880,601385,594874,118116,594874,184,,,,,,visual_patterns,0,0,0,yes,1366
undefined,undefined,undefined,undefined,white,no,Mozilla,Netscape,"5.0 (Windows NT 10.0; Win64; x64) AppleWebKit/537.36 (KHTML, like Gecko) Chrome/99.0.4844.82 Safari/537.36",xpyriment,legacy,legacy,0,uniform,0,0,0,0,24,24,24,0,0,69,69,69,69,69,0,69,0,,,,,,0,,26-02-22,26-02-22,14:03:18,Sat Mar 26 2022 14:03:18 GMT+0100 (közép-európai téli idő),The main experiment item,yes,0,0,C:/Users/rrics/Documents/!!ResearchBMECOGSCI/gnet,0,0,0,prototype2.png,no,mono,no,18,no,black,no,no,768,1209,3.5.6,legacy,xpyriment,osweb,1.3.13,0,space,space,space,,33034,4561,33034,,2,legacy,680,1280,24,720,24,0,0,1280,1648299841132,1024,2,48000,-16,experiment,prototype2.png,1,odd,Win32,184,116588,113582,184,184,606397,607904,601393,118116,601393,184,,,,,,visual_patterns,0,0,0,yes,1366
undefined,undefined,undefined,undefined,white,no,Mozilla,Netscape,"5.0 (Windows NT 10.0; Win64; x64) AppleWebKit/537.36 (KHTML, like Gecko) Chrome/99.0.4844.82 Safari/537.36",xpyriment,legacy,legacy,0,uniform,0,0,0,0,24,24,24,0,0,70,70,70,70,70,0,70,0,,,,,,0,,26-02-22,26-02-22,14:03:18,Sat Mar 26 2022 14:03:18 GMT+0100 (közép-európai téli idő),The main experiment item,yes,0,0,C:/Users/rrics/Documents/!!ResearchBMECOGSCI/gnet,0,0,0,prototype2.png,no,mono,no,18,no,black,no,no,768,1209,3.5.6,legacy,xpyriment,osweb,1.3.13,0,space,space,space,,33034,4561,33034,,2,legacy,680,1280,24,720,24,0,0,1280,1648299841132,1024,2,48000,-16,experiment,p1sarrshacol1.png,1,odd,Win32,184,116588,113582,184,184,612916,614422,607918,118116,607918,184,,,,,,visual_patterns,0,0,0,yes,1366
undefined,undefined,undefined,undefined,white,no,Mozilla,Netscape,"5.0 (Windows NT 10.0; Win64; x64) AppleWebKit/537.36 (KHTML, like Gecko) Chrome/99.0.4844.82 Safari/537.36",xpyriment,legacy,legacy,0,uniform,0,0,0,0,24,24,24,0,0,71,71,71,71,71,0,71,0,,,,,,0,,26-02-22,26-02-22,14:03:18,Sat Mar 26 2022 14:03:18 GMT+0100 (közép-európai téli idő),The main experiment item,yes,0,0,C:/Users/rrics/Documents/!!ResearchBMECOGSCI/gnet,0,0,0,prototype2.png,no,mono,no,18,no,black,no,no,768,1209,3.5.6,legacy,xpyriment,osweb,1.3.13,0,space,space,space,,33034,4561,33034,,2,legacy,680,1280,24,720,24,0,0,1280,1648299841132,1024,2,48000,-16,experiment,prototype1.png,1,odd,Win32,184,116588,113582,184,184,619436,620941,614431,118116,614431,184,,,,,,visual_patterns,0,0,0,yes,1366
undefined,undefined,undefined,undefined,white,no,Mozilla,Netscape,"5.0 (Windows NT 10.0; Win64; x64) AppleWebKit/537.36 (KHTML, like Gecko) Chrome/99.0.4844.82 Safari/537.36",xpyriment,legacy,legacy,0,uniform,0,0,0,0,24,24,24,0,0,72,72,72,72,72,0,72,0,,,,,,0,,26-02-22,26-02-22,14:03:18,Sat Mar 26 2022 14:03:18 GMT+0100 (közép-európai téli idő),The main experiment item,yes,0,0,C:/Users/rrics/Documents/!!ResearchBMECOGSCI/gnet,0,0,0,prototype2.png,no,mono,no,18,no,black,no,no,768,1209,3.5.6,legacy,xpyriment,osweb,1.3.13,0,space,space,space,,33034,4561,33034,,2,legacy,680,1280,24,720,24,0,0,1280,1648299841132,1024,2,48000,-16,experiment,prototype5.png,1,odd,Win32,184,116588,113582,184,184,625953,627459,620952,118116,620951,184,,,,,,visual_patterns,0,0,0,yes,1366
undefined,undefined,undefined,undefined,white,no,Mozilla,Netscape,"5.0 (Windows NT 10.0; Win64; x64) AppleWebKit/537.36 (KHTML, like Gecko) Chrome/99.0.4844.82 Safari/537.36",xpyriment,legacy,legacy,0,uniform,0,0,0,0,24,24,24,0,0,73,73,73,73,73,0,73,0,,,,,,0,,26-02-22,26-02-22,14:03:18,Sat Mar 26 2022 14:03:18 GMT+0100 (közép-európai téli idő),The main experiment item,yes,0,0,C:/Users/rrics/Documents/!!ResearchBMECOGSCI/gnet,0,0,0,prototype2.png,no,mono,no,18,no,black,no,no,768,1209,3.5.6,legacy,xpyriment,osweb,1.3.13,0,space,space,space,,33034,4561,33034,,2,legacy,680,1280,24,720,24,0,0,1280,1648299841132,1024,2,48000,-16,experiment,prototype3.png,1,odd,Win32,184,116588,113582,184,184,632471,633977,627470,118116,627470,184,,,,,,visual_patterns,0,0,0,yes,1366
undefined,undefined,undefined,undefined,white,no,Mozilla,Netscape,"5.0 (Windows NT 10.0; Win64; x64) AppleWebKit/537.36 (KHTML, like Gecko) Chrome/99.0.4844.82 Safari/537.36",xpyriment,legacy,legacy,0,uniform,0,0,0,0,24,24,24,0,0,74,74,74,74,74,0,74,0,,,,,,0,,26-02-22,26-02-22,14:03:18,Sat Mar 26 2022 14:03:18 GMT+0100 (közép-európai téli idő),The main experiment item,yes,0,0,C:/Users/rrics/Documents/!!ResearchBMECOGSCI/gnet,0,0,0,prototype2.png,no,mono,no,18,no,black,no,no,768,1209,3.5.6,legacy,xpyriment,osweb,1.3.13,0,space,space,space,,33034,4561,33034,,2,legacy,680,1280,24,720,24,0,0,1280,1648299841132,1024,2,48000,-16,experiment,prototype2.png,1,odd,Win32,184,116588,113582,184,184,638990,640496,633987,118116,633987,184,,,,,,visual_patterns,0,0,0,yes,1366
undefined,undefined,undefined,undefined,white,no,Mozilla,Netscape,"5.0 (Windows NT 10.0; Win64; x64) AppleWebKit/537.36 (KHTML, like Gecko) Chrome/99.0.4844.82 Safari/537.36",xpyriment,legacy,legacy,0,uniform,0,0,0,0,24,24,24,0,0,74,74,74,74,74,0,74,0,0,0,0,0,0,0,0,26-02-22,26-02-22,14:03:18,Sat Mar 26 2022 14:03:18 GMT+0100 (közép-európai téli idő),The main experiment item,yes,0,0,C:/Users/rrics/Documents/!!ResearchBMECOGSCI/gnet,0,0,0,prototype2.png,no,mono,no,18,no,black,no,no,768,1209,3.5.6,legacy,xpyriment,osweb,1.3.13,0,space,space,space,space,13065,4561,33034,13065,2,legacy,680,1280,24,720,24,0,0,1280,1648299841132,1024,2,48000,-16,experiment,p5sarrsha3.png,1,odd,Win32,184,116588,113582,184,184,638990,640496,633987,118116,633987,184,656613,658117,653618,640502,653618,visual_patterns,0,0,0,yes,1366
undefined,undefined,undefined,undefined,white,no,Mozilla,Netscape,"5.0 (Windows NT 10.0; Win64; x64) AppleWebKit/537.36 (KHTML, like Gecko) Chrome/99.0.4844.82 Safari/537.36",xpyriment,legacy,legacy,0,uniform,0,0,0,0,24,24,24,0,0,74,74,74,74,74,0,74,0,1,1,1,1,1,0,1,26-02-22,26-02-22,14:03:18,Sat Mar 26 2022 14:03:18 GMT+0100 (közép-európai téli idő),The main experiment item,yes,0,0,C:/Users/rrics/Documents/!!ResearchBMECOGSCI/gnet,0,0,0,prototype2.png,no,mono,no,18,no,black,no,no,768,1209,3.5.6,legacy,xpyriment,osweb,1.3.13,0,space,space,space,space,13065,4561,33034,13065,2,legacy,680,1280,24,720,24,0,0,1280,1648299841132,1024,2,48000,-16,experiment,p2sarrshacol1.png,1,odd,Win32,184,116588,113582,184,184,638990,640496,633987,118116,633987,184,661152,662669,658152,640502,658152,visual_patterns,0,0,0,yes,1366
undefined,undefined,undefined,undefined,white,no,Mozilla,Netscape,"5.0 (Windows NT 10.0; Win64; x64) AppleWebKit/537.36 (KHTML, like Gecko) Chrome/99.0.4844.82 Safari/537.36",xpyriment,legacy,legacy,0,uniform,0,0,0,0,24,24,24,0,0,74,74,74,74,74,0,74,0,2,2,2,2,2,0,2,26-02-22,26-02-22,14:03:18,Sat Mar 26 2022 14:03:18 GMT+0100 (közép-európai téli idő),The main experiment item,yes,0,0,C:/Users/rrics/Documents/!!ResearchBMECOGSCI/gnet,0,0,0,prototype2.png,no,mono,no,18,no,black,no,no,768,1209,3.5.6,legacy,xpyriment,osweb,1.3.13,0,space,space,space,space,13065,4561,33034,13065,2,legacy,680,1280,24,720,24,0,0,1280,1648299841132,1024,2,48000,-16,experiment,p4sarr4.png,1,odd,Win32,184,116588,113582,184,184,638990,640496,633987,118116,633987,184,665686,667203,662686,640502,662686,visual_patterns,0,0,0,yes,1366
undefined,undefined,undefined,undefined,white,no,Mozilla,Netscape,"5.0 (Windows NT 10.0; Win64; x64) AppleWebKit/537.36 (KHTML, like Gecko) Chrome/99.0.4844.82 Safari/537.36",xpyriment,legacy,legacy,0,uniform,0,0,0,0,24,24,24,0,0,74,74,74,74,74,0,74,0,3,3,3,3,3,0,3,26-02-22,26-02-22,14:03:18,Sat Mar 26 2022 14:03:18 GMT+0100 (közép-európai téli idő),The main experiment item,yes,0,0,C:/Users/rrics/Documents/!!ResearchBMECOGSCI/gnet,0,0,0,prototype2.png,no,mono,no,18,no,black,no,no,768,1209,3.5.6,legacy,xpyriment,osweb,1.3.13,0,space,space,space,space,13065,4561,33034,13065,2,legacy,680,1280,24,720,24,0,0,1280,1648299841132,1024,2,48000,-16,experiment,p5sarrsha2.png,1,odd,Win32,184,116588,113582,184,184,638990,640496,633987,118116,633987,184,670216,671721,667215,640502,667215,visual_patterns,0,0,0,yes,1366
undefined,undefined,undefined,undefined,white,no,Mozilla,Netscape,"5.0 (Windows NT 10.0; Win64; x64) AppleWebKit/537.36 (KHTML, like Gecko) Chrome/99.0.4844.82 Safari/537.36",xpyriment,legacy,legacy,0,uniform,0,0,0,0,24,24,24,0,0,74,74,74,74,74,0,74,0,4,4,4,4,4,0,4,26-02-22,26-02-22,14:03:18,Sat Mar 26 2022 14:03:18 GMT+0100 (közép-európai téli idő),The main experiment item,yes,0,0,C:/Users/rrics/Documents/!!ResearchBMECOGSCI/gnet,0,0,0,prototype2.png,no,mono,no,18,no,black,no,no,768,1209,3.5.6,legacy,xpyriment,osweb,1.3.13,0,space,space,space,space,13065,4561,33034,13065,2,legacy,680,1280,24,720,24,0,0,1280,1648299841132,1024,2,48000,-16,experiment,p7sarr2.png,1,odd,Win32,184,116588,113582,184,184,638990,640496,633987,118116,633987,184,674734,676239,671733,640502,671733,visual_patterns,0,0,0,yes,1366
undefined,undefined,undefined,undefined,white,no,Mozilla,Netscape,"5.0 (Windows NT 10.0; Win64; x64) AppleWebKit/537.36 (KHTML, like Gecko) Chrome/99.0.4844.82 Safari/537.36",xpyriment,legacy,legacy,0,uniform,0,0,0,0,24,24,24,0,0,74,74,74,74,74,0,74,0,5,5,5,5,5,0,5,26-02-22,26-02-22,14:03:18,Sat Mar 26 2022 14:03:18 GMT+0100 (közép-európai téli idő),The main experiment item,yes,0,0,C:/Users/rrics/Documents/!!ResearchBMECOGSCI/gnet,0,0,0,prototype2.png,no,mono,no,18,no,black,no,no,768,1209,3.5.6,legacy,xpyriment,osweb,1.3.13,0,space,space,space,space,13065,4561,33034,13065,2,legacy,680,1280,24,720,24,0,0,1280,1648299841132,1024,2,48000,-16,experiment,p1sarrsha4.png,1,odd,Win32,184,116588,113582,184,184,638990,640496,633987,118116,633987,184,679257,680773,676255,640502,676254,visual_patterns,0,0,0,yes,1366
undefined,undefined,undefined,undefined,white,no,Mozilla,Netscape,"5.0 (Windows NT 10.0; Win64; x64) AppleWebKit/537.36 (KHTML, like Gecko) Chrome/99.0.4844.82 Safari/537.36",xpyriment,legacy,legacy,0,uniform,0,0,0,0,24,24,24,0,0,74,74,74,74,74,0,74,0,6,6,6,6,6,0,6,26-02-22,26-02-22,14:03:18,Sat Mar 26 2022 14:03:18 GMT+0100 (közép-európai téli idő),The main experiment item,yes,0,0,C:/Users/rrics/Documents/!!ResearchBMECOGSCI/gnet,0,0,0,prototype2.png,no,mono,no,18,no,black,no,no,768,1209,3.5.6,legacy,xpyriment,osweb,1.3.13,0,space,space,space,space,13065,4561,33034,13065,2,legacy,680,1280,24,720,24,0,0,1280,1648299841132,1024,2,48000,-16,experiment,p3sarrcol2.png,1,odd,Win32,184,116588,113582,184,184,638990,640496,633987,118116,633987,184,683808,685324,680803,640502,680803,visual_patterns,0,0,0,yes,1366
undefined,undefined,undefined,undefined,white,no,Mozilla,Netscape,"5.0 (Windows NT 10.0; Win64; x64) AppleWebKit/537.36 (KHTML, like Gecko) Chrome/99.0.4844.82 Safari/537.36",xpyriment,legacy,legacy,0,uniform,0,0,0,0,24,24,24,0,0,74,74,74,74,74,0,74,0,7,7,7,7,7,0,7,26-02-22,26-02-22,14:03:18,Sat Mar 26 2022 14:03:18 GMT+0100 (közép-európai téli idő),The main experiment item,yes,0,0,C:/Users/rrics/Documents/!!ResearchBMECOGSCI/gnet,0,0,0,prototype2.png,no,mono,no,18,no,black,no,no,768,1209,3.5.6,legacy,xpyriment,osweb,1.3.13,0,space,space,space,space,13065,4561,33034,13065,2,legacy,680,1280,24,720,24,0,0,1280,1648299841132,1024,2,48000,-16,experiment,p3sarrcol3.png,1,odd,Win32,184,116588,113582,184,184,638990,640496,633987,118116,633987,184,688342,689843,685342,640502,685342,visual_patterns,0,0,0,yes,1366
undefined,undefined,undefined,undefined,white,no,Mozilla,Netscape,"5.0 (Windows NT 10.0; Win64; x64) AppleWebKit/537.36 (KHTML, like Gecko) Chrome/99.0.4844.82 Safari/537.36",xpyriment,legacy,legacy,0,uniform,0,0,0,0,24,24,24,0,0,74,74,74,74,74,0,74,0,8,8,8,8,8,0,8,26-02-22,26-02-22,14:03:18,Sat Mar 26 2022 14:03:18 GMT+0100 (közép-európai téli idő),The main experiment item,yes,0,0,C:/Users/rrics/Documents/!!ResearchBMECOGSCI/gnet,0,0,0,prototype2.png,no,mono,no,18,no,black,no,no,768,1209,3.5.6,legacy,xpyriment,osweb,1.3.13,0,space,space,space,space,13065,4561,33034,13065,2,legacy,680,1280,24,720,24,0,0,1280,1648299841132,1024,2,48000,-16,experiment,p1sarrsha1.png,1,odd,Win32,184,116588,113582,184,184,638990,640496,633987,118116,633987,184,692860,694377,689857,640502,689857,visual_patterns,0,0,0,yes,1366
undefined,undefined,undefined,undefined,white,no,Mozilla,Netscape,"5.0 (Windows NT 10.0; Win64; x64) AppleWebKit/537.36 (KHTML, like Gecko) Chrome/99.0.4844.82 Safari/537.36",xpyriment,legacy,legacy,0,uniform,0,0,0,0,24,24,24,0,0,74,74,74,74,74,0,74,0,9,9,9,9,9,0,9,26-02-22,26-02-22,14:03:18,Sat Mar 26 2022 14:03:18 GMT+0100 (közép-európai téli idő),The main experiment item,yes,0,0,C:/Users/rrics/Documents/!!ResearchBMECOGSCI/gnet,0,0,0,prototype2.png,no,mono,no,18,no,black,no,no,768,1209,3.5.6,legacy,xpyriment,osweb,1.3.13,0,space,space,space,space,13065,4561,33034,13065,2,legacy,680,1280,24,720,24,0,0,1280,1648299841132,1024,2,48000,-16,experiment,p4sarr1.png,1,odd,Win32,184,116588,113582,184,184,638990,640496,633987,118116,633987,184,697395,698912,694390,640502,694390,visual_patterns,0,0,0,yes,1366
undefined,undefined,undefined,undefined,white,no,Mozilla,Netscape,"5.0 (Windows NT 10.0; Win64; x64) AppleWebKit/537.36 (KHTML, like Gecko) Chrome/99.0.4844.82 Safari/537.36",xpyriment,legacy,legacy,0,uniform,0,0,0,0,24,24,24,0,0,74,74,74,74,74,0,74,0,10,10,10,10,10,0,10,26-02-22,26-02-22,14:03:18,Sat Mar 26 2022 14:03:18 GMT+0100 (közép-európai téli idő),The main experiment item,yes,0,0,C:/Users/rrics/Documents/!!ResearchBMECOGSCI/gnet,0,0,0,prototype2.png,no,mono,no,18,no,black,no,no,768,1209,3.5.6,legacy,xpyriment,osweb,1.3.13,0,space,space,space,space,13065,4561,33034,13065,2,legacy,680,1280,24,720,24,0,0,1280,1648299841132,1024,2,48000,-16,experiment,p9sarr2.png,1,odd,Win32,184,116588,113582,184,184,638990,640496,633987,118116,633987,184,701931,703447,698930,640502,698930,visual_patterns,0,0,0,yes,1366
undefined,undefined,undefined,undefined,white,no,Mozilla,Netscape,"5.0 (Windows NT 10.0; Win64; x64) AppleWebKit/537.36 (KHTML, like Gecko) Chrome/99.0.4844.82 Safari/537.36",xpyriment,legacy,legacy,0,uniform,0,0,0,0,24,24,24,0,0,74,74,74,74,74,0,74,0,11,11,11,11,11,0,11,26-02-22,26-02-22,14:03:18,Sat Mar 26 2022 14:03:18 GMT+0100 (közép-európai téli idő),The main experiment item,yes,0,0,C:/Users/rrics/Documents/!!ResearchBMECOGSCI/gnet,0,0,0,prototype2.png,no,mono,no,18,no,black,no,no,768,1209,3.5.6,legacy,xpyriment,osweb,1.3.13,0,space,space,space,space,13065,4561,33034,13065,2,legacy,680,1280,24,720,24,0,0,1280,1648299841132,1024,2,48000,-16,experiment,p1sarr2.png,1,odd,Win32,184,116588,113582,184,184,638990,640496,633987,118116,633987,184,706492,707998,703484,640502,703484,visual_patterns,0,0,0,yes,1366
undefined,undefined,undefined,undefined,white,no,Mozilla,Netscape,"5.0 (Windows NT 10.0; Win64; x64) AppleWebKit/537.36 (KHTML, like Gecko) Chrome/99.0.4844.82 Safari/537.36",xpyriment,legacy,legacy,0,uniform,0,0,0,0,24,24,24,0,0,74,74,74,74,74,0,74,0,12,12,12,12,12,0,12,26-02-22,26-02-22,14:03:18,Sat Mar 26 2022 14:03:18 GMT+0100 (közép-európai téli idő),The main experiment item,yes,0,0,C:/Users/rrics/Documents/!!ResearchBMECOGSCI/gnet,0,0,0,prototype2.png,no,mono,no,18,no,black,no,no,768,1209,3.5.6,legacy,xpyriment,osweb,1.3.13,0,space,space,space,space,13065,4561,33034,13065,2,legacy,680,1280,24,720,24,0,0,1280,1648299841132,1024,2,48000,-16,experiment,p3sarrcol4.png,1,odd,Win32,184,116588,113582,184,184,638990,640496,633987,118116,633987,184,711009,712515,708014,640502,708014,visual_patterns,0,0,0,yes,1366
undefined,undefined,undefined,undefined,white,no,Mozilla,Netscape,"5.0 (Windows NT 10.0; Win64; x64) AppleWebKit/537.36 (KHTML, like Gecko) Chrome/99.0.4844.82 Safari/537.36",xpyriment,legacy,legacy,0,uniform,0,0,0,0,24,24,24,0,0,74,74,74,74,74,0,74,0,13,13,13,13,13,0,13,26-02-22,26-02-22,14:03:18,Sat Mar 26 2022 14:03:18 GMT+0100 (közép-európai téli idő),The main experiment item,yes,0,0,C:/Users/rrics/Documents/!!ResearchBMECOGSCI/gnet,0,0,0,prototype2.png,no,mono,no,18,no,black,no,no,768,1209,3.5.6,legacy,xpyriment,osweb,1.3.13,0,space,space,space,space,13065,4561,33034,13065,2,legacy,680,1280,24,720,24,0,0,1280,1648299841132,1024,2,48000,-16,experiment,p2sarrshacol2.png,1,odd,Win32,184,116588,113582,184,184,638990,640496,633987,118116,633987,184,715527,717033,712527,640502,712527,visual_patterns,0,0,0,yes,1366
undefined,undefined,undefined,undefined,white,no,Mozilla,Netscape,"5.0 (Windows NT 10.0; Win64; x64) AppleWebKit/537.36 (KHTML, like Gecko) Chrome/99.0.4844.82 Safari/537.36",xpyriment,legacy,legacy,0,uniform,0,0,0,0,24,24,24,0,0,74,74,74,74,74,0,74,0,14,14,14,14,14,0,14,26-02-22,26-02-22,14:03:18,Sat Mar 26 2022 14:03:18 GMT+0100 (közép-európai téli idő),The main experiment item,yes,0,0,C:/Users/rrics/Documents/!!ResearchBMECOGSCI/gnet,0,0,0,prototype2.png,no,mono,no,18,no,black,no,no,768,1209,3.5.6,legacy,xpyriment,osweb,1.3.13,0,space,space,space,space,13065,4561,33034,13065,2,legacy,680,1280,24,720,24,0,0,1280,1648299841132,1024,2,48000,-16,experiment,p6sarr1.png,1,odd,Win32,184,116588,113582,184,184,638990,640496,633987,118116,633987,184,720045,721551,717050,640502,717050,visual_patterns,0,0,0,yes,1366
undefined,undefined,undefined,undefined,white,no,Mozilla,Netscape,"5.0 (Windows NT 10.0; Win64; x64) AppleWebKit/537.36 (KHTML, like Gecko) Chrome/99.0.4844.82 Safari/537.36",xpyriment,legacy,legacy,0,uniform,0,0,0,0,24,24,24,0,0,74,74,74,74,74,0,74,0,15,15,15,15,15,0,15,26-02-22,26-02-22,14:03:18,Sat Mar 26 2022 14:03:18 GMT+0100 (közép-európai téli idő),The main experiment item,yes,0,0,C:/Users/rrics/Documents/!!ResearchBMECOGSCI/gnet,0,0,0,prototype2.png,no,mono,no,18,no,black,no,no,768,1209,3.5.6,legacy,xpyriment,osweb,1.3.13,0,space,space,space,space,13065,4561,33034,13065,2,legacy,680,1280,24,720,24,0,0,1280,1648299841132,1024,2,48000,-16,experiment,p4sarrshacol3.png,1,odd,Win32,184,116588,113582,184,184,638990,640496,633987,118116,633987,184,724564,726069,721567,640502,721567,visual_patterns,0,0,0,yes,1366
undefined,undefined,undefined,undefined,white,no,Mozilla,Netscape,"5.0 (Windows NT 10.0; Win64; x64) AppleWebKit/537.36 (KHTML, like Gecko) Chrome/99.0.4844.82 Safari/537.36",xpyriment,legacy,legacy,0,uniform,0,0,0,0,24,24,24,0,0,74,74,74,74,74,0,74,0,16,16,16,16,16,0,16,26-02-22,26-02-22,14:03:18,Sat Mar 26 2022 14:03:18 GMT+0100 (közép-európai téli idő),The main experiment item,yes,0,0,C:/Users/rrics/Documents/!!ResearchBMECOGSCI/gnet,0,0,0,prototype2.png,no,mono,no,18,no,black,no,no,768,1209,3.5.6,legacy,xpyriment,osweb,1.3.13,0,space,space,space,space,13065,4561,33034,13065,2,legacy,680,1280,24,720,24,0,0,1280,1648299841132,1024,2,48000,-16,experiment,p4sarrshacol4.png,1,odd,Win32,184,116588,113582,184,184,638990,640496,633987,118116,633987,184,729114,730632,726111,640502,726111,visual_patterns,0,0,0,yes,1366
undefined,undefined,undefined,undefined,white,no,Mozilla,Netscape,"5.0 (Windows NT 10.0; Win64; x64) AppleWebKit/537.36 (KHTML, like Gecko) Chrome/99.0.4844.82 Safari/537.36",xpyriment,legacy,legacy,0,uniform,0,0,0,0,24,24,24,0,0,74,74,74,74,74,0,74,0,17,17,17,17,17,0,17,26-02-22,26-02-22,14:03:18,Sat Mar 26 2022 14:03:18 GMT+0100 (közép-európai téli idő),The main experiment item,yes,0,0,C:/Users/rrics/Documents/!!ResearchBMECOGSCI/gnet,0,0,0,prototype2.png,no,mono,no,18,no,black,no,no,768,1209,3.5.6,legacy,xpyriment,osweb,1.3.13,0,space,space,space,space,13065,4561,33034,13065,2,legacy,680,1280,24,720,24,0,0,1280,1648299841132,1024,2,48000,-16,experiment,p2sarrcol1.png,1,odd,Win32,184,116588,113582,184,184,638990,640496,633987,118116,633987,184,733649,735155,730644,640502,730644,visual_patterns,0,0,0,yes,1366
undefined,undefined,undefined,undefined,white,no,Mozilla,Netscape,"5.0 (Windows NT 10.0; Win64; x64) AppleWebKit/537.36 (KHTML, like Gecko) Chrome/99.0.4844.82 Safari/537.36",xpyriment,legacy,legacy,0,uniform,0,0,0,0,24,24,24,0,0,74,74,74,74,74,0,74,0,18,18,18,18,18,0,18,26-02-22,26-02-22,14:03:18,Sat Mar 26 2022 14:03:18 GMT+0100 (közép-európai téli idő),The main experiment item,yes,0,0,C:/Users/rrics/Documents/!!ResearchBMECOGSCI/gnet,0,0,0,prototype2.png,no,mono,no,18,no,black,no,no,768,1209,3.5.6,legacy,xpyriment,osweb,1.3.13,0,space,space,space,space,13065,4561,33034,13065,2,legacy,680,1280,24,720,24,0,0,1280,1648299841132,1024,2,48000,-16,experiment,p1sarr4.png,1,odd,Win32,184,116588,113582,184,184,638990,640496,633987,118116,633987,184,738167,739673,735170,640502,735170,visual_patterns,0,0,0,yes,1366
undefined,undefined,undefined,undefined,white,no,Mozilla,Netscape,"5.0 (Windows NT 10.0; Win64; x64) AppleWebKit/537.36 (KHTML, like Gecko) Chrome/99.0.4844.82 Safari/537.36",xpyriment,legacy,legacy,0,uniform,0,0,0,0,24,24,24,0,0,74,74,74,74,74,0,74,0,19,19,19,19,19,0,19,26-02-22,26-02-22,14:03:18,Sat Mar 26 2022 14:03:18 GMT+0100 (közép-európai téli idő),The main experiment item,yes,0,0,C:/Users/rrics/Documents/!!ResearchBMECOGSCI/gnet,0,0,0,prototype2.png,no,mono,no,18,no,black,no,no,768,1209,3.5.6,legacy,xpyriment,osweb,1.3.13,0,space,space,space,space,13065,4561,33034,13065,2,legacy,680,1280,24,720,24,0,0,1280,1648299841132,1024,2,48000,-16,experiment,p10sarr1.png,1,odd,Win32,184,116588,113582,184,184,638990,640496,633987,118116,633987,184,742685,744199,739686,640502,739685,visual_patterns,0,0,0,yes,1366
undefined,undefined,undefined,undefined,white,no,Mozilla,Netscape,"5.0 (Windows NT 10.0; Win64; x64) AppleWebKit/537.36 (KHTML, like Gecko) Chrome/99.0.4844.82 Safari/537.36",xpyriment,legacy,legacy,0,uniform,0,0,0,0,24,24,24,0,0,74,74,74,74,74,0,74,0,20,20,20,20,20,0,20,26-02-22,26-02-22,14:03:18,Sat Mar 26 2022 14:03:18 GMT+0100 (közép-európai téli idő),The main experiment item,yes,0,0,C:/Users/rrics/Documents/!!ResearchBMECOGSCI/gnet,0,0,0,prototype2.png,no,mono,no,18,no,black,no,no,768,1209,3.5.6,legacy,xpyriment,osweb,1.3.13,0,space,space,space,space,13065,4561,33034,13065,2,legacy,680,1280,24,720,24,0,0,1280,1648299841132,1024,2,48000,-16,experiment,p8sarr3.png,1,odd,Win32,184,116588,113582,184,184,638990,640496,633987,118116,633987,184,747209,748725,744210,640502,744210,visual_patterns,0,0,0,yes,1366
undefined,undefined,undefined,undefined,white,no,Mozilla,Netscape,"5.0 (Windows NT 10.0; Win64; x64) AppleWebKit/537.36 (KHTML, like Gecko) Chrome/99.0.4844.82 Safari/537.36",xpyriment,legacy,legacy,0,uniform,0,0,0,0,24,24,24,0,0,74,74,74,74,74,0,74,0,21,21,21,21,21,0,21,26-02-22,26-02-22,14:03:18,Sat Mar 26 2022 14:03:18 GMT+0100 (közép-európai téli idő),The main experiment item,yes,0,0,C:/Users/rrics/Documents/!!ResearchBMECOGSCI/gnet,0,0,0,prototype2.png,no,mono,no,18,no,black,no,no,768,1209,3.5.6,legacy,xpyriment,osweb,1.3.13,0,space,space,space,space,13065,4561,33034,13065,2,legacy,680,1280,24,720,24,0,0,1280,1648299841132,1024,2,48000,-16,experiment,p9sarr4.png,1,odd,Win32,184,116588,113582,184,184,638990,640496,633987,118116,633987,184,751758,753260,748763,640502,748763,visual_patterns,0,0,0,yes,1366
undefined,undefined,undefined,undefined,white,no,Mozilla,Netscape,"5.0 (Windows NT 10.0; Win64; x64) AppleWebKit/537.36 (KHTML, like Gecko) Chrome/99.0.4844.82 Safari/537.36",xpyriment,legacy,legacy,0,uniform,0,0,0,0,24,24,24,0,0,74,74,74,74,74,0,74,0,22,22,22,22,22,0,22,26-02-22,26-02-22,14:03:18,Sat Mar 26 2022 14:03:18 GMT+0100 (közép-európai téli idő),The main experiment item,yes,0,0,C:/Users/rrics/Documents/!!ResearchBMECOGSCI/gnet,0,0,0,prototype2.png,no,mono,no,18,no,black,no,no,768,1209,3.5.6,legacy,xpyriment,osweb,1.3.13,0,space,space,space,space,13065,4561,33034,13065,2,legacy,680,1280,24,720,24,0,0,1280,1648299841132,1024,2,48000,-16,experiment,p5sarrcol2.png,1,odd,Win32,184,116588,113582,184,184,638990,640496,633987,118116,633987,184,756278,757780,753272,640502,753272,visual_patterns,0,0,0,yes,1366
undefined,undefined,undefined,undefined,white,no,Mozilla,Netscape,"5.0 (Windows NT 10.0; Win64; x64) AppleWebKit/537.36 (KHTML, like Gecko) Chrome/99.0.4844.82 Safari/537.36",xpyriment,legacy,legacy,0,uniform,0,0,0,0,24,24,24,0,0,74,74,74,74,74,0,74,0,23,23,23,23,23,0,23,26-02-22,26-02-22,14:03:18,Sat Mar 26 2022 14:03:18 GMT+0100 (közép-európai téli idő),The main experiment item,yes,0,0,C:/Users/rrics/Documents/!!ResearchBMECOGSCI/gnet,0,0,0,prototype2.png,no,mono,no,18,no,black,no,no,768,1209,3.5.6,legacy,xpyriment,osweb,1.3.13,0,space,space,space,space,13065,4561,33034,13065,2,legacy,680,1280,24,720,24,0,0,1280,1648299841132,1024,2,48000,-16,experiment,p7sarr4.png,1,odd,Win32,184,116588,113582,184,184,638990,640496,633987,118116,633987,184,760796,762312,757794,640502,757794,visual_patterns,0,0,0,yes,1366
undefined,undefined,undefined,undefined,white,no,Mozilla,Netscape,"5.0 (Windows NT 10.0; Win64; x64) AppleWebKit/537.36 (KHTML, like Gecko) Chrome/99.0.4844.82 Safari/537.36",xpyriment,legacy,legacy,0,uniform,0,0,0,0,24,24,24,0,0,74,74,74,74,74,0,74,0,24,24,24,24,24,0,24,26-02-22,26-02-22,14:03:18,Sat Mar 26 2022 14:03:18 GMT+0100 (közép-európai téli idő),The main experiment item,yes,0,0,C:/Users/rrics/Documents/!!ResearchBMECOGSCI/gnet,0,0,0,prototype2.png,no,mono,no,18,no,black,no,no,768,1209,3.5.6,legacy,xpyriment,osweb,1.3.13,0,space,space,space,space,13065,4561,33034,13065,2,legacy,680,1280,24,720,24,0,0,1280,1648299841132,1024,2,48000,-16,experiment,p3sarrsha3.png,1,odd,Win32,184,116588,113582,184,184,638990,640496,633987,118116,633987,184,765326,766830,762329,640502,762329,visual_patterns,0,0,0,yes,1366
undefined,undefined,undefined,undefined,white,no,Mozilla,Netscape,"5.0 (Windows NT 10.0; Win64; x64) AppleWebKit/537.36 (KHTML, like Gecko) Chrome/99.0.4844.82 Safari/537.36",xpyriment,legacy,legacy,0,uniform,0,0,0,0,24,24,24,0,0,74,74,74,74,74,0,74,0,25,25,25,25,25,0,25,26-02-22,26-02-22,14:03:18,Sat Mar 26 2022 14:03:18 GMT+0100 (közép-európai téli idő),The main experiment item,yes,0,0,C:/Users/rrics/Documents/!!ResearchBMECOGSCI/gnet,0,0,0,prototype2.png,no,mono,no,18,no,black,no,no,768,1209,3.5.6,legacy,xpyriment,osweb,1.3.13,0,space,space,space,space,13065,4561,33034,13065,2,legacy,680,1280,24,720,24,0,0,1280,1648299841132,1024,2,48000,-16,experiment,p8sarr4.png,1,odd,Win32,184,116588,113582,184,184,638990,640496,633987,118116,633987,184,769842,771348,766843,640502,766843,visual_patterns,0,0,0,yes,1366
undefined,undefined,undefined,undefined,white,no,Mozilla,Netscape,"5.0 (Windows NT 10.0; Win64; x64) AppleWebKit/537.36 (KHTML, like Gecko) Chrome/99.0.4844.82 Safari/537.36",xpyriment,legacy,legacy,0,uniform,0,0,0,0,24,24,24,0,0,74,74,74,74,74,0,74,0,26,26,26,26,26,0,26,26-02-22,26-02-22,14:03:18,Sat Mar 26 2022 14:03:18 GMT+0100 (közép-európai téli idő),The main experiment item,yes,0,0,C:/Users/rrics/Documents/!!ResearchBMECOGSCI/gnet,0,0,0,prototype2.png,no,mono,no,18,no,black,no,no,768,1209,3.5.6,legacy,xpyriment,osweb,1.3.13,0,space,space,space,space,13065,4561,33034,13065,2,legacy,680,1280,24,720,24,0,0,1280,1648299841132,1024,2,48000,-16,experiment,p2sarrshacol4.png,1,odd,Win32,184,116588,113582,184,184,638990,640496,633987,118116,633987,184,774383,775899,771385,640502,771385,visual_patterns,0,0,0,yes,1366
undefined,undefined,undefined,undefined,white,no,Mozilla,Netscape,"5.0 (Windows NT 10.0; Win64; x64) AppleWebKit/537.36 (KHTML, like Gecko) Chrome/99.0.4844.82 Safari/537.36",xpyriment,legacy,legacy,0,uniform,0,0,0,0,24,24,24,0,0,74,74,74,74,74,0,74,0,27,27,27,27,27,0,27,26-02-22,26-02-22,14:03:18,Sat Mar 26 2022 14:03:18 GMT+0100 (közép-európai téli idő),The main experiment item,yes,0,0,C:/Users/rrics/Documents/!!ResearchBMECOGSCI/gnet,0,0,0,prototype2.png,no,mono,no,18,no,black,no,no,768,1209,3.5.6,legacy,xpyriment,osweb,1.3.13,0,space,space,space,space,13065,4561,33034,13065,2,legacy,680,1280,24,720,24,0,0,1280,1648299841132,1024,2,48000,-16,experiment,p4sarrshacol1.png,1,odd,Win32,184,116588,113582,184,184,638990,640496,633987,118116,633987,184,778914,780417,775911,640502,775911,visual_patterns,0,0,0,yes,1366
undefined,undefined,undefined,undefined,white,no,Mozilla,Netscape,"5.0 (Windows NT 10.0; Win64; x64) AppleWebKit/537.36 (KHTML, like Gecko) Chrome/99.0.4844.82 Safari/537.36",xpyriment,legacy,legacy,0,uniform,0,0,0,0,24,24,24,0,0,74,74,74,74,74,0,74,0,28,28,28,28,28,0,28,26-02-22,26-02-22,14:03:18,Sat Mar 26 2022 14:03:18 GMT+0100 (közép-európai téli idő),The main experiment item,yes,0,0,C:/Users/rrics/Documents/!!ResearchBMECOGSCI/gnet,0,0,0,prototype2.png,no,mono,no,18,no,black,no,no,768,1209,3.5.6,legacy,xpyriment,osweb,1.3.13,0,space,space,space,space,13065,4561,33034,13065,2,legacy,680,1280,24,720,24,0,0,1280,1648299841132,1024,2,48000,-16,experiment,p1sarrshacol3.png,1,odd,Win32,184,116588,113582,184,184,638990,640496,633987,118116,633987,184,783429,784935,780433,640502,780433,visual_patterns,0,0,0,yes,1366
undefined,undefined,undefined,undefined,white,no,Mozilla,Netscape,"5.0 (Windows NT 10.0; Win64; x64) AppleWebKit/537.36 (KHTML, like Gecko) Chrome/99.0.4844.82 Safari/537.36",xpyriment,legacy,legacy,0,uniform,0,0,0,0,24,24,24,0,0,74,74,74,74,74,0,74,0,29,29,29,29,29,0,29,26-02-22,26-02-22,14:03:18,Sat Mar 26 2022 14:03:18 GMT+0100 (közép-európai téli idő),The main experiment item,yes,0,0,C:/Users/rrics/Documents/!!ResearchBMECOGSCI/gnet,0,0,0,prototype2.png,no,mono,no,18,no,black,no,no,768,1209,3.5.6,legacy,xpyriment,osweb,1.3.13,0,space,space,space,space,13065,4561,33034,13065,2,legacy,680,1280,24,720,24,0,0,1280,1648299841132,1024,2,48000,-16,experiment,p2sarrsha1.png,1,odd,Win32,184,116588,113582,184,184,638990,640496,633987,118116,633987,184,787953,789470,784948,640502,784948,visual_patterns,0,0,0,yes,1366
undefined,undefined,undefined,undefined,white,no,Mozilla,Netscape,"5.0 (Windows NT 10.0; Win64; x64) AppleWebKit/537.36 (KHTML, like Gecko) Chrome/99.0.4844.82 Safari/537.36",xpyriment,legacy,legacy,0,uniform,0,0,0,0,24,24,24,0,0,74,74,74,74,74,0,74,0,30,30,30,30,30,0,30,26-02-22,26-02-22,14:03:18,Sat Mar 26 2022 14:03:18 GMT+0100 (közép-európai téli idő),The main experiment item,yes,0,0,C:/Users/rrics/Documents/!!ResearchBMECOGSCI/gnet,0,0,0,prototype2.png,no,mono,no,18,no,black,no,no,768,1209,3.5.6,legacy,xpyriment,osweb,1.3.13,0,space,space,space,space,13065,4561,33034,13065,2,legacy,680,1280,24,720,24,0,0,1280,1648299841132,1024,2,48000,-16,experiment,p3sarr2.png,1,odd,Win32,184,116588,113582,184,184,638990,640496,633987,118116,633987,184,792481,793988,789481,640502,789481,visual_patterns,0,0,0,yes,1366
undefined,undefined,undefined,undefined,white,no,Mozilla,Netscape,"5.0 (Windows NT 10.0; Win64; x64) AppleWebKit/537.36 (KHTML, like Gecko) Chrome/99.0.4844.82 Safari/537.36",xpyriment,legacy,legacy,0,uniform,0,0,0,0,24,24,24,0,0,74,74,74,74,74,0,74,0,31,31,31,31,31,0,31,26-02-22,26-02-22,14:03:18,Sat Mar 26 2022 14:03:18 GMT+0100 (közép-európai téli idő),The main experiment item,yes,0,0,C:/Users/rrics/Documents/!!ResearchBMECOGSCI/gnet,0,0,0,prototype2.png,no,mono,no,18,no,black,no,no,768,1209,3.5.6,legacy,xpyriment,osweb,1.3.13,0,space,space,space,space,13065,4561,33034,13065,2,legacy,680,1280,24,720,24,0,0,1280,1648299841132,1024,2,48000,-16,experiment,p3sarrshacol3.png,1,odd,Win32,184,116588,113582,184,184,638990,640496,633987,118116,633987,184,797026,798539,794026,640502,794026,visual_patterns,0,0,0,yes,1366
undefined,undefined,undefined,undefined,white,no,Mozilla,Netscape,"5.0 (Windows NT 10.0; Win64; x64) AppleWebKit/537.36 (KHTML, like Gecko) Chrome/99.0.4844.82 Safari/537.36",xpyriment,legacy,legacy,0,uniform,0,0,0,0,24,24,24,0,0,74,74,74,74,74,0,74,0,32,32,32,32,32,0,32,26-02-22,26-02-22,14:03:18,Sat Mar 26 2022 14:03:18 GMT+0100 (közép-európai téli idő),The main experiment item,yes,0,0,C:/Users/rrics/Documents/!!ResearchBMECOGSCI/gnet,0,0,0,prototype2.png,no,mono,no,18,no,black,no,no,768,1209,3.5.6,legacy,xpyriment,osweb,1.3.13,0,space,space,space,space,13065,4561,33034,13065,2,legacy,680,1280,24,720,24,0,0,1280,1648299841132,1024,2,48000,-16,experiment,p2sarrcol4.png,1,odd,Win32,184,116588,113582,184,184,638990,640496,633987,118116,633987,184,801552,803057,798554,640502,798554,visual_patterns,0,0,0,yes,1366
undefined,undefined,undefined,undefined,white,no,Mozilla,Netscape,"5.0 (Windows NT 10.0; Win64; x64) AppleWebKit/537.36 (KHTML, like Gecko) Chrome/99.0.4844.82 Safari/537.36",xpyriment,legacy,legacy,0,uniform,0,0,0,0,24,24,24,0,0,74,74,74,74,74,0,74,0,33,33,33,33,33,0,33,26-02-22,26-02-22,14:03:18,Sat Mar 26 2022 14:03:18 GMT+0100 (közép-európai téli idő),The main experiment item,yes,0,0,C:/Users/rrics/Documents/!!ResearchBMECOGSCI/gnet,0,0,0,prototype2.png,no,mono,no,18,no,black,no,no,768,1209,3.5.6,legacy,xpyriment,osweb,1.3.13,0,space,space,space,space,13065,4561,33034,13065,2,legacy,680,1280,24,720,24,0,0,1280,1648299841132,1024,2,48000,-16,experiment,p5sarrcol1.png,1,odd,Win32,184,116588,113582,184,184,638990,640496,633987,118116,633987,184,806074,807575,803075,640502,803075,visual_patterns,0,0,0,yes,1366
undefined,undefined,undefined,undefined,white,no,Mozilla,Netscape,"5.0 (Windows NT 10.0; Win64; x64) AppleWebKit/537.36 (KHTML, like Gecko) Chrome/99.0.4844.82 Safari/537.36",xpyriment,legacy,legacy,0,uniform,0,0,0,0,24,24,24,0,0,74,74,74,74,74,0,74,0,34,34,34,34,34,0,34,26-02-22,26-02-22,14:03:18,Sat Mar 26 2022 14:03:18 GMT+0100 (közép-európai téli idő),The main experiment item,yes,0,0,C:/Users/rrics/Documents/!!ResearchBMECOGSCI/gnet,0,0,0,prototype2.png,no,mono,no,18,no,black,no,no,768,1209,3.5.6,legacy,xpyriment,osweb,1.3.13,0,space,space,space,space,13065,4561,33034,13065,2,legacy,680,1280,24,720,24,0,0,1280,1648299841132,1024,2,48000,-16,experiment,p8sarr2.png,1,odd,Win32,184,116588,113582,184,184,638990,640496,633987,118116,633987,184,810593,812109,807592,640502,807592,visual_patterns,0,0,0,yes,1366
undefined,undefined,undefined,undefined,white,no,Mozilla,Netscape,"5.0 (Windows NT 10.0; Win64; x64) AppleWebKit/537.36 (KHTML, like Gecko) Chrome/99.0.4844.82 Safari/537.36",xpyriment,legacy,legacy,0,uniform,0,0,0,0,24,24,24,0,0,74,74,74,74,74,0,74,0,35,35,35,35,35,0,35,26-02-22,26-02-22,14:03:18,Sat Mar 26 2022 14:03:18 GMT+0100 (közép-európai téli idő),The main experiment item,yes,0,0,C:/Users/rrics/Documents/!!ResearchBMECOGSCI/gnet,0,0,0,prototype2.png,no,mono,no,18,no,black,no,no,768,1209,3.5.6,legacy,xpyriment,osweb,1.3.13,0,space,space,space,space,13065,4561,33034,13065,2,legacy,680,1280,24,720,24,0,0,1280,1648299841132,1024,2,48000,-16,experiment,p5sarr3.png,1,odd,Win32,184,116588,113582,184,184,638990,640496,633987,118116,633987,184,815121,816627,812122,640502,812122,visual_patterns,0,0,0,yes,1366
undefined,undefined,undefined,undefined,white,no,Mozilla,Netscape,"5.0 (Windows NT 10.0; Win64; x64) AppleWebKit/537.36 (KHTML, like Gecko) Chrome/99.0.4844.82 Safari/537.36",xpyriment,legacy,legacy,0,uniform,0,0,0,0,24,24,24,0,0,74,74,74,74,74,0,74,0,36,36,36,36,36,0,36,26-02-22,26-02-22,14:03:18,Sat Mar 26 2022 14:03:18 GMT+0100 (közép-európai téli idő),The main experiment item,yes,0,0,C:/Users/rrics/Documents/!!ResearchBMECOGSCI/gnet,0,0,0,prototype2.png,no,mono,no,18,no,black,no,no,768,1209,3.5.6,legacy,xpyriment,osweb,1.3.13,0,space,space,space,space,13065,4561,33034,13065,2,legacy,680,1280,24,720,24,0,0,1280,1648299841132,1024,2,48000,-16,experiment,p7sarr1.png,1,odd,Win32,184,116588,113582,184,184,638990,640496,633987,118116,633987,184,819668,821178,816663,640502,816663,visual_patterns,0,0,0,yes,1366
undefined,undefined,undefined,undefined,white,no,Mozilla,Netscape,"5.0 (Windows NT 10.0; Win64; x64) AppleWebKit/537.36 (KHTML, like Gecko) Chrome/99.0.4844.82 Safari/537.36",xpyriment,legacy,legacy,0,uniform,0,0,0,0,24,24,24,0,0,74,74,74,74,74,0,74,0,37,37,37,37,37,0,37,26-02-22,26-02-22,14:03:18,Sat Mar 26 2022 14:03:18 GMT+0100 (közép-európai téli idő),The main experiment item,yes,0,0,C:/Users/rrics/Documents/!!ResearchBMECOGSCI/gnet,0,0,0,prototype2.png,no,mono,no,18,no,black,no,no,768,1209,3.5.6,legacy,xpyriment,osweb,1.3.13,0,space,space,space,space,13065,4561,33034,13065,2,legacy,680,1280,24,720,24,0,0,1280,1648299841132,1024,2,48000,-16,experiment,p1sarrcol4.png,1,odd,Win32,184,116588,113582,184,184,638990,640496,633987,118116,633987,184,824193,825696,821193,640502,821193,visual_patterns,0,0,0,yes,1366
undefined,undefined,undefined,undefined,white,no,Mozilla,Netscape,"5.0 (Windows NT 10.0; Win64; x64) AppleWebKit/537.36 (KHTML, like Gecko) Chrome/99.0.4844.82 Safari/537.36",xpyriment,legacy,legacy,0,uniform,0,0,0,0,24,24,24,0,0,74,74,74,74,74,0,74,0,38,38,38,38,38,0,38,26-02-22,26-02-22,14:03:18,Sat Mar 26 2022 14:03:18 GMT+0100 (közép-európai téli idő),The main experiment item,yes,0,0,C:/Users/rrics/Documents/!!ResearchBMECOGSCI/gnet,0,0,0,prototype2.png,no,mono,no,18,no,black,no,no,768,1209,3.5.6,legacy,xpyriment,osweb,1.3.13,0,space,space,space,space,13065,4561,33034,13065,2,legacy,680,1280,24,720,24,0,0,1280,1648299841132,1024,2,48000,-16,experiment,p3sarrsha4.png,1,odd,Win32,184,116588,113582,184,184,638990,640496,633987,118116,633987,184,828714,830231,825711,640502,825711,visual_patterns,0,0,0,yes,1366
undefined,undefined,undefined,undefined,white,no,Mozilla,Netscape,"5.0 (Windows NT 10.0; Win64; x64) AppleWebKit/537.36 (KHTML, like Gecko) Chrome/99.0.4844.82 Safari/537.36",xpyriment,legacy,legacy,0,uniform,0,0,0,0,24,24,24,0,0,74,74,74,74,74,0,74,0,39,39,39,39,39,0,39,26-02-22,26-02-22,14:03:18,Sat Mar 26 2022 14:03:18 GMT+0100 (közép-európai téli idő),The main experiment item,yes,0,0,C:/Users/rrics/Documents/!!ResearchBMECOGSCI/gnet,0,0,0,prototype2.png,no,mono,no,18,no,black,no,no,768,1209,3.5.6,legacy,xpyriment,osweb,1.3.13,0,space,space,space,space,13065,4561,33034,13065,2,legacy,680,1280,24,720,24,0,0,1280,1648299841132,1024,2,48000,-16,experiment,p3sarr1.png,1,odd,Win32,184,116588,113582,184,184,638990,640496,633987,118116,633987,184,833242,834749,830245,640502,830245,visual_patterns,0,0,0,yes,1366
undefined,undefined,undefined,undefined,white,no,Mozilla,Netscape,"5.0 (Windows NT 10.0; Win64; x64) AppleWebKit/537.36 (KHTML, like Gecko) Chrome/99.0.4844.82 Safari/537.36",xpyriment,legacy,legacy,0,uniform,0,0,0,0,24,24,24,0,0,74,74,74,74,74,0,74,0,40,40,40,40,40,0,40,26-02-22,26-02-22,14:03:18,Sat Mar 26 2022 14:03:18 GMT+0100 (közép-európai téli idő),The main experiment item,yes,0,0,C:/Users/rrics/Documents/!!ResearchBMECOGSCI/gnet,0,0,0,prototype2.png,no,mono,no,18,no,black,no,no,768,1209,3.5.6,legacy,xpyriment,osweb,1.3.13,0,space,space,space,space,13065,4561,33034,13065,2,legacy,680,1280,24,720,24,0,0,1280,1648299841132,1024,2,48000,-16,experiment,p2sarrsha3.png,1,odd,Win32,184,116588,113582,184,184,638990,640496,633987,118116,633987,184,837760,839266,834763,640502,834763,visual_patterns,0,0,0,yes,1366
undefined,undefined,undefined,undefined,white,no,Mozilla,Netscape,"5.0 (Windows NT 10.0; Win64; x64) AppleWebKit/537.36 (KHTML, like Gecko) Chrome/99.0.4844.82 Safari/537.36",xpyriment,legacy,legacy,0,uniform,0,0,0,0,24,24,24,0,0,74,74,74,74,74,0,74,0,41,41,41,41,41,0,41,26-02-22,26-02-22,14:03:18,Sat Mar 26 2022 14:03:18 GMT+0100 (közép-európai téli idő),The main experiment item,yes,0,0,C:/Users/rrics/Documents/!!ResearchBMECOGSCI/gnet,0,0,0,prototype2.png,no,mono,no,18,no,black,no,no,768,1209,3.5.6,legacy,xpyriment,osweb,1.3.13,0,space,space,space,space,13065,4561,33034,13065,2,legacy,680,1280,24,720,24,0,0,1280,1648299841132,1024,2,48000,-16,experiment,p9sarr3.png,1,odd,Win32,184,116588,113582,184,184,638990,640496,633987,118116,633987,184,842312,843817,839305,640502,839305,visual_patterns,0,0,0,yes,1366
undefined,undefined,undefined,undefined,white,no,Mozilla,Netscape,"5.0 (Windows NT 10.0; Win64; x64) AppleWebKit/537.36 (KHTML, like Gecko) Chrome/99.0.4844.82 Safari/537.36",xpyriment,legacy,legacy,0,uniform,0,0,0,0,24,24,24,0,0,74,74,74,74,74,0,74,0,42,42,42,42,42,0,42,26-02-22,26-02-22,14:03:18,Sat Mar 26 2022 14:03:18 GMT+0100 (közép-európai téli idő),The main experiment item,yes,0,0,C:/Users/rrics/Documents/!!ResearchBMECOGSCI/gnet,0,0,0,prototype2.png,no,mono,no,18,no,black,no,no,768,1209,3.5.6,legacy,xpyriment,osweb,1.3.13,0,space,space,space,space,13065,4561,33034,13065,2,legacy,680,1280,24,720,24,0,0,1280,1648299841132,1024,2,48000,-16,experiment,p10sarr4.png,1,odd,Win32,184,116588,113582,184,184,638990,640496,633987,118116,633987,184,846829,848335,843833,640502,843833,visual_patterns,0,0,0,yes,1366
undefined,undefined,undefined,undefined,white,no,Mozilla,Netscape,"5.0 (Windows NT 10.0; Win64; x64) AppleWebKit/537.36 (KHTML, like Gecko) Chrome/99.0.4844.82 Safari/537.36",xpyriment,legacy,legacy,0,uniform,0,0,0,0,24,24,24,0,0,74,74,74,74,74,0,74,0,43,43,43,43,43,0,43,26-02-22,26-02-22,14:03:18,Sat Mar 26 2022 14:03:18 GMT+0100 (közép-európai téli idő),The main experiment item,yes,0,0,C:/Users/rrics/Documents/!!ResearchBMECOGSCI/gnet,0,0,0,prototype2.png,no,mono,no,18,no,black,no,no,768,1209,3.5.6,legacy,xpyriment,osweb,1.3.13,0,space,space,space,space,13065,4561,33034,13065,2,legacy,680,1280,24,720,24,0,0,1280,1648299841132,1024,2,48000,-16,experiment,p4sarrcol1.png,1,odd,Win32,184,116588,113582,184,184,638990,640496,633987,118116,633987,184,851348,852853,848350,640502,848350,visual_patterns,0,0,0,yes,1366
undefined,undefined,undefined,undefined,white,no,Mozilla,Netscape,"5.0 (Windows NT 10.0; Win64; x64) AppleWebKit/537.36 (KHTML, like Gecko) Chrome/99.0.4844.82 Safari/537.36",xpyriment,legacy,legacy,0,uniform,0,0,0,0,24,24,24,0,0,74,74,74,74,74,0,74,0,44,44,44,44,44,0,44,26-02-22,26-02-22,14:03:18,Sat Mar 26 2022 14:03:18 GMT+0100 (közép-európai téli idő),The main experiment item,yes,0,0,C:/Users/rrics/Documents/!!ResearchBMECOGSCI/gnet,0,0,0,prototype2.png,no,mono,no,18,no,black,no,no,768,1209,3.5.6,legacy,xpyriment,osweb,1.3.13,0,space,space,space,space,13065,4561,33034,13065,2,legacy,680,1280,24,720,24,0,0,1280,1648299841132,1024,2,48000,-16,experiment,p5sarrshacol4.png,1,odd,Win32,184,116588,113582,184,184,638990,640496,633987,118116,633987,184,855871,857388,852871,640502,852871,visual_patterns,0,0,0,yes,1366
undefined,undefined,undefined,undefined,white,no,Mozilla,Netscape,"5.0 (Windows NT 10.0; Win64; x64) AppleWebKit/537.36 (KHTML, like Gecko) Chrome/99.0.4844.82 Safari/537.36",xpyriment,legacy,legacy,0,uniform,0,0,0,0,24,24,24,0,0,74,74,74,74,74,0,74,0,45,45,45,45,45,0,45,26-02-22,26-02-22,14:03:18,Sat Mar 26 2022 14:03:18 GMT+0100 (közép-európai téli idő),The main experiment item,yes,0,0,C:/Users/rrics/Documents/!!ResearchBMECOGSCI/gnet,0,0,0,prototype2.png,no,mono,no,18,no,black,no,no,768,1209,3.5.6,legacy,xpyriment,osweb,1.3.13,0,space,space,space,space,13065,4561,33034,13065,2,legacy,680,1280,24,720,24,0,0,1280,1648299841132,1024,2,48000,-16,experiment,p3sarr3.png,1,odd,Win32,184,116588,113582,184,184,638990,640496,633987,118116,633987,184,860406,861922,857404,640502,857403,visual_patterns,0,0,0,yes,1366
undefined,undefined,undefined,undefined,white,no,Mozilla,Netscape,"5.0 (Windows NT 10.0; Win64; x64) AppleWebKit/537.36 (KHTML, like Gecko) Chrome/99.0.4844.82 Safari/537.36",xpyriment,legacy,legacy,0,uniform,0,0,0,0,24,24,24,0,0,74,74,74,74,74,0,74,0,46,46,46,46,46,0,46,26-02-22,26-02-22,14:03:18,Sat Mar 26 2022 14:03:18 GMT+0100 (közép-európai téli idő),The main experiment item,yes,0,0,C:/Users/rrics/Documents/!!ResearchBMECOGSCI/gnet,0,0,0,prototype2.png,no,mono,no,18,no,black,no,no,768,1209,3.5.6,legacy,xpyriment,osweb,1.3.13,0,space,space,space,space,13065,4561,33034,13065,2,legacy,680,1280,24,720,24,0,0,1280,1648299841132,1024,2,48000,-16,experiment,p2sarr3.png,1,odd,Win32,184,116588,113582,184,184,638990,640496,633987,118116,633987,184,864941,866457,861939,640502,861939,visual_patterns,0,0,0,yes,1366
undefined,undefined,undefined,undefined,white,no,Mozilla,Netscape,"5.0 (Windows NT 10.0; Win64; x64) AppleWebKit/537.36 (KHTML, like Gecko) Chrome/99.0.4844.82 Safari/537.36",xpyriment,legacy,legacy,0,uniform,0,0,0,0,24,24,24,0,0,74,74,74,74,74,0,74,0,47,47,47,47,47,0,47,26-02-22,26-02-22,14:03:18,Sat Mar 26 2022 14:03:18 GMT+0100 (közép-európai téli idő),The main experiment item,yes,0,0,C:/Users/rrics/Documents/!!ResearchBMECOGSCI/gnet,0,0,0,prototype2.png,no,mono,no,18,no,black,no,no,768,1209,3.5.6,legacy,xpyriment,osweb,1.3.13,0,space,space,space,space,13065,4561,33034,13065,2,legacy,680,1280,24,720,24,0,0,1280,1648299841132,1024,2,48000,-16,experiment,p4sarr2.png,1,odd,Win32,184,116588,113582,184,184,638990,640496,633987,118116,633987,184,869474,870991,866471,640502,866471,visual_patterns,0,0,0,yes,1366
undefined,undefined,undefined,undefined,white,no,Mozilla,Netscape,"5.0 (Windows NT 10.0; Win64; x64) AppleWebKit/537.36 (KHTML, like Gecko) Chrome/99.0.4844.82 Safari/537.36",xpyriment,legacy,legacy,0,uniform,0,0,0,0,24,24,24,0,0,74,74,74,74,74,0,74,0,48,48,48,48,48,0,48,26-02-22,26-02-22,14:03:18,Sat Mar 26 2022 14:03:18 GMT+0100 (közép-európai téli idő),The main experiment item,yes,0,0,C:/Users/rrics/Documents/!!ResearchBMECOGSCI/gnet,0,0,0,prototype2.png,no,mono,no,18,no,black,no,no,768,1209,3.5.6,legacy,xpyriment,osweb,1.3.13,0,space,space,space,space,13065,4561,33034,13065,2,legacy,680,1280,24,720,24,0,0,1280,1648299841132,1024,2,48000,-16,experiment,p2sarrshacol3.png,1,odd,Win32,184,116588,113582,184,184,638990,640496,633987,118116,633987,184,874002,875510,871004,640502,871004,visual_patterns,0,0,0,yes,1366
