acc,accuracy,average_response_time,avg_rt,background,bidi,browser_codename,browser_name,browser_version,canvas_backend,clock_backend,color_backend,compensation,coordinates,count_end,count_experiment,count_osweb,count_prestudy,count_prestudy_isi,count_prestudy_sequence,count_prestudy_stimpres,count_start,count_study,count_study_coroutines,count_study_isi,count_study_logger,count_study_response,count_study_sequence,count_study_start,count_study_stimpres,count_test,count_test_coroutines,count_test_isi,count_test_logger,count_test_response,count_test_sequence,count_test_start,count_test_stimpres,date_startdate,date_startdateUTC,date_starttime,datetime,description,disable_garbage_collection,experiment_debug,experiment_parameters,experiment_path,experiment_pilot,experiment_taskname,experiment_taskversion,fampict,font_bold,font_family,font_italic,font_size,font_underline,foreground,form_clicks,fullscreen,height,jatosStudyResultId,jatosVersion,keyboard_backend,mouse_backend,opensesame_codename,opensesame_version,repeat_cycle,response,response_start,response_study_start,response_test_start,response_time,response_time_start,response_time_study_start,response_time_test_start,round_decimals,sampler_backend,screen_availableHeight,screen_availableWidth,screen_colorDepth,screen_height,screen_pixelDepth,screen_screenX,screen_screenY,screen_width,sessionid,sound_buf_size,sound_channels,sound_freq,sound_sample_size,start,stim,subject_nr,subject_parity,system_os,time_prestudy,time_prestudy_isi,time_prestudy_stimpres,time_start,time_study,time_study_isi,time_study_logger,time_study_response,time_study_start,time_study_stimpres,time_test,time_test_isi,time_test_logger,time_test_response,time_test_start,time_test_stimpres,title,total_correct,total_response_time,total_responses,uniform_coordinates,width
undefined,undefined,undefined,undefined,white,no,Mozilla,Netscape,"5.0 (Windows NT 10.0; Win64; x64) AppleWebKit/537.36 (KHTML, like Gecko) Chrome/99.0.4844.82 Safari/537.36",xpyriment,legacy,legacy,0,uniform,0,0,0,0,24,24,24,0,0,0,0,0,0,0,0,0,0,,,,,,0,,26-02-22,26-02-22,18:59:07,Sat Mar 26 2022 18:59:07 GMT+0100 (Central European Standard Time),The main experiment item,yes,0,0,C:/Users/rrics/Documents/!!ResearchBMECOGSCI/gnet,0,0,0,prototype3.png,no,mono,no,18,no,black,no,no,768,1212,3.5.6,legacy,xpyriment,osweb,1.3.13,0,enter,space,enter,,26530,27210,26530,,2,legacy,824,1536,24,864,24,0,0,1536,1648317637832,1024,2,48000,-16,experiment,p6sarr1.png,0,even,Win32,63,139102,136086,63,63,172163,173670,167162,140620,167162,63,,,,,,visual_patterns,0,0,0,yes,1366
undefined,undefined,undefined,undefined,white,no,Mozilla,Netscape,"5.0 (Windows NT 10.0; Win64; x64) AppleWebKit/537.36 (KHTML, like Gecko) Chrome/99.0.4844.82 Safari/537.36",xpyriment,legacy,legacy,0,uniform,0,0,0,0,24,24,24,0,0,1,1,1,1,1,0,1,0,,,,,,0,,26-02-22,26-02-22,18:59:07,Sat Mar 26 2022 18:59:07 GMT+0100 (Central European Standard Time),The main experiment item,yes,0,0,C:/Users/rrics/Documents/!!ResearchBMECOGSCI/gnet,0,0,0,prototype3.png,no,mono,no,18,no,black,no,no,768,1212,3.5.6,legacy,xpyriment,osweb,1.3.13,0,enter,space,enter,,26530,27210,26530,,2,legacy,824,1536,24,864,24,0,0,1536,1648317637832,1024,2,48000,-16,experiment,prototype3.png,0,even,Win32,63,139102,136086,63,63,178679,180186,173674,140620,173674,63,,,,,,visual_patterns,0,0,0,yes,1366
undefined,undefined,undefined,undefined,white,no,Mozilla,Netscape,"5.0 (Windows NT 10.0; Win64; x64) AppleWebKit/537.36 (KHTML, like Gecko) Chrome/99.0.4844.82 Safari/537.36",xpyriment,legacy,legacy,0,uniform,0,0,0,0,24,24,24,0,0,2,2,2,2,2,0,2,0,,,,,,0,,26-02-22,26-02-22,18:59:07,Sat Mar 26 2022 18:59:07 GMT+0100 (Central European Standard Time),The main experiment item,yes,0,0,C:/Users/rrics/Documents/!!ResearchBMECOGSCI/gnet,0,0,0,prototype3.png,no,mono,no,18,no,black,no,no,768,1212,3.5.6,legacy,xpyriment,osweb,1.3.13,0,enter,space,enter,,26530,27210,26530,,2,legacy,824,1536,24,864,24,0,0,1536,1648317637832,1024,2,48000,-16,experiment,p3sarr1.png,0,even,Win32,63,139102,136086,63,63,185192,186702,180190,140620,180190,63,,,,,,visual_patterns,0,0,0,yes,1366
undefined,undefined,undefined,undefined,white,no,Mozilla,Netscape,"5.0 (Windows NT 10.0; Win64; x64) AppleWebKit/537.36 (KHTML, like Gecko) Chrome/99.0.4844.82 Safari/537.36",xpyriment,legacy,legacy,0,uniform,0,0,0,0,24,24,24,0,0,3,3,3,3,3,0,3,0,,,,,,0,,26-02-22,26-02-22,18:59:07,Sat Mar 26 2022 18:59:07 GMT+0100 (Central European Standard Time),The main experiment item,yes,0,0,C:/Users/rrics/Documents/!!ResearchBMECOGSCI/gnet,0,0,0,prototype3.png,no,mono,no,18,no,black,no,no,768,1212,3.5.6,legacy,xpyriment,osweb,1.3.13,0,enter,space,enter,,26530,27210,26530,,2,legacy,824,1536,24,864,24,0,0,1536,1648317637832,1024,2,48000,-16,experiment,p9sarr2.png,0,even,Win32,63,139102,136086,63,63,191708,193219,186706,140620,186706,63,,,,,,visual_patterns,0,0,0,yes,1366
undefined,undefined,undefined,undefined,white,no,Mozilla,Netscape,"5.0 (Windows NT 10.0; Win64; x64) AppleWebKit/537.36 (KHTML, like Gecko) Chrome/99.0.4844.82 Safari/537.36",xpyriment,legacy,legacy,0,uniform,0,0,0,0,24,24,24,0,0,4,4,4,4,4,0,4,0,,,,,,0,,26-02-22,26-02-22,18:59:07,Sat Mar 26 2022 18:59:07 GMT+0100 (Central European Standard Time),The main experiment item,yes,0,0,C:/Users/rrics/Documents/!!ResearchBMECOGSCI/gnet,0,0,0,prototype3.png,no,mono,no,18,no,black,no,no,768,1212,3.5.6,legacy,xpyriment,osweb,1.3.13,0,enter,space,enter,,26530,27210,26530,,2,legacy,824,1536,24,864,24,0,0,1536,1648317637832,1024,2,48000,-16,experiment,p4sarr2.png,0,even,Win32,63,139102,136086,63,63,198222,199736,193223,140620,193223,63,,,,,,visual_patterns,0,0,0,yes,1366
undefined,undefined,undefined,undefined,white,no,Mozilla,Netscape,"5.0 (Windows NT 10.0; Win64; x64) AppleWebKit/537.36 (KHTML, like Gecko) Chrome/99.0.4844.82 Safari/537.36",xpyriment,legacy,legacy,0,uniform,0,0,0,0,24,24,24,0,0,5,5,5,5,5,0,5,0,,,,,,0,,26-02-22,26-02-22,18:59:07,Sat Mar 26 2022 18:59:07 GMT+0100 (Central European Standard Time),The main experiment item,yes,0,0,C:/Users/rrics/Documents/!!ResearchBMECOGSCI/gnet,0,0,0,prototype3.png,no,mono,no,18,no,black,no,no,768,1212,3.5.6,legacy,xpyriment,osweb,1.3.13,0,enter,space,enter,,26530,27210,26530,,2,legacy,824,1536,24,864,24,0,0,1536,1648317637832,1024,2,48000,-16,experiment,p4sarrshacol2.png,0,even,Win32,63,139102,136086,63,63,204740,206254,199740,140620,199740,63,,,,,,visual_patterns,0,0,0,yes,1366
undefined,undefined,undefined,undefined,white,no,Mozilla,Netscape,"5.0 (Windows NT 10.0; Win64; x64) AppleWebKit/537.36 (KHTML, like Gecko) Chrome/99.0.4844.82 Safari/537.36",xpyriment,legacy,legacy,0,uniform,0,0,0,0,24,24,24,0,0,6,6,6,6,6,0,6,0,,,,,,0,,26-02-22,26-02-22,18:59:07,Sat Mar 26 2022 18:59:07 GMT+0100 (Central European Standard Time),The main experiment item,yes,0,0,C:/Users/rrics/Documents/!!ResearchBMECOGSCI/gnet,0,0,0,prototype3.png,no,mono,no,18,no,black,no,no,768,1212,3.5.6,legacy,xpyriment,osweb,1.3.13,0,enter,space,enter,,26530,27210,26530,,2,legacy,824,1536,24,864,24,0,0,1536,1648317637832,1024,2,48000,-16,experiment,p5sarrsha2.png,0,even,Win32,63,139102,136086,63,63,211259,212769,206258,140620,206258,63,,,,,,visual_patterns,0,0,0,yes,1366
undefined,undefined,undefined,undefined,white,no,Mozilla,Netscape,"5.0 (Windows NT 10.0; Win64; x64) AppleWebKit/537.36 (KHTML, like Gecko) Chrome/99.0.4844.82 Safari/537.36",xpyriment,legacy,legacy,0,uniform,0,0,0,0,24,24,24,0,0,7,7,7,7,7,0,7,0,,,,,,0,,26-02-22,26-02-22,18:59:07,Sat Mar 26 2022 18:59:07 GMT+0100 (Central European Standard Time),The main experiment item,yes,0,0,C:/Users/rrics/Documents/!!ResearchBMECOGSCI/gnet,0,0,0,prototype3.png,no,mono,no,18,no,black,no,no,768,1212,3.5.6,legacy,xpyriment,osweb,1.3.13,0,enter,space,enter,,26530,27210,26530,,2,legacy,824,1536,24,864,24,0,0,1536,1648317637832,1024,2,48000,-16,experiment,p2sarr1.png,0,even,Win32,63,139102,136086,63,63,217773,219286,212773,140620,212773,63,,,,,,visual_patterns,0,0,0,yes,1366
undefined,undefined,undefined,undefined,white,no,Mozilla,Netscape,"5.0 (Windows NT 10.0; Win64; x64) AppleWebKit/537.36 (KHTML, like Gecko) Chrome/99.0.4844.82 Safari/537.36",xpyriment,legacy,legacy,0,uniform,0,0,0,0,24,24,24,0,0,8,8,8,8,8,0,8,0,,,,,,0,,26-02-22,26-02-22,18:59:07,Sat Mar 26 2022 18:59:07 GMT+0100 (Central European Standard Time),The main experiment item,yes,0,0,C:/Users/rrics/Documents/!!ResearchBMECOGSCI/gnet,0,0,0,prototype3.png,no,mono,no,18,no,black,no,no,768,1212,3.5.6,legacy,xpyriment,osweb,1.3.13,0,enter,space,enter,,26530,27210,26530,,2,legacy,824,1536,24,864,24,0,0,1536,1648317637832,1024,2,48000,-16,experiment,prototype4.png,0,even,Win32,63,139102,136086,63,63,224291,225804,219288,140620,219288,63,,,,,,visual_patterns,0,0,0,yes,1366
undefined,undefined,undefined,undefined,white,no,Mozilla,Netscape,"5.0 (Windows NT 10.0; Win64; x64) AppleWebKit/537.36 (KHTML, like Gecko) Chrome/99.0.4844.82 Safari/537.36",xpyriment,legacy,legacy,0,uniform,0,0,0,0,24,24,24,0,0,9,9,9,9,9,0,9,0,,,,,,0,,26-02-22,26-02-22,18:59:07,Sat Mar 26 2022 18:59:07 GMT+0100 (Central European Standard Time),The main experiment item,yes,0,0,C:/Users/rrics/Documents/!!ResearchBMECOGSCI/gnet,0,0,0,prototype3.png,no,mono,no,18,no,black,no,no,768,1212,3.5.6,legacy,xpyriment,osweb,1.3.13,0,enter,space,enter,,26530,27210,26530,,2,legacy,824,1536,24,864,24,0,0,1536,1648317637832,1024,2,48000,-16,experiment,p5sarrsha1.png,0,even,Win32,63,139102,136086,63,63,230807,232319,225808,140620,225808,63,,,,,,visual_patterns,0,0,0,yes,1366
undefined,undefined,undefined,undefined,white,no,Mozilla,Netscape,"5.0 (Windows NT 10.0; Win64; x64) AppleWebKit/537.36 (KHTML, like Gecko) Chrome/99.0.4844.82 Safari/537.36",xpyriment,legacy,legacy,0,uniform,0,0,0,0,24,24,24,0,0,10,10,10,10,10,0,10,0,,,,,,0,,26-02-22,26-02-22,18:59:07,Sat Mar 26 2022 18:59:07 GMT+0100 (Central European Standard Time),The main experiment item,yes,0,0,C:/Users/rrics/Documents/!!ResearchBMECOGSCI/gnet,0,0,0,prototype3.png,no,mono,no,18,no,black,no,no,768,1212,3.5.6,legacy,xpyriment,osweb,1.3.13,0,enter,space,enter,,26530,27210,26530,,2,legacy,824,1536,24,864,24,0,0,1536,1648317637832,1024,2,48000,-16,experiment,p5sarrcol1.png,0,even,Win32,63,139102,136086,63,63,237324,238836,232323,140620,232323,63,,,,,,visual_patterns,0,0,0,yes,1366
undefined,undefined,undefined,undefined,white,no,Mozilla,Netscape,"5.0 (Windows NT 10.0; Win64; x64) AppleWebKit/537.36 (KHTML, like Gecko) Chrome/99.0.4844.82 Safari/537.36",xpyriment,legacy,legacy,0,uniform,0,0,0,0,24,24,24,0,0,11,11,11,11,11,0,11,0,,,,,,0,,26-02-22,26-02-22,18:59:07,Sat Mar 26 2022 18:59:07 GMT+0100 (Central European Standard Time),The main experiment item,yes,0,0,C:/Users/rrics/Documents/!!ResearchBMECOGSCI/gnet,0,0,0,prototype3.png,no,mono,no,18,no,black,no,no,768,1212,3.5.6,legacy,xpyriment,osweb,1.3.13,0,enter,space,enter,,26530,27210,26530,,2,legacy,824,1536,24,864,24,0,0,1536,1648317637832,1024,2,48000,-16,experiment,p8sarr2.png,0,even,Win32,63,139102,136086,63,63,243846,245353,238845,140620,238845,63,,,,,,visual_patterns,0,0,0,yes,1366
undefined,undefined,undefined,undefined,white,no,Mozilla,Netscape,"5.0 (Windows NT 10.0; Win64; x64) AppleWebKit/537.36 (KHTML, like Gecko) Chrome/99.0.4844.82 Safari/537.36",xpyriment,legacy,legacy,0,uniform,0,0,0,0,24,24,24,0,0,12,12,12,12,12,0,12,0,,,,,,0,,26-02-22,26-02-22,18:59:07,Sat Mar 26 2022 18:59:07 GMT+0100 (Central European Standard Time),The main experiment item,yes,0,0,C:/Users/rrics/Documents/!!ResearchBMECOGSCI/gnet,0,0,0,prototype3.png,no,mono,no,18,no,black,no,no,768,1212,3.5.6,legacy,xpyriment,osweb,1.3.13,0,enter,space,enter,,26530,27210,26530,,2,legacy,824,1536,24,864,24,0,0,1536,1648317637832,1024,2,48000,-16,experiment,p5sarrshacol2.png,0,even,Win32,63,139102,136086,63,63,250358,251871,245357,140620,245357,63,,,,,,visual_patterns,0,0,0,yes,1366
undefined,undefined,undefined,undefined,white,no,Mozilla,Netscape,"5.0 (Windows NT 10.0; Win64; x64) AppleWebKit/537.36 (KHTML, like Gecko) Chrome/99.0.4844.82 Safari/537.36",xpyriment,legacy,legacy,0,uniform,0,0,0,0,24,24,24,0,0,13,13,13,13,13,0,13,0,,,,,,0,,26-02-22,26-02-22,18:59:07,Sat Mar 26 2022 18:59:07 GMT+0100 (Central European Standard Time),The main experiment item,yes,0,0,C:/Users/rrics/Documents/!!ResearchBMECOGSCI/gnet,0,0,0,prototype3.png,no,mono,no,18,no,black,no,no,768,1212,3.5.6,legacy,xpyriment,osweb,1.3.13,0,enter,space,enter,,26530,27210,26530,,2,legacy,824,1536,24,864,24,0,0,1536,1648317637832,1024,2,48000,-16,experiment,p8sarr1.png,0,even,Win32,63,139102,136086,63,63,256874,258386,251875,140620,251875,63,,,,,,visual_patterns,0,0,0,yes,1366
undefined,undefined,undefined,undefined,white,no,Mozilla,Netscape,"5.0 (Windows NT 10.0; Win64; x64) AppleWebKit/537.36 (KHTML, like Gecko) Chrome/99.0.4844.82 Safari/537.36",xpyriment,legacy,legacy,0,uniform,0,0,0,0,24,24,24,0,0,14,14,14,14,14,0,14,0,,,,,,0,,26-02-22,26-02-22,18:59:07,Sat Mar 26 2022 18:59:07 GMT+0100 (Central European Standard Time),The main experiment item,yes,0,0,C:/Users/rrics/Documents/!!ResearchBMECOGSCI/gnet,0,0,0,prototype3.png,no,mono,no,18,no,black,no,no,768,1212,3.5.6,legacy,xpyriment,osweb,1.3.13,0,enter,space,enter,,26530,27210,26530,,2,legacy,824,1536,24,864,24,0,0,1536,1648317637832,1024,2,48000,-16,experiment,p3sarrcol1.png,0,even,Win32,63,139102,136086,63,63,263391,264903,258390,140620,258390,63,,,,,,visual_patterns,0,0,0,yes,1366
undefined,undefined,undefined,undefined,white,no,Mozilla,Netscape,"5.0 (Windows NT 10.0; Win64; x64) AppleWebKit/537.36 (KHTML, like Gecko) Chrome/99.0.4844.82 Safari/537.36",xpyriment,legacy,legacy,0,uniform,0,0,0,0,24,24,24,0,0,15,15,15,15,15,0,15,0,,,,,,0,,26-02-22,26-02-22,18:59:07,Sat Mar 26 2022 18:59:07 GMT+0100 (Central European Standard Time),The main experiment item,yes,0,0,C:/Users/rrics/Documents/!!ResearchBMECOGSCI/gnet,0,0,0,prototype3.png,no,mono,no,18,no,black,no,no,768,1212,3.5.6,legacy,xpyriment,osweb,1.3.13,0,enter,space,enter,,26530,27210,26530,,2,legacy,824,1536,24,864,24,0,0,1536,1648317637832,1024,2,48000,-16,experiment,prototype1.png,0,even,Win32,63,139102,136086,63,63,269906,271419,264906,140620,264906,63,,,,,,visual_patterns,0,0,0,yes,1366
undefined,undefined,undefined,undefined,white,no,Mozilla,Netscape,"5.0 (Windows NT 10.0; Win64; x64) AppleWebKit/537.36 (KHTML, like Gecko) Chrome/99.0.4844.82 Safari/537.36",xpyriment,legacy,legacy,0,uniform,0,0,0,0,24,24,24,0,0,16,16,16,16,16,0,16,0,,,,,,0,,26-02-22,26-02-22,18:59:07,Sat Mar 26 2022 18:59:07 GMT+0100 (Central European Standard Time),The main experiment item,yes,0,0,C:/Users/rrics/Documents/!!ResearchBMECOGSCI/gnet,0,0,0,prototype3.png,no,mono,no,18,no,black,no,no,768,1212,3.5.6,legacy,xpyriment,osweb,1.3.13,0,enter,space,enter,,26530,27210,26530,,2,legacy,824,1536,24,864,24,0,0,1536,1648317637832,1024,2,48000,-16,experiment,p2sarr2.png,0,even,Win32,63,139102,136086,63,63,276428,277936,271429,140620,271429,63,,,,,,visual_patterns,0,0,0,yes,1366
undefined,undefined,undefined,undefined,white,no,Mozilla,Netscape,"5.0 (Windows NT 10.0; Win64; x64) AppleWebKit/537.36 (KHTML, like Gecko) Chrome/99.0.4844.82 Safari/537.36",xpyriment,legacy,legacy,0,uniform,0,0,0,0,24,24,24,0,0,17,17,17,17,17,0,17,0,,,,,,0,,26-02-22,26-02-22,18:59:07,Sat Mar 26 2022 18:59:07 GMT+0100 (Central European Standard Time),The main experiment item,yes,0,0,C:/Users/rrics/Documents/!!ResearchBMECOGSCI/gnet,0,0,0,prototype3.png,no,mono,no,18,no,black,no,no,768,1212,3.5.6,legacy,xpyriment,osweb,1.3.13,0,enter,space,enter,,26530,27210,26530,,2,legacy,824,1536,24,864,24,0,0,1536,1648317637832,1024,2,48000,-16,experiment,p3sarrsha2.png,0,even,Win32,63,139102,136086,63,63,282939,284453,277940,140620,277940,63,,,,,,visual_patterns,0,0,0,yes,1366
undefined,undefined,undefined,undefined,white,no,Mozilla,Netscape,"5.0 (Windows NT 10.0; Win64; x64) AppleWebKit/537.36 (KHTML, like Gecko) Chrome/99.0.4844.82 Safari/537.36",xpyriment,legacy,legacy,0,uniform,0,0,0,0,24,24,24,0,0,18,18,18,18,18,0,18,0,,,,,,0,,26-02-22,26-02-22,18:59:07,Sat Mar 26 2022 18:59:07 GMT+0100 (Central European Standard Time),The main experiment item,yes,0,0,C:/Users/rrics/Documents/!!ResearchBMECOGSCI/gnet,0,0,0,prototype3.png,no,mono,no,18,no,black,no,no,768,1212,3.5.6,legacy,xpyriment,osweb,1.3.13,0,enter,space,enter,,26530,27210,26530,,2,legacy,824,1536,24,864,24,0,0,1536,1648317637832,1024,2,48000,-16,experiment,prototype4.png,0,even,Win32,63,139102,136086,63,63,289459,290971,284456,140620,284456,63,,,,,,visual_patterns,0,0,0,yes,1366
undefined,undefined,undefined,undefined,white,no,Mozilla,Netscape,"5.0 (Windows NT 10.0; Win64; x64) AppleWebKit/537.36 (KHTML, like Gecko) Chrome/99.0.4844.82 Safari/537.36",xpyriment,legacy,legacy,0,uniform,0,0,0,0,24,24,24,0,0,19,19,19,19,19,0,19,0,,,,,,0,,26-02-22,26-02-22,18:59:07,Sat Mar 26 2022 18:59:07 GMT+0100 (Central European Standard Time),The main experiment item,yes,0,0,C:/Users/rrics/Documents/!!ResearchBMECOGSCI/gnet,0,0,0,prototype3.png,no,mono,no,18,no,black,no,no,768,1212,3.5.6,legacy,xpyriment,osweb,1.3.13,0,enter,space,enter,,26530,27210,26530,,2,legacy,824,1536,24,864,24,0,0,1536,1648317637832,1024,2,48000,-16,experiment,p3sarrsha1.png,0,even,Win32,63,139102,136086,63,63,295979,297486,290975,140620,290975,63,,,,,,visual_patterns,0,0,0,yes,1366
undefined,undefined,undefined,undefined,white,no,Mozilla,Netscape,"5.0 (Windows NT 10.0; Win64; x64) AppleWebKit/537.36 (KHTML, like Gecko) Chrome/99.0.4844.82 Safari/537.36",xpyriment,legacy,legacy,0,uniform,0,0,0,0,24,24,24,0,0,20,20,20,20,20,0,20,0,,,,,,0,,26-02-22,26-02-22,18:59:07,Sat Mar 26 2022 18:59:07 GMT+0100 (Central European Standard Time),The main experiment item,yes,0,0,C:/Users/rrics/Documents/!!ResearchBMECOGSCI/gnet,0,0,0,prototype3.png,no,mono,no,18,no,black,no,no,768,1212,3.5.6,legacy,xpyriment,osweb,1.3.13,0,enter,space,enter,,26530,27210,26530,,2,legacy,824,1536,24,864,24,0,0,1536,1648317637832,1024,2,48000,-16,experiment,prototype2.png,0,even,Win32,63,139102,136086,63,63,302489,304004,297489,140620,297489,63,,,,,,visual_patterns,0,0,0,yes,1366
undefined,undefined,undefined,undefined,white,no,Mozilla,Netscape,"5.0 (Windows NT 10.0; Win64; x64) AppleWebKit/537.36 (KHTML, like Gecko) Chrome/99.0.4844.82 Safari/537.36",xpyriment,legacy,legacy,0,uniform,0,0,0,0,24,24,24,0,0,21,21,21,21,21,0,21,0,,,,,,0,,26-02-22,26-02-22,18:59:07,Sat Mar 26 2022 18:59:07 GMT+0100 (Central European Standard Time),The main experiment item,yes,0,0,C:/Users/rrics/Documents/!!ResearchBMECOGSCI/gnet,0,0,0,prototype3.png,no,mono,no,18,no,black,no,no,768,1212,3.5.6,legacy,xpyriment,osweb,1.3.13,0,enter,space,enter,,26530,27210,26530,,2,legacy,824,1536,24,864,24,0,0,1536,1648317637832,1024,2,48000,-16,experiment,p4sarrcol2.png,0,even,Win32,63,139102,136086,63,63,309007,310519,304008,140620,304008,63,,,,,,visual_patterns,0,0,0,yes,1366
undefined,undefined,undefined,undefined,white,no,Mozilla,Netscape,"5.0 (Windows NT 10.0; Win64; x64) AppleWebKit/537.36 (KHTML, like Gecko) Chrome/99.0.4844.82 Safari/537.36",xpyriment,legacy,legacy,0,uniform,0,0,0,0,24,24,24,0,0,22,22,22,22,22,0,22,0,,,,,,0,,26-02-22,26-02-22,18:59:07,Sat Mar 26 2022 18:59:07 GMT+0100 (Central European Standard Time),The main experiment item,yes,0,0,C:/Users/rrics/Documents/!!ResearchBMECOGSCI/gnet,0,0,0,prototype3.png,no,mono,no,18,no,black,no,no,768,1212,3.5.6,legacy,xpyriment,osweb,1.3.13,0,enter,space,enter,,26530,27210,26530,,2,legacy,824,1536,24,864,24,0,0,1536,1648317637832,1024,2,48000,-16,experiment,p5sarrshacol1.png,0,even,Win32,63,139102,136086,63,63,315526,317036,310523,140620,310523,63,,,,,,visual_patterns,0,0,0,yes,1366
undefined,undefined,undefined,undefined,white,no,Mozilla,Netscape,"5.0 (Windows NT 10.0; Win64; x64) AppleWebKit/537.36 (KHTML, like Gecko) Chrome/99.0.4844.82 Safari/537.36",xpyriment,legacy,legacy,0,uniform,0,0,0,0,24,24,24,0,0,23,23,23,23,23,0,23,0,,,,,,0,,26-02-22,26-02-22,18:59:07,Sat Mar 26 2022 18:59:07 GMT+0100 (Central European Standard Time),The main experiment item,yes,0,0,C:/Users/rrics/Documents/!!ResearchBMECOGSCI/gnet,0,0,0,prototype3.png,no,mono,no,18,no,black,no,no,768,1212,3.5.6,legacy,xpyriment,osweb,1.3.13,0,enter,space,enter,,26530,27210,26530,,2,legacy,824,1536,24,864,24,0,0,1536,1648317637832,1024,2,48000,-16,experiment,prototype2.png,0,even,Win32,63,139102,136086,63,63,322044,323553,317040,140620,317040,63,,,,,,visual_patterns,0,0,0,yes,1366
undefined,undefined,undefined,undefined,white,no,Mozilla,Netscape,"5.0 (Windows NT 10.0; Win64; x64) AppleWebKit/537.36 (KHTML, like Gecko) Chrome/99.0.4844.82 Safari/537.36",xpyriment,legacy,legacy,0,uniform,0,0,0,0,24,24,24,0,0,24,24,24,24,24,0,24,0,,,,,,0,,26-02-22,26-02-22,18:59:07,Sat Mar 26 2022 18:59:07 GMT+0100 (Central European Standard Time),The main experiment item,yes,0,0,C:/Users/rrics/Documents/!!ResearchBMECOGSCI/gnet,0,0,0,prototype3.png,no,mono,no,18,no,black,no,no,768,1212,3.5.6,legacy,xpyriment,osweb,1.3.13,0,enter,space,enter,,26530,27210,26530,,2,legacy,824,1536,24,864,24,0,0,1536,1648317637832,1024,2,48000,-16,experiment,p4sarrsha2.png,0,even,Win32,63,139102,136086,63,63,328558,330069,323557,140620,323557,63,,,,,,visual_patterns,0,0,0,yes,1366
undefined,undefined,undefined,undefined,white,no,Mozilla,Netscape,"5.0 (Windows NT 10.0; Win64; x64) AppleWebKit/537.36 (KHTML, like Gecko) Chrome/99.0.4844.82 Safari/537.36",xpyriment,legacy,legacy,0,uniform,0,0,0,0,24,24,24,0,0,25,25,25,25,25,0,25,0,,,,,,0,,26-02-22,26-02-22,18:59:07,Sat Mar 26 2022 18:59:07 GMT+0100 (Central European Standard Time),The main experiment item,yes,0,0,C:/Users/rrics/Documents/!!ResearchBMECOGSCI/gnet,0,0,0,prototype3.png,no,mono,no,18,no,black,no,no,768,1212,3.5.6,legacy,xpyriment,osweb,1.3.13,0,enter,space,enter,,26530,27210,26530,,2,legacy,824,1536,24,864,24,0,0,1536,1648317637832,1024,2,48000,-16,experiment,p9sarr1.png,0,even,Win32,63,139102,136086,63,63,335075,336586,330073,140620,330073,63,,,,,,visual_patterns,0,0,0,yes,1366
undefined,undefined,undefined,undefined,white,no,Mozilla,Netscape,"5.0 (Windows NT 10.0; Win64; x64) AppleWebKit/537.36 (KHTML, like Gecko) Chrome/99.0.4844.82 Safari/537.36",xpyriment,legacy,legacy,0,uniform,0,0,0,0,24,24,24,0,0,26,26,26,26,26,0,26,0,,,,,,0,,26-02-22,26-02-22,18:59:07,Sat Mar 26 2022 18:59:07 GMT+0100 (Central European Standard Time),The main experiment item,yes,0,0,C:/Users/rrics/Documents/!!ResearchBMECOGSCI/gnet,0,0,0,prototype3.png,no,mono,no,18,no,black,no,no,768,1212,3.5.6,legacy,xpyriment,osweb,1.3.13,0,enter,space,enter,,26530,27210,26530,,2,legacy,824,1536,24,864,24,0,0,1536,1648317637832,1024,2,48000,-16,experiment,prototype1.png,0,even,Win32,63,139102,136086,63,63,341592,343103,336589,140620,336589,63,,,,,,visual_patterns,0,0,0,yes,1366
undefined,undefined,undefined,undefined,white,no,Mozilla,Netscape,"5.0 (Windows NT 10.0; Win64; x64) AppleWebKit/537.36 (KHTML, like Gecko) Chrome/99.0.4844.82 Safari/537.36",xpyriment,legacy,legacy,0,uniform,0,0,0,0,24,24,24,0,0,27,27,27,27,27,0,27,0,,,,,,0,,26-02-22,26-02-22,18:59:07,Sat Mar 26 2022 18:59:07 GMT+0100 (Central European Standard Time),The main experiment item,yes,0,0,C:/Users/rrics/Documents/!!ResearchBMECOGSCI/gnet,0,0,0,prototype3.png,no,mono,no,18,no,black,no,no,768,1212,3.5.6,legacy,xpyriment,osweb,1.3.13,0,enter,space,enter,,26530,27210,26530,,2,legacy,824,1536,24,864,24,0,0,1536,1648317637832,1024,2,48000,-16,experiment,p4sarrcol1.png,0,even,Win32,63,139102,136086,63,63,348107,349619,343107,140620,343107,63,,,,,,visual_patterns,0,0,0,yes,1366
undefined,undefined,undefined,undefined,white,no,Mozilla,Netscape,"5.0 (Windows NT 10.0; Win64; x64) AppleWebKit/537.36 (KHTML, like Gecko) Chrome/99.0.4844.82 Safari/537.36",xpyriment,legacy,legacy,0,uniform,0,0,0,0,24,24,24,0,0,28,28,28,28,28,0,28,0,,,,,,0,,26-02-22,26-02-22,18:59:07,Sat Mar 26 2022 18:59:07 GMT+0100 (Central European Standard Time),The main experiment item,yes,0,0,C:/Users/rrics/Documents/!!ResearchBMECOGSCI/gnet,0,0,0,prototype3.png,no,mono,no,18,no,black,no,no,768,1212,3.5.6,legacy,xpyriment,osweb,1.3.13,0,enter,space,enter,,26530,27210,26530,,2,legacy,824,1536,24,864,24,0,0,1536,1648317637832,1024,2,48000,-16,experiment,prototype4.png,0,even,Win32,63,139102,136086,63,63,354624,356136,349622,140620,349622,63,,,,,,visual_patterns,0,0,0,yes,1366
undefined,undefined,undefined,undefined,white,no,Mozilla,Netscape,"5.0 (Windows NT 10.0; Win64; x64) AppleWebKit/537.36 (KHTML, like Gecko) Chrome/99.0.4844.82 Safari/537.36",xpyriment,legacy,legacy,0,uniform,0,0,0,0,24,24,24,0,0,29,29,29,29,29,0,29,0,,,,,,0,,26-02-22,26-02-22,18:59:07,Sat Mar 26 2022 18:59:07 GMT+0100 (Central European Standard Time),The main experiment item,yes,0,0,C:/Users/rrics/Documents/!!ResearchBMECOGSCI/gnet,0,0,0,prototype3.png,no,mono,no,18,no,black,no,no,768,1212,3.5.6,legacy,xpyriment,osweb,1.3.13,0,enter,space,enter,,26530,27210,26530,,2,legacy,824,1536,24,864,24,0,0,1536,1648317637832,1024,2,48000,-16,experiment,prototype5.png,0,even,Win32,63,139102,136086,63,63,361141,362653,356139,140620,356139,63,,,,,,visual_patterns,0,0,0,yes,1366
undefined,undefined,undefined,undefined,white,no,Mozilla,Netscape,"5.0 (Windows NT 10.0; Win64; x64) AppleWebKit/537.36 (KHTML, like Gecko) Chrome/99.0.4844.82 Safari/537.36",xpyriment,legacy,legacy,0,uniform,0,0,0,0,24,24,24,0,0,30,30,30,30,30,0,30,0,,,,,,0,,26-02-22,26-02-22,18:59:07,Sat Mar 26 2022 18:59:07 GMT+0100 (Central European Standard Time),The main experiment item,yes,0,0,C:/Users/rrics/Documents/!!ResearchBMECOGSCI/gnet,0,0,0,prototype3.png,no,mono,no,18,no,black,no,no,768,1212,3.5.6,legacy,xpyriment,osweb,1.3.13,0,enter,space,enter,,26530,27210,26530,,2,legacy,824,1536,24,864,24,0,0,1536,1648317637832,1024,2,48000,-16,experiment,p5sarrcol2.png,0,even,Win32,63,139102,136086,63,63,367659,369170,362657,140620,362657,63,,,,,,visual_patterns,0,0,0,yes,1366
undefined,undefined,undefined,undefined,white,no,Mozilla,Netscape,"5.0 (Windows NT 10.0; Win64; x64) AppleWebKit/537.36 (KHTML, like Gecko) Chrome/99.0.4844.82 Safari/537.36",xpyriment,legacy,legacy,0,uniform,0,0,0,0,24,24,24,0,0,31,31,31,31,31,0,31,0,,,,,,0,,26-02-22,26-02-22,18:59:07,Sat Mar 26 2022 18:59:07 GMT+0100 (Central European Standard Time),The main experiment item,yes,0,0,C:/Users/rrics/Documents/!!ResearchBMECOGSCI/gnet,0,0,0,prototype3.png,no,mono,no,18,no,black,no,no,768,1212,3.5.6,legacy,xpyriment,osweb,1.3.13,0,enter,space,enter,,26530,27210,26530,,2,legacy,824,1536,24,864,24,0,0,1536,1648317637832,1024,2,48000,-16,experiment,p2sarrsha2.png,0,even,Win32,63,139102,136086,63,63,374180,375687,369179,140620,369179,63,,,,,,visual_patterns,0,0,0,yes,1366
undefined,undefined,undefined,undefined,white,no,Mozilla,Netscape,"5.0 (Windows NT 10.0; Win64; x64) AppleWebKit/537.36 (KHTML, like Gecko) Chrome/99.0.4844.82 Safari/537.36",xpyriment,legacy,legacy,0,uniform,0,0,0,0,24,24,24,0,0,32,32,32,32,32,0,32,0,,,,,,0,,26-02-22,26-02-22,18:59:07,Sat Mar 26 2022 18:59:07 GMT+0100 (Central European Standard Time),The main experiment item,yes,0,0,C:/Users/rrics/Documents/!!ResearchBMECOGSCI/gnet,0,0,0,prototype3.png,no,mono,no,18,no,black,no,no,768,1212,3.5.6,legacy,xpyriment,osweb,1.3.13,0,enter,space,enter,,26530,27210,26530,,2,legacy,824,1536,24,864,24,0,0,1536,1648317637832,1024,2,48000,-16,experiment,p5sarr1.png,0,even,Win32,63,139102,136086,63,63,380694,382203,375691,140620,375691,63,,,,,,visual_patterns,0,0,0,yes,1366
undefined,undefined,undefined,undefined,white,no,Mozilla,Netscape,"5.0 (Windows NT 10.0; Win64; x64) AppleWebKit/537.36 (KHTML, like Gecko) Chrome/99.0.4844.82 Safari/537.36",xpyriment,legacy,legacy,0,uniform,0,0,0,0,24,24,24,0,0,33,33,33,33,33,0,33,0,,,,,,0,,26-02-22,26-02-22,18:59:07,Sat Mar 26 2022 18:59:07 GMT+0100 (Central European Standard Time),The main experiment item,yes,0,0,C:/Users/rrics/Documents/!!ResearchBMECOGSCI/gnet,0,0,0,prototype3.png,no,mono,no,18,no,black,no,no,768,1212,3.5.6,legacy,xpyriment,osweb,1.3.13,0,enter,space,enter,,26530,27210,26530,,2,legacy,824,1536,24,864,24,0,0,1536,1648317637832,1024,2,48000,-16,experiment,p3sarrshacol1.png,0,even,Win32,63,139102,136086,63,63,387207,388720,382207,140620,382207,63,,,,,,visual_patterns,0,0,0,yes,1366
undefined,undefined,undefined,undefined,white,no,Mozilla,Netscape,"5.0 (Windows NT 10.0; Win64; x64) AppleWebKit/537.36 (KHTML, like Gecko) Chrome/99.0.4844.82 Safari/537.36",xpyriment,legacy,legacy,0,uniform,0,0,0,0,24,24,24,0,0,34,34,34,34,34,0,34,0,,,,,,0,,26-02-22,26-02-22,18:59:07,Sat Mar 26 2022 18:59:07 GMT+0100 (Central European Standard Time),The main experiment item,yes,0,0,C:/Users/rrics/Documents/!!ResearchBMECOGSCI/gnet,0,0,0,prototype3.png,no,mono,no,18,no,black,no,no,768,1212,3.5.6,legacy,xpyriment,osweb,1.3.13,0,enter,space,enter,,26530,27210,26530,,2,legacy,824,1536,24,864,24,0,0,1536,1648317637832,1024,2,48000,-16,experiment,prototype1.png,0,even,Win32,63,139102,136086,63,63,393723,395236,388722,140620,388722,63,,,,,,visual_patterns,0,0,0,yes,1366
undefined,undefined,undefined,undefined,white,no,Mozilla,Netscape,"5.0 (Windows NT 10.0; Win64; x64) AppleWebKit/537.36 (KHTML, like Gecko) Chrome/99.0.4844.82 Safari/537.36",xpyriment,legacy,legacy,0,uniform,0,0,0,0,24,24,24,0,0,35,35,35,35,35,0,35,0,,,,,,0,,26-02-22,26-02-22,18:59:07,Sat Mar 26 2022 18:59:07 GMT+0100 (Central European Standard Time),The main experiment item,yes,0,0,C:/Users/rrics/Documents/!!ResearchBMECOGSCI/gnet,0,0,0,prototype3.png,no,mono,no,18,no,black,no,no,768,1212,3.5.6,legacy,xpyriment,osweb,1.3.13,0,enter,space,enter,,26530,27210,26530,,2,legacy,824,1536,24,864,24,0,0,1536,1648317637832,1024,2,48000,-16,experiment,p4sarrshacol1.png,0,even,Win32,63,139102,136086,63,63,400242,401753,395240,140620,395240,63,,,,,,visual_patterns,0,0,0,yes,1366
undefined,undefined,undefined,undefined,white,no,Mozilla,Netscape,"5.0 (Windows NT 10.0; Win64; x64) AppleWebKit/537.36 (KHTML, like Gecko) Chrome/99.0.4844.82 Safari/537.36",xpyriment,legacy,legacy,0,uniform,0,0,0,0,24,24,24,0,0,36,36,36,36,36,0,36,0,,,,,,0,,26-02-22,26-02-22,18:59:07,Sat Mar 26 2022 18:59:07 GMT+0100 (Central European Standard Time),The main experiment item,yes,0,0,C:/Users/rrics/Documents/!!ResearchBMECOGSCI/gnet,0,0,0,prototype3.png,no,mono,no,18,no,black,no,no,768,1212,3.5.6,legacy,xpyriment,osweb,1.3.13,0,enter,space,enter,,26530,27210,26530,,2,legacy,824,1536,24,864,24,0,0,1536,1648317637832,1024,2,48000,-16,experiment,prototype3.png,0,even,Win32,63,139102,136086,63,63,406759,408270,401756,140620,401756,63,,,,,,visual_patterns,0,0,0,yes,1366
undefined,undefined,undefined,undefined,white,no,Mozilla,Netscape,"5.0 (Windows NT 10.0; Win64; x64) AppleWebKit/537.36 (KHTML, like Gecko) Chrome/99.0.4844.82 Safari/537.36",xpyriment,legacy,legacy,0,uniform,0,0,0,0,24,24,24,0,0,37,37,37,37,37,0,37,0,,,,,,0,,26-02-22,26-02-22,18:59:07,Sat Mar 26 2022 18:59:07 GMT+0100 (Central European Standard Time),The main experiment item,yes,0,0,C:/Users/rrics/Documents/!!ResearchBMECOGSCI/gnet,0,0,0,prototype3.png,no,mono,no,18,no,black,no,no,768,1212,3.5.6,legacy,xpyriment,osweb,1.3.13,0,enter,space,enter,,26530,27210,26530,,2,legacy,824,1536,24,864,24,0,0,1536,1648317637832,1024,2,48000,-16,experiment,prototype3.png,0,even,Win32,63,139102,136086,63,63,413275,414787,408273,140620,408273,63,,,,,,visual_patterns,0,0,0,yes,1366
undefined,undefined,undefined,undefined,white,no,Mozilla,Netscape,"5.0 (Windows NT 10.0; Win64; x64) AppleWebKit/537.36 (KHTML, like Gecko) Chrome/99.0.4844.82 Safari/537.36",xpyriment,legacy,legacy,0,uniform,0,0,0,0,24,24,24,0,0,38,38,38,38,38,0,38,0,,,,,,0,,26-02-22,26-02-22,18:59:07,Sat Mar 26 2022 18:59:07 GMT+0100 (Central European Standard Time),The main experiment item,yes,0,0,C:/Users/rrics/Documents/!!ResearchBMECOGSCI/gnet,0,0,0,prototype3.png,no,mono,no,18,no,black,no,no,768,1212,3.5.6,legacy,xpyriment,osweb,1.3.13,0,enter,space,enter,,26530,27210,26530,,2,legacy,824,1536,24,864,24,0,0,1536,1648317637832,1024,2,48000,-16,experiment,p7sarr1.png,0,even,Win32,63,139102,136086,63,63,419790,421303,414790,140620,414790,63,,,,,,visual_patterns,0,0,0,yes,1366
undefined,undefined,undefined,undefined,white,no,Mozilla,Netscape,"5.0 (Windows NT 10.0; Win64; x64) AppleWebKit/537.36 (KHTML, like Gecko) Chrome/99.0.4844.82 Safari/537.36",xpyriment,legacy,legacy,0,uniform,0,0,0,0,24,24,24,0,0,39,39,39,39,39,0,39,0,,,,,,0,,26-02-22,26-02-22,18:59:07,Sat Mar 26 2022 18:59:07 GMT+0100 (Central European Standard Time),The main experiment item,yes,0,0,C:/Users/rrics/Documents/!!ResearchBMECOGSCI/gnet,0,0,0,prototype3.png,no,mono,no,18,no,black,no,no,768,1212,3.5.6,legacy,xpyriment,osweb,1.3.13,0,enter,space,enter,,26530,27210,26530,,2,legacy,824,1536,24,864,24,0,0,1536,1648317637832,1024,2,48000,-16,experiment,p1sarrsha1.png,0,even,Win32,63,139102,136086,63,63,426307,427820,421307,140620,421307,63,,,,,,visual_patterns,0,0,0,yes,1366
undefined,undefined,undefined,undefined,white,no,Mozilla,Netscape,"5.0 (Windows NT 10.0; Win64; x64) AppleWebKit/537.36 (KHTML, like Gecko) Chrome/99.0.4844.82 Safari/537.36",xpyriment,legacy,legacy,0,uniform,0,0,0,0,24,24,24,0,0,40,40,40,40,40,0,40,0,,,,,,0,,26-02-22,26-02-22,18:59:07,Sat Mar 26 2022 18:59:07 GMT+0100 (Central European Standard Time),The main experiment item,yes,0,0,C:/Users/rrics/Documents/!!ResearchBMECOGSCI/gnet,0,0,0,prototype3.png,no,mono,no,18,no,black,no,no,768,1212,3.5.6,legacy,xpyriment,osweb,1.3.13,0,enter,space,enter,,26530,27210,26530,,2,legacy,824,1536,24,864,24,0,0,1536,1648317637832,1024,2,48000,-16,experiment,prototype5.png,0,even,Win32,63,139102,136086,63,63,432823,434337,427823,140620,427823,63,,,,,,visual_patterns,0,0,0,yes,1366
undefined,undefined,undefined,undefined,white,no,Mozilla,Netscape,"5.0 (Windows NT 10.0; Win64; x64) AppleWebKit/537.36 (KHTML, like Gecko) Chrome/99.0.4844.82 Safari/537.36",xpyriment,legacy,legacy,0,uniform,0,0,0,0,24,24,24,0,0,41,41,41,41,41,0,41,0,,,,,,0,,26-02-22,26-02-22,18:59:07,Sat Mar 26 2022 18:59:07 GMT+0100 (Central European Standard Time),The main experiment item,yes,0,0,C:/Users/rrics/Documents/!!ResearchBMECOGSCI/gnet,0,0,0,prototype3.png,no,mono,no,18,no,black,no,no,768,1212,3.5.6,legacy,xpyriment,osweb,1.3.13,0,enter,space,enter,,26530,27210,26530,,2,legacy,824,1536,24,864,24,0,0,1536,1648317637832,1024,2,48000,-16,experiment,p3sarrshacol2.png,0,even,Win32,63,139102,136086,63,63,439342,440853,434341,140620,434341,63,,,,,,visual_patterns,0,0,0,yes,1366
undefined,undefined,undefined,undefined,white,no,Mozilla,Netscape,"5.0 (Windows NT 10.0; Win64; x64) AppleWebKit/537.36 (KHTML, like Gecko) Chrome/99.0.4844.82 Safari/537.36",xpyriment,legacy,legacy,0,uniform,0,0,0,0,24,24,24,0,0,42,42,42,42,42,0,42,0,,,,,,0,,26-02-22,26-02-22,18:59:07,Sat Mar 26 2022 18:59:07 GMT+0100 (Central European Standard Time),The main experiment item,yes,0,0,C:/Users/rrics/Documents/!!ResearchBMECOGSCI/gnet,0,0,0,prototype3.png,no,mono,no,18,no,black,no,no,768,1212,3.5.6,legacy,xpyriment,osweb,1.3.13,0,enter,space,enter,,26530,27210,26530,,2,legacy,824,1536,24,864,24,0,0,1536,1648317637832,1024,2,48000,-16,experiment,p3sarrcol2.png,0,even,Win32,63,139102,136086,63,63,445859,447370,440857,140620,440857,63,,,,,,visual_patterns,0,0,0,yes,1366
undefined,undefined,undefined,undefined,white,no,Mozilla,Netscape,"5.0 (Windows NT 10.0; Win64; x64) AppleWebKit/537.36 (KHTML, like Gecko) Chrome/99.0.4844.82 Safari/537.36",xpyriment,legacy,legacy,0,uniform,0,0,0,0,24,24,24,0,0,43,43,43,43,43,0,43,0,,,,,,0,,26-02-22,26-02-22,18:59:07,Sat Mar 26 2022 18:59:07 GMT+0100 (Central European Standard Time),The main experiment item,yes,0,0,C:/Users/rrics/Documents/!!ResearchBMECOGSCI/gnet,0,0,0,prototype3.png,no,mono,no,18,no,black,no,no,768,1212,3.5.6,legacy,xpyriment,osweb,1.3.13,0,enter,space,enter,,26530,27210,26530,,2,legacy,824,1536,24,864,24,0,0,1536,1648317637832,1024,2,48000,-16,experiment,p3sarr2.png,0,even,Win32,63,139102,136086,63,63,452375,453887,447373,140620,447373,63,,,,,,visual_patterns,0,0,0,yes,1366
undefined,undefined,undefined,undefined,white,no,Mozilla,Netscape,"5.0 (Windows NT 10.0; Win64; x64) AppleWebKit/537.36 (KHTML, like Gecko) Chrome/99.0.4844.82 Safari/537.36",xpyriment,legacy,legacy,0,uniform,0,0,0,0,24,24,24,0,0,44,44,44,44,44,0,44,0,,,,,,0,,26-02-22,26-02-22,18:59:07,Sat Mar 26 2022 18:59:07 GMT+0100 (Central European Standard Time),The main experiment item,yes,0,0,C:/Users/rrics/Documents/!!ResearchBMECOGSCI/gnet,0,0,0,prototype3.png,no,mono,no,18,no,black,no,no,768,1212,3.5.6,legacy,xpyriment,osweb,1.3.13,0,enter,space,enter,,26530,27210,26530,,2,legacy,824,1536,24,864,24,0,0,1536,1648317637832,1024,2,48000,-16,experiment,p2sarrsha1.png,0,even,Win32,63,139102,136086,63,63,458893,460403,453890,140620,453890,63,,,,,,visual_patterns,0,0,0,yes,1366
undefined,undefined,undefined,undefined,white,no,Mozilla,Netscape,"5.0 (Windows NT 10.0; Win64; x64) AppleWebKit/537.36 (KHTML, like Gecko) Chrome/99.0.4844.82 Safari/537.36",xpyriment,legacy,legacy,0,uniform,0,0,0,0,24,24,24,0,0,45,45,45,45,45,0,45,0,,,,,,0,,26-02-22,26-02-22,18:59:07,Sat Mar 26 2022 18:59:07 GMT+0100 (Central European Standard Time),The main experiment item,yes,0,0,C:/Users/rrics/Documents/!!ResearchBMECOGSCI/gnet,0,0,0,prototype3.png,no,mono,no,18,no,black,no,no,768,1212,3.5.6,legacy,xpyriment,osweb,1.3.13,0,enter,space,enter,,26530,27210,26530,,2,legacy,824,1536,24,864,24,0,0,1536,1648317637832,1024,2,48000,-16,experiment,p4sarrsha1.png,0,even,Win32,63,139102,136086,63,63,465409,466920,460407,140620,460407,63,,,,,,visual_patterns,0,0,0,yes,1366
undefined,undefined,undefined,undefined,white,no,Mozilla,Netscape,"5.0 (Windows NT 10.0; Win64; x64) AppleWebKit/537.36 (KHTML, like Gecko) Chrome/99.0.4844.82 Safari/537.36",xpyriment,legacy,legacy,0,uniform,0,0,0,0,24,24,24,0,0,46,46,46,46,46,0,46,0,,,,,,0,,26-02-22,26-02-22,18:59:07,Sat Mar 26 2022 18:59:07 GMT+0100 (Central European Standard Time),The main experiment item,yes,0,0,C:/Users/rrics/Documents/!!ResearchBMECOGSCI/gnet,0,0,0,prototype3.png,no,mono,no,18,no,black,no,no,768,1212,3.5.6,legacy,xpyriment,osweb,1.3.13,0,enter,space,enter,,26530,27210,26530,,2,legacy,824,1536,24,864,24,0,0,1536,1648317637832,1024,2,48000,-16,experiment,p1sarrcol1.png,0,even,Win32,63,139102,136086,63,63,471932,473437,466930,140620,466930,63,,,,,,visual_patterns,0,0,0,yes,1366
undefined,undefined,undefined,undefined,white,no,Mozilla,Netscape,"5.0 (Windows NT 10.0; Win64; x64) AppleWebKit/537.36 (KHTML, like Gecko) Chrome/99.0.4844.82 Safari/537.36",xpyriment,legacy,legacy,0,uniform,0,0,0,0,24,24,24,0,0,47,47,47,47,47,0,47,0,,,,,,0,,26-02-22,26-02-22,18:59:07,Sat Mar 26 2022 18:59:07 GMT+0100 (Central European Standard Time),The main experiment item,yes,0,0,C:/Users/rrics/Documents/!!ResearchBMECOGSCI/gnet,0,0,0,prototype3.png,no,mono,no,18,no,black,no,no,768,1212,3.5.6,legacy,xpyriment,osweb,1.3.13,0,enter,space,enter,,26530,27210,26530,,2,legacy,824,1536,24,864,24,0,0,1536,1648317637832,1024,2,48000,-16,experiment,p1sarrsha2.png,0,even,Win32,63,139102,136086,63,63,478444,479953,473442,140620,473442,63,,,,,,visual_patterns,0,0,0,yes,1366
undefined,undefined,undefined,undefined,white,no,Mozilla,Netscape,"5.0 (Windows NT 10.0; Win64; x64) AppleWebKit/537.36 (KHTML, like Gecko) Chrome/99.0.4844.82 Safari/537.36",xpyriment,legacy,legacy,0,uniform,0,0,0,0,24,24,24,0,0,48,48,48,48,48,0,48,0,,,,,,0,,26-02-22,26-02-22,18:59:07,Sat Mar 26 2022 18:59:07 GMT+0100 (Central European Standard Time),The main experiment item,yes,0,0,C:/Users/rrics/Documents/!!ResearchBMECOGSCI/gnet,0,0,0,prototype3.png,no,mono,no,18,no,black,no,no,768,1212,3.5.6,legacy,xpyriment,osweb,1.3.13,0,enter,space,enter,,26530,27210,26530,,2,legacy,824,1536,24,864,24,0,0,1536,1648317637832,1024,2,48000,-16,experiment,p7sarr2.png,0,even,Win32,63,139102,136086,63,63,484961,486470,479957,140620,479957,63,,,,,,visual_patterns,0,0,0,yes,1366
undefined,undefined,undefined,undefined,white,no,Mozilla,Netscape,"5.0 (Windows NT 10.0; Win64; x64) AppleWebKit/537.36 (KHTML, like Gecko) Chrome/99.0.4844.82 Safari/537.36",xpyriment,legacy,legacy,0,uniform,0,0,0,0,24,24,24,0,0,49,49,49,49,49,0,49,0,,,,,,0,,26-02-22,26-02-22,18:59:07,Sat Mar 26 2022 18:59:07 GMT+0100 (Central European Standard Time),The main experiment item,yes,0,0,C:/Users/rrics/Documents/!!ResearchBMECOGSCI/gnet,0,0,0,prototype3.png,no,mono,no,18,no,black,no,no,768,1212,3.5.6,legacy,xpyriment,osweb,1.3.13,0,enter,space,enter,,26530,27210,26530,,2,legacy,824,1536,24,864,24,0,0,1536,1648317637832,1024,2,48000,-16,experiment,p4sarr1.png,0,even,Win32,63,139102,136086,63,63,491476,492987,486474,140620,486474,63,,,,,,visual_patterns,0,0,0,yes,1366
undefined,undefined,undefined,undefined,white,no,Mozilla,Netscape,"5.0 (Windows NT 10.0; Win64; x64) AppleWebKit/537.36 (KHTML, like Gecko) Chrome/99.0.4844.82 Safari/537.36",xpyriment,legacy,legacy,0,uniform,0,0,0,0,24,24,24,0,0,50,50,50,50,50,0,50,0,,,,,,0,,26-02-22,26-02-22,18:59:07,Sat Mar 26 2022 18:59:07 GMT+0100 (Central European Standard Time),The main experiment item,yes,0,0,C:/Users/rrics/Documents/!!ResearchBMECOGSCI/gnet,0,0,0,prototype3.png,no,mono,no,18,no,black,no,no,768,1212,3.5.6,legacy,xpyriment,osweb,1.3.13,0,enter,space,enter,,26530,27210,26530,,2,legacy,824,1536,24,864,24,0,0,1536,1648317637832,1024,2,48000,-16,experiment,p10sarr1.png,0,even,Win32,63,139102,136086,63,63,497991,499503,492991,140620,492991,63,,,,,,visual_patterns,0,0,0,yes,1366
undefined,undefined,undefined,undefined,white,no,Mozilla,Netscape,"5.0 (Windows NT 10.0; Win64; x64) AppleWebKit/537.36 (KHTML, like Gecko) Chrome/99.0.4844.82 Safari/537.36",xpyriment,legacy,legacy,0,uniform,0,0,0,0,24,24,24,0,0,51,51,51,51,51,0,51,0,,,,,,0,,26-02-22,26-02-22,18:59:07,Sat Mar 26 2022 18:59:07 GMT+0100 (Central European Standard Time),The main experiment item,yes,0,0,C:/Users/rrics/Documents/!!ResearchBMECOGSCI/gnet,0,0,0,prototype3.png,no,mono,no,18,no,black,no,no,768,1212,3.5.6,legacy,xpyriment,osweb,1.3.13,0,enter,space,enter,,26530,27210,26530,,2,legacy,824,1536,24,864,24,0,0,1536,1648317637832,1024,2,48000,-16,experiment,prototype3.png,0,even,Win32,63,139102,136086,63,63,504506,506020,499506,140620,499506,63,,,,,,visual_patterns,0,0,0,yes,1366
undefined,undefined,undefined,undefined,white,no,Mozilla,Netscape,"5.0 (Windows NT 10.0; Win64; x64) AppleWebKit/537.36 (KHTML, like Gecko) Chrome/99.0.4844.82 Safari/537.36",xpyriment,legacy,legacy,0,uniform,0,0,0,0,24,24,24,0,0,52,52,52,52,52,0,52,0,,,,,,0,,26-02-22,26-02-22,18:59:07,Sat Mar 26 2022 18:59:07 GMT+0100 (Central European Standard Time),The main experiment item,yes,0,0,C:/Users/rrics/Documents/!!ResearchBMECOGSCI/gnet,0,0,0,prototype3.png,no,mono,no,18,no,black,no,no,768,1212,3.5.6,legacy,xpyriment,osweb,1.3.13,0,enter,space,enter,,26530,27210,26530,,2,legacy,824,1536,24,864,24,0,0,1536,1648317637832,1024,2,48000,-16,experiment,p1sarr1.png,0,even,Win32,63,139102,136086,63,63,511023,512537,506024,140620,506024,63,,,,,,visual_patterns,0,0,0,yes,1366
undefined,undefined,undefined,undefined,white,no,Mozilla,Netscape,"5.0 (Windows NT 10.0; Win64; x64) AppleWebKit/537.36 (KHTML, like Gecko) Chrome/99.0.4844.82 Safari/537.36",xpyriment,legacy,legacy,0,uniform,0,0,0,0,24,24,24,0,0,53,53,53,53,53,0,53,0,,,,,,0,,26-02-22,26-02-22,18:59:07,Sat Mar 26 2022 18:59:07 GMT+0100 (Central European Standard Time),The main experiment item,yes,0,0,C:/Users/rrics/Documents/!!ResearchBMECOGSCI/gnet,0,0,0,prototype3.png,no,mono,no,18,no,black,no,no,768,1212,3.5.6,legacy,xpyriment,osweb,1.3.13,0,enter,space,enter,,26530,27210,26530,,2,legacy,824,1536,24,864,24,0,0,1536,1648317637832,1024,2,48000,-16,experiment,p1sarrcol2.png,0,even,Win32,63,139102,136086,63,63,517542,519054,512541,140620,512541,63,,,,,,visual_patterns,0,0,0,yes,1366
undefined,undefined,undefined,undefined,white,no,Mozilla,Netscape,"5.0 (Windows NT 10.0; Win64; x64) AppleWebKit/537.36 (KHTML, like Gecko) Chrome/99.0.4844.82 Safari/537.36",xpyriment,legacy,legacy,0,uniform,0,0,0,0,24,24,24,0,0,54,54,54,54,54,0,54,0,,,,,,0,,26-02-22,26-02-22,18:59:07,Sat Mar 26 2022 18:59:07 GMT+0100 (Central European Standard Time),The main experiment item,yes,0,0,C:/Users/rrics/Documents/!!ResearchBMECOGSCI/gnet,0,0,0,prototype3.png,no,mono,no,18,no,black,no,no,768,1212,3.5.6,legacy,xpyriment,osweb,1.3.13,0,enter,space,enter,,26530,27210,26530,,2,legacy,824,1536,24,864,24,0,0,1536,1648317637832,1024,2,48000,-16,experiment,p2sarrcol2.png,0,even,Win32,63,139102,136086,63,63,524057,525570,519057,140620,519057,63,,,,,,visual_patterns,0,0,0,yes,1366
undefined,undefined,undefined,undefined,white,no,Mozilla,Netscape,"5.0 (Windows NT 10.0; Win64; x64) AppleWebKit/537.36 (KHTML, like Gecko) Chrome/99.0.4844.82 Safari/537.36",xpyriment,legacy,legacy,0,uniform,0,0,0,0,24,24,24,0,0,55,55,55,55,55,0,55,0,,,,,,0,,26-02-22,26-02-22,18:59:07,Sat Mar 26 2022 18:59:07 GMT+0100 (Central European Standard Time),The main experiment item,yes,0,0,C:/Users/rrics/Documents/!!ResearchBMECOGSCI/gnet,0,0,0,prototype3.png,no,mono,no,18,no,black,no,no,768,1212,3.5.6,legacy,xpyriment,osweb,1.3.13,0,enter,space,enter,,26530,27210,26530,,2,legacy,824,1536,24,864,24,0,0,1536,1648317637832,1024,2,48000,-16,experiment,prototype4.png,0,even,Win32,63,139102,136086,63,63,530574,532087,525573,140620,525573,63,,,,,,visual_patterns,0,0,0,yes,1366
undefined,undefined,undefined,undefined,white,no,Mozilla,Netscape,"5.0 (Windows NT 10.0; Win64; x64) AppleWebKit/537.36 (KHTML, like Gecko) Chrome/99.0.4844.82 Safari/537.36",xpyriment,legacy,legacy,0,uniform,0,0,0,0,24,24,24,0,0,56,56,56,56,56,0,56,0,,,,,,0,,26-02-22,26-02-22,18:59:07,Sat Mar 26 2022 18:59:07 GMT+0100 (Central European Standard Time),The main experiment item,yes,0,0,C:/Users/rrics/Documents/!!ResearchBMECOGSCI/gnet,0,0,0,prototype3.png,no,mono,no,18,no,black,no,no,768,1212,3.5.6,legacy,xpyriment,osweb,1.3.13,0,enter,space,enter,,26530,27210,26530,,2,legacy,824,1536,24,864,24,0,0,1536,1648317637832,1024,2,48000,-16,experiment,p2sarrshacol1.png,0,even,Win32,63,139102,136086,63,63,537097,538604,532096,140620,532096,63,,,,,,visual_patterns,0,0,0,yes,1366
undefined,undefined,undefined,undefined,white,no,Mozilla,Netscape,"5.0 (Windows NT 10.0; Win64; x64) AppleWebKit/537.36 (KHTML, like Gecko) Chrome/99.0.4844.82 Safari/537.36",xpyriment,legacy,legacy,0,uniform,0,0,0,0,24,24,24,0,0,57,57,57,57,57,0,57,0,,,,,,0,,26-02-22,26-02-22,18:59:07,Sat Mar 26 2022 18:59:07 GMT+0100 (Central European Standard Time),The main experiment item,yes,0,0,C:/Users/rrics/Documents/!!ResearchBMECOGSCI/gnet,0,0,0,prototype3.png,no,mono,no,18,no,black,no,no,768,1212,3.5.6,legacy,xpyriment,osweb,1.3.13,0,enter,space,enter,,26530,27210,26530,,2,legacy,824,1536,24,864,24,0,0,1536,1648317637832,1024,2,48000,-16,experiment,prototype5.png,0,even,Win32,63,139102,136086,63,63,543608,545121,538607,140620,538607,63,,,,,,visual_patterns,0,0,0,yes,1366
undefined,undefined,undefined,undefined,white,no,Mozilla,Netscape,"5.0 (Windows NT 10.0; Win64; x64) AppleWebKit/537.36 (KHTML, like Gecko) Chrome/99.0.4844.82 Safari/537.36",xpyriment,legacy,legacy,0,uniform,0,0,0,0,24,24,24,0,0,58,58,58,58,58,0,58,0,,,,,,0,,26-02-22,26-02-22,18:59:07,Sat Mar 26 2022 18:59:07 GMT+0100 (Central European Standard Time),The main experiment item,yes,0,0,C:/Users/rrics/Documents/!!ResearchBMECOGSCI/gnet,0,0,0,prototype3.png,no,mono,no,18,no,black,no,no,768,1212,3.5.6,legacy,xpyriment,osweb,1.3.13,0,enter,space,enter,,26530,27210,26530,,2,legacy,824,1536,24,864,24,0,0,1536,1648317637832,1024,2,48000,-16,experiment,prototype2.png,0,even,Win32,63,139102,136086,63,63,550126,551639,545125,140620,545125,63,,,,,,visual_patterns,0,0,0,yes,1366
undefined,undefined,undefined,undefined,white,no,Mozilla,Netscape,"5.0 (Windows NT 10.0; Win64; x64) AppleWebKit/537.36 (KHTML, like Gecko) Chrome/99.0.4844.82 Safari/537.36",xpyriment,legacy,legacy,0,uniform,0,0,0,0,24,24,24,0,0,59,59,59,59,59,0,59,0,,,,,,0,,26-02-22,26-02-22,18:59:07,Sat Mar 26 2022 18:59:07 GMT+0100 (Central European Standard Time),The main experiment item,yes,0,0,C:/Users/rrics/Documents/!!ResearchBMECOGSCI/gnet,0,0,0,prototype3.png,no,mono,no,18,no,black,no,no,768,1212,3.5.6,legacy,xpyriment,osweb,1.3.13,0,enter,space,enter,,26530,27210,26530,,2,legacy,824,1536,24,864,24,0,0,1536,1648317637832,1024,2,48000,-16,experiment,prototype5.png,0,even,Win32,63,139102,136086,63,63,556645,558154,551641,140620,551641,63,,,,,,visual_patterns,0,0,0,yes,1366
undefined,undefined,undefined,undefined,white,no,Mozilla,Netscape,"5.0 (Windows NT 10.0; Win64; x64) AppleWebKit/537.36 (KHTML, like Gecko) Chrome/99.0.4844.82 Safari/537.36",xpyriment,legacy,legacy,0,uniform,0,0,0,0,24,24,24,0,0,60,60,60,60,60,0,60,0,,,,,,0,,26-02-22,26-02-22,18:59:07,Sat Mar 26 2022 18:59:07 GMT+0100 (Central European Standard Time),The main experiment item,yes,0,0,C:/Users/rrics/Documents/!!ResearchBMECOGSCI/gnet,0,0,0,prototype3.png,no,mono,no,18,no,black,no,no,768,1212,3.5.6,legacy,xpyriment,osweb,1.3.13,0,enter,space,enter,,26530,27210,26530,,2,legacy,824,1536,24,864,24,0,0,1536,1648317637832,1024,2,48000,-16,experiment,p1sarrshacol2.png,0,even,Win32,63,139102,136086,63,63,563158,564670,558157,140620,558157,63,,,,,,visual_patterns,0,0,0,yes,1366
undefined,undefined,undefined,undefined,white,no,Mozilla,Netscape,"5.0 (Windows NT 10.0; Win64; x64) AppleWebKit/537.36 (KHTML, like Gecko) Chrome/99.0.4844.82 Safari/537.36",xpyriment,legacy,legacy,0,uniform,0,0,0,0,24,24,24,0,0,61,61,61,61,61,0,61,0,,,,,,0,,26-02-22,26-02-22,18:59:07,Sat Mar 26 2022 18:59:07 GMT+0100 (Central European Standard Time),The main experiment item,yes,0,0,C:/Users/rrics/Documents/!!ResearchBMECOGSCI/gnet,0,0,0,prototype3.png,no,mono,no,18,no,black,no,no,768,1212,3.5.6,legacy,xpyriment,osweb,1.3.13,0,enter,space,enter,,26530,27210,26530,,2,legacy,824,1536,24,864,24,0,0,1536,1648317637832,1024,2,48000,-16,experiment,p2sarrcol1.png,0,even,Win32,63,139102,136086,63,63,569674,571187,564674,140620,564674,63,,,,,,visual_patterns,0,0,0,yes,1366
undefined,undefined,undefined,undefined,white,no,Mozilla,Netscape,"5.0 (Windows NT 10.0; Win64; x64) AppleWebKit/537.36 (KHTML, like Gecko) Chrome/99.0.4844.82 Safari/537.36",xpyriment,legacy,legacy,0,uniform,0,0,0,0,24,24,24,0,0,62,62,62,62,62,0,62,0,,,,,,0,,26-02-22,26-02-22,18:59:07,Sat Mar 26 2022 18:59:07 GMT+0100 (Central European Standard Time),The main experiment item,yes,0,0,C:/Users/rrics/Documents/!!ResearchBMECOGSCI/gnet,0,0,0,prototype3.png,no,mono,no,18,no,black,no,no,768,1212,3.5.6,legacy,xpyriment,osweb,1.3.13,0,enter,space,enter,,26530,27210,26530,,2,legacy,824,1536,24,864,24,0,0,1536,1648317637832,1024,2,48000,-16,experiment,p5sarr2.png,0,even,Win32,63,139102,136086,63,63,576192,577704,571192,140620,571192,63,,,,,,visual_patterns,0,0,0,yes,1366
undefined,undefined,undefined,undefined,white,no,Mozilla,Netscape,"5.0 (Windows NT 10.0; Win64; x64) AppleWebKit/537.36 (KHTML, like Gecko) Chrome/99.0.4844.82 Safari/537.36",xpyriment,legacy,legacy,0,uniform,0,0,0,0,24,24,24,0,0,63,63,63,63,63,0,63,0,,,,,,0,,26-02-22,26-02-22,18:59:07,Sat Mar 26 2022 18:59:07 GMT+0100 (Central European Standard Time),The main experiment item,yes,0,0,C:/Users/rrics/Documents/!!ResearchBMECOGSCI/gnet,0,0,0,prototype3.png,no,mono,no,18,no,black,no,no,768,1212,3.5.6,legacy,xpyriment,osweb,1.3.13,0,enter,space,enter,,26530,27210,26530,,2,legacy,824,1536,24,864,24,0,0,1536,1648317637832,1024,2,48000,-16,experiment,p10sarr2.png,0,even,Win32,63,139102,136086,63,63,582707,584221,577708,140620,577708,63,,,,,,visual_patterns,0,0,0,yes,1366
undefined,undefined,undefined,undefined,white,no,Mozilla,Netscape,"5.0 (Windows NT 10.0; Win64; x64) AppleWebKit/537.36 (KHTML, like Gecko) Chrome/99.0.4844.82 Safari/537.36",xpyriment,legacy,legacy,0,uniform,0,0,0,0,24,24,24,0,0,64,64,64,64,64,0,64,0,,,,,,0,,26-02-22,26-02-22,18:59:07,Sat Mar 26 2022 18:59:07 GMT+0100 (Central European Standard Time),The main experiment item,yes,0,0,C:/Users/rrics/Documents/!!ResearchBMECOGSCI/gnet,0,0,0,prototype3.png,no,mono,no,18,no,black,no,no,768,1212,3.5.6,legacy,xpyriment,osweb,1.3.13,0,enter,space,enter,,26530,27210,26530,,2,legacy,824,1536,24,864,24,0,0,1536,1648317637832,1024,2,48000,-16,experiment,prototype1.png,0,even,Win32,63,139102,136086,63,63,589223,590737,584224,140620,584223,63,,,,,,visual_patterns,0,0,0,yes,1366
undefined,undefined,undefined,undefined,white,no,Mozilla,Netscape,"5.0 (Windows NT 10.0; Win64; x64) AppleWebKit/537.36 (KHTML, like Gecko) Chrome/99.0.4844.82 Safari/537.36",xpyriment,legacy,legacy,0,uniform,0,0,0,0,24,24,24,0,0,65,65,65,65,65,0,65,0,,,,,,0,,26-02-22,26-02-22,18:59:07,Sat Mar 26 2022 18:59:07 GMT+0100 (Central European Standard Time),The main experiment item,yes,0,0,C:/Users/rrics/Documents/!!ResearchBMECOGSCI/gnet,0,0,0,prototype3.png,no,mono,no,18,no,black,no,no,768,1212,3.5.6,legacy,xpyriment,osweb,1.3.13,0,enter,space,enter,,26530,27210,26530,,2,legacy,824,1536,24,864,24,0,0,1536,1648317637832,1024,2,48000,-16,experiment,prototype4.png,0,even,Win32,63,139102,136086,63,63,595742,597254,590740,140620,590740,63,,,,,,visual_patterns,0,0,0,yes,1366
undefined,undefined,undefined,undefined,white,no,Mozilla,Netscape,"5.0 (Windows NT 10.0; Win64; x64) AppleWebKit/537.36 (KHTML, like Gecko) Chrome/99.0.4844.82 Safari/537.36",xpyriment,legacy,legacy,0,uniform,0,0,0,0,24,24,24,0,0,66,66,66,66,66,0,66,0,,,,,,0,,26-02-22,26-02-22,18:59:07,Sat Mar 26 2022 18:59:07 GMT+0100 (Central European Standard Time),The main experiment item,yes,0,0,C:/Users/rrics/Documents/!!ResearchBMECOGSCI/gnet,0,0,0,prototype3.png,no,mono,no,18,no,black,no,no,768,1212,3.5.6,legacy,xpyriment,osweb,1.3.13,0,enter,space,enter,,26530,27210,26530,,2,legacy,824,1536,24,864,24,0,0,1536,1648317637832,1024,2,48000,-16,experiment,p2sarrshacol2.png,0,even,Win32,63,139102,136086,63,63,602264,603771,597262,140620,597262,63,,,,,,visual_patterns,0,0,0,yes,1366
undefined,undefined,undefined,undefined,white,no,Mozilla,Netscape,"5.0 (Windows NT 10.0; Win64; x64) AppleWebKit/537.36 (KHTML, like Gecko) Chrome/99.0.4844.82 Safari/537.36",xpyriment,legacy,legacy,0,uniform,0,0,0,0,24,24,24,0,0,67,67,67,67,67,0,67,0,,,,,,0,,26-02-22,26-02-22,18:59:07,Sat Mar 26 2022 18:59:07 GMT+0100 (Central European Standard Time),The main experiment item,yes,0,0,C:/Users/rrics/Documents/!!ResearchBMECOGSCI/gnet,0,0,0,prototype3.png,no,mono,no,18,no,black,no,no,768,1212,3.5.6,legacy,xpyriment,osweb,1.3.13,0,enter,space,enter,,26530,27210,26530,,2,legacy,824,1536,24,864,24,0,0,1536,1648317637832,1024,2,48000,-16,experiment,p1sarr2.png,0,even,Win32,63,139102,136086,63,63,608776,610287,603774,140620,603774,63,,,,,,visual_patterns,0,0,0,yes,1366
undefined,undefined,undefined,undefined,white,no,Mozilla,Netscape,"5.0 (Windows NT 10.0; Win64; x64) AppleWebKit/537.36 (KHTML, like Gecko) Chrome/99.0.4844.82 Safari/537.36",xpyriment,legacy,legacy,0,uniform,0,0,0,0,24,24,24,0,0,68,68,68,68,68,0,68,0,,,,,,0,,26-02-22,26-02-22,18:59:07,Sat Mar 26 2022 18:59:07 GMT+0100 (Central European Standard Time),The main experiment item,yes,0,0,C:/Users/rrics/Documents/!!ResearchBMECOGSCI/gnet,0,0,0,prototype3.png,no,mono,no,18,no,black,no,no,768,1212,3.5.6,legacy,xpyriment,osweb,1.3.13,0,enter,space,enter,,26530,27210,26530,,2,legacy,824,1536,24,864,24,0,0,1536,1648317637832,1024,2,48000,-16,experiment,p6sarr2.png,0,even,Win32,63,139102,136086,63,63,615291,616804,610291,140620,610291,63,,,,,,visual_patterns,0,0,0,yes,1366
undefined,undefined,undefined,undefined,white,no,Mozilla,Netscape,"5.0 (Windows NT 10.0; Win64; x64) AppleWebKit/537.36 (KHTML, like Gecko) Chrome/99.0.4844.82 Safari/537.36",xpyriment,legacy,legacy,0,uniform,0,0,0,0,24,24,24,0,0,69,69,69,69,69,0,69,0,,,,,,0,,26-02-22,26-02-22,18:59:07,Sat Mar 26 2022 18:59:07 GMT+0100 (Central European Standard Time),The main experiment item,yes,0,0,C:/Users/rrics/Documents/!!ResearchBMECOGSCI/gnet,0,0,0,prototype3.png,no,mono,no,18,no,black,no,no,768,1212,3.5.6,legacy,xpyriment,osweb,1.3.13,0,enter,space,enter,,26530,27210,26530,,2,legacy,824,1536,24,864,24,0,0,1536,1648317637832,1024,2,48000,-16,experiment,prototype2.png,0,even,Win32,63,139102,136086,63,63,621811,623320,616807,140620,616807,63,,,,,,visual_patterns,0,0,0,yes,1366
undefined,undefined,undefined,undefined,white,no,Mozilla,Netscape,"5.0 (Windows NT 10.0; Win64; x64) AppleWebKit/537.36 (KHTML, like Gecko) Chrome/99.0.4844.82 Safari/537.36",xpyriment,legacy,legacy,0,uniform,0,0,0,0,24,24,24,0,0,70,70,70,70,70,0,70,0,,,,,,0,,26-02-22,26-02-22,18:59:07,Sat Mar 26 2022 18:59:07 GMT+0100 (Central European Standard Time),The main experiment item,yes,0,0,C:/Users/rrics/Documents/!!ResearchBMECOGSCI/gnet,0,0,0,prototype3.png,no,mono,no,18,no,black,no,no,768,1212,3.5.6,legacy,xpyriment,osweb,1.3.13,0,enter,space,enter,,26530,27210,26530,,2,legacy,824,1536,24,864,24,0,0,1536,1648317637832,1024,2,48000,-16,experiment,p1sarrshacol1.png,0,even,Win32,63,139102,136086,63,63,628329,629837,623324,140620,623324,63,,,,,,visual_patterns,0,0,0,yes,1366
undefined,undefined,undefined,undefined,white,no,Mozilla,Netscape,"5.0 (Windows NT 10.0; Win64; x64) AppleWebKit/537.36 (KHTML, like Gecko) Chrome/99.0.4844.82 Safari/537.36",xpyriment,legacy,legacy,0,uniform,0,0,0,0,24,24,24,0,0,71,71,71,71,71,0,71,0,,,,,,0,,26-02-22,26-02-22,18:59:07,Sat Mar 26 2022 18:59:07 GMT+0100 (Central European Standard Time),The main experiment item,yes,0,0,C:/Users/rrics/Documents/!!ResearchBMECOGSCI/gnet,0,0,0,prototype3.png,no,mono,no,18,no,black,no,no,768,1212,3.5.6,legacy,xpyriment,osweb,1.3.13,0,enter,space,enter,,26530,27210,26530,,2,legacy,824,1536,24,864,24,0,0,1536,1648317637832,1024,2,48000,-16,experiment,prototype1.png,0,even,Win32,63,139102,136086,63,63,634851,636354,629846,140620,629846,63,,,,,,visual_patterns,0,0,0,yes,1366
undefined,undefined,undefined,undefined,white,no,Mozilla,Netscape,"5.0 (Windows NT 10.0; Win64; x64) AppleWebKit/537.36 (KHTML, like Gecko) Chrome/99.0.4844.82 Safari/537.36",xpyriment,legacy,legacy,0,uniform,0,0,0,0,24,24,24,0,0,72,72,72,72,72,0,72,0,,,,,,0,,26-02-22,26-02-22,18:59:07,Sat Mar 26 2022 18:59:07 GMT+0100 (Central European Standard Time),The main experiment item,yes,0,0,C:/Users/rrics/Documents/!!ResearchBMECOGSCI/gnet,0,0,0,prototype3.png,no,mono,no,18,no,black,no,no,768,1212,3.5.6,legacy,xpyriment,osweb,1.3.13,0,enter,space,enter,,26530,27210,26530,,2,legacy,824,1536,24,864,24,0,0,1536,1648317637832,1024,2,48000,-16,experiment,prototype5.png,0,even,Win32,63,139102,136086,63,63,641358,642872,636357,140620,636357,63,,,,,,visual_patterns,0,0,0,yes,1366
undefined,undefined,undefined,undefined,white,no,Mozilla,Netscape,"5.0 (Windows NT 10.0; Win64; x64) AppleWebKit/537.36 (KHTML, like Gecko) Chrome/99.0.4844.82 Safari/537.36",xpyriment,legacy,legacy,0,uniform,0,0,0,0,24,24,24,0,0,73,73,73,73,73,0,73,0,,,,,,0,,26-02-22,26-02-22,18:59:07,Sat Mar 26 2022 18:59:07 GMT+0100 (Central European Standard Time),The main experiment item,yes,0,0,C:/Users/rrics/Documents/!!ResearchBMECOGSCI/gnet,0,0,0,prototype3.png,no,mono,no,18,no,black,no,no,768,1212,3.5.6,legacy,xpyriment,osweb,1.3.13,0,enter,space,enter,,26530,27210,26530,,2,legacy,824,1536,24,864,24,0,0,1536,1648317637832,1024,2,48000,-16,experiment,prototype3.png,0,even,Win32,63,139102,136086,63,63,647877,649387,642876,140620,642876,63,,,,,,visual_patterns,0,0,0,yes,1366
undefined,undefined,undefined,undefined,white,no,Mozilla,Netscape,"5.0 (Windows NT 10.0; Win64; x64) AppleWebKit/537.36 (KHTML, like Gecko) Chrome/99.0.4844.82 Safari/537.36",xpyriment,legacy,legacy,0,uniform,0,0,0,0,24,24,24,0,0,74,74,74,74,74,0,74,0,,,,,,0,,26-02-22,26-02-22,18:59:07,Sat Mar 26 2022 18:59:07 GMT+0100 (Central European Standard Time),The main experiment item,yes,0,0,C:/Users/rrics/Documents/!!ResearchBMECOGSCI/gnet,0,0,0,prototype3.png,no,mono,no,18,no,black,no,no,768,1212,3.5.6,legacy,xpyriment,osweb,1.3.13,0,enter,space,enter,,26530,27210,26530,,2,legacy,824,1536,24,864,24,0,0,1536,1648317637832,1024,2,48000,-16,experiment,prototype2.png,0,even,Win32,63,139102,136086,63,63,654393,655904,649391,140620,649391,63,,,,,,visual_patterns,0,0,0,yes,1366
undefined,undefined,undefined,undefined,white,no,Mozilla,Netscape,"5.0 (Windows NT 10.0; Win64; x64) AppleWebKit/537.36 (KHTML, like Gecko) Chrome/99.0.4844.82 Safari/537.36",xpyriment,legacy,legacy,0,uniform,0,0,0,0,24,24,24,0,0,74,74,74,74,74,0,74,0,0,0,0,0,0,0,0,26-02-22,26-02-22,18:59:07,Sat Mar 26 2022 18:59:07 GMT+0100 (Central European Standard Time),The main experiment item,yes,0,0,C:/Users/rrics/Documents/!!ResearchBMECOGSCI/gnet,0,0,0,prototype3.png,no,mono,no,18,no,black,no,no,768,1212,3.5.6,legacy,xpyriment,osweb,1.3.13,0,space,space,enter,space,157994,27210,26530,157994,2,legacy,824,1536,24,864,24,0,0,1536,1648317637832,1024,2,48000,-16,experiment,p5sarrsha3.png,0,even,Win32,63,139102,136086,63,63,654393,655904,649391,140620,649391,63,816915,818421,813916,655905,813916,visual_patterns,0,0,0,yes,1366
undefined,undefined,undefined,undefined,white,no,Mozilla,Netscape,"5.0 (Windows NT 10.0; Win64; x64) AppleWebKit/537.36 (KHTML, like Gecko) Chrome/99.0.4844.82 Safari/537.36",xpyriment,legacy,legacy,0,uniform,0,0,0,0,24,24,24,0,0,74,74,74,74,74,0,74,0,1,1,1,1,1,0,1,26-02-22,26-02-22,18:59:07,Sat Mar 26 2022 18:59:07 GMT+0100 (Central European Standard Time),The main experiment item,yes,0,0,C:/Users/rrics/Documents/!!ResearchBMECOGSCI/gnet,0,0,0,prototype3.png,no,mono,no,18,no,black,no,no,768,1212,3.5.6,legacy,xpyriment,osweb,1.3.13,0,space,space,enter,space,157994,27210,26530,157994,2,legacy,824,1536,24,864,24,0,0,1536,1648317637832,1024,2,48000,-16,experiment,p2sarrshacol1.png,0,even,Win32,63,139102,136086,63,63,654393,655904,649391,140620,649391,63,821428,822938,818425,655905,818425,visual_patterns,0,0,0,yes,1366
undefined,undefined,undefined,undefined,white,no,Mozilla,Netscape,"5.0 (Windows NT 10.0; Win64; x64) AppleWebKit/537.36 (KHTML, like Gecko) Chrome/99.0.4844.82 Safari/537.36",xpyriment,legacy,legacy,0,uniform,0,0,0,0,24,24,24,0,0,74,74,74,74,74,0,74,0,2,2,2,2,2,0,2,26-02-22,26-02-22,18:59:07,Sat Mar 26 2022 18:59:07 GMT+0100 (Central European Standard Time),The main experiment item,yes,0,0,C:/Users/rrics/Documents/!!ResearchBMECOGSCI/gnet,0,0,0,prototype3.png,no,mono,no,18,no,black,no,no,768,1212,3.5.6,legacy,xpyriment,osweb,1.3.13,0,space,space,enter,space,157994,27210,26530,157994,2,legacy,824,1536,24,864,24,0,0,1536,1648317637832,1024,2,48000,-16,experiment,p4sarr4.png,0,even,Win32,63,139102,136086,63,63,654393,655904,649391,140620,649391,63,825942,827456,822943,655905,822943,visual_patterns,0,0,0,yes,1366
undefined,undefined,undefined,undefined,white,no,Mozilla,Netscape,"5.0 (Windows NT 10.0; Win64; x64) AppleWebKit/537.36 (KHTML, like Gecko) Chrome/99.0.4844.82 Safari/537.36",xpyriment,legacy,legacy,0,uniform,0,0,0,0,24,24,24,0,0,74,74,74,74,74,0,74,0,3,3,3,3,3,0,3,26-02-22,26-02-22,18:59:07,Sat Mar 26 2022 18:59:07 GMT+0100 (Central European Standard Time),The main experiment item,yes,0,0,C:/Users/rrics/Documents/!!ResearchBMECOGSCI/gnet,0,0,0,prototype3.png,no,mono,no,18,no,black,no,no,768,1212,3.5.6,legacy,xpyriment,osweb,1.3.13,0,space,space,enter,space,157994,27210,26530,157994,2,legacy,824,1536,24,864,24,0,0,1536,1648317637832,1024,2,48000,-16,experiment,p5sarrsha2.png,0,even,Win32,63,139102,136086,63,63,654393,655904,649391,140620,649391,63,830461,831971,827459,655905,827459,visual_patterns,0,0,0,yes,1366
undefined,undefined,undefined,undefined,white,no,Mozilla,Netscape,"5.0 (Windows NT 10.0; Win64; x64) AppleWebKit/537.36 (KHTML, like Gecko) Chrome/99.0.4844.82 Safari/537.36",xpyriment,legacy,legacy,0,uniform,0,0,0,0,24,24,24,0,0,74,74,74,74,74,0,74,0,4,4,4,4,4,0,4,26-02-22,26-02-22,18:59:07,Sat Mar 26 2022 18:59:07 GMT+0100 (Central European Standard Time),The main experiment item,yes,0,0,C:/Users/rrics/Documents/!!ResearchBMECOGSCI/gnet,0,0,0,prototype3.png,no,mono,no,18,no,black,no,no,768,1212,3.5.6,legacy,xpyriment,osweb,1.3.13,0,space,space,enter,space,157994,27210,26530,157994,2,legacy,824,1536,24,864,24,0,0,1536,1648317637832,1024,2,48000,-16,experiment,p7sarr2.png,0,even,Win32,63,139102,136086,63,63,654393,655904,649391,140620,649391,63,834975,836488,831975,655905,831975,visual_patterns,0,0,0,yes,1366
undefined,undefined,undefined,undefined,white,no,Mozilla,Netscape,"5.0 (Windows NT 10.0; Win64; x64) AppleWebKit/537.36 (KHTML, like Gecko) Chrome/99.0.4844.82 Safari/537.36",xpyriment,legacy,legacy,0,uniform,0,0,0,0,24,24,24,0,0,74,74,74,74,74,0,74,0,5,5,5,5,5,0,5,26-02-22,26-02-22,18:59:07,Sat Mar 26 2022 18:59:07 GMT+0100 (Central European Standard Time),The main experiment item,yes,0,0,C:/Users/rrics/Documents/!!ResearchBMECOGSCI/gnet,0,0,0,prototype3.png,no,mono,no,18,no,black,no,no,768,1212,3.5.6,legacy,xpyriment,osweb,1.3.13,0,space,space,enter,space,157994,27210,26530,157994,2,legacy,824,1536,24,864,24,0,0,1536,1648317637832,1024,2,48000,-16,experiment,p1sarrsha4.png,0,even,Win32,63,139102,136086,63,63,654393,655904,649391,140620,649391,63,839493,841005,836493,655905,836493,visual_patterns,0,0,0,yes,1366
undefined,undefined,undefined,undefined,white,no,Mozilla,Netscape,"5.0 (Windows NT 10.0; Win64; x64) AppleWebKit/537.36 (KHTML, like Gecko) Chrome/99.0.4844.82 Safari/537.36",xpyriment,legacy,legacy,0,uniform,0,0,0,0,24,24,24,0,0,74,74,74,74,74,0,74,0,6,6,6,6,6,0,6,26-02-22,26-02-22,18:59:07,Sat Mar 26 2022 18:59:07 GMT+0100 (Central European Standard Time),The main experiment item,yes,0,0,C:/Users/rrics/Documents/!!ResearchBMECOGSCI/gnet,0,0,0,prototype3.png,no,mono,no,18,no,black,no,no,768,1212,3.5.6,legacy,xpyriment,osweb,1.3.13,0,space,space,enter,space,157994,27210,26530,157994,2,legacy,824,1536,24,864,24,0,0,1536,1648317637832,1024,2,48000,-16,experiment,p3sarrcol2.png,0,even,Win32,63,139102,136086,63,63,654393,655904,649391,140620,649391,63,844017,845522,841014,655905,841014,visual_patterns,0,0,0,yes,1366
undefined,undefined,undefined,undefined,white,no,Mozilla,Netscape,"5.0 (Windows NT 10.0; Win64; x64) AppleWebKit/537.36 (KHTML, like Gecko) Chrome/99.0.4844.82 Safari/537.36",xpyriment,legacy,legacy,0,uniform,0,0,0,0,24,24,24,0,0,74,74,74,74,74,0,74,0,7,7,7,7,7,0,7,26-02-22,26-02-22,18:59:07,Sat Mar 26 2022 18:59:07 GMT+0100 (Central European Standard Time),The main experiment item,yes,0,0,C:/Users/rrics/Documents/!!ResearchBMECOGSCI/gnet,0,0,0,prototype3.png,no,mono,no,18,no,black,no,no,768,1212,3.5.6,legacy,xpyriment,osweb,1.3.13,0,space,space,enter,space,157994,27210,26530,157994,2,legacy,824,1536,24,864,24,0,0,1536,1648317637832,1024,2,48000,-16,experiment,p3sarrcol3.png,0,even,Win32,63,139102,136086,63,63,654393,655904,649391,140620,649391,63,848529,850038,845526,655905,845526,visual_patterns,0,0,0,yes,1366
undefined,undefined,undefined,undefined,white,no,Mozilla,Netscape,"5.0 (Windows NT 10.0; Win64; x64) AppleWebKit/537.36 (KHTML, like Gecko) Chrome/99.0.4844.82 Safari/537.36",xpyriment,legacy,legacy,0,uniform,0,0,0,0,24,24,24,0,0,74,74,74,74,74,0,74,0,8,8,8,8,8,0,8,26-02-22,26-02-22,18:59:07,Sat Mar 26 2022 18:59:07 GMT+0100 (Central European Standard Time),The main experiment item,yes,0,0,C:/Users/rrics/Documents/!!ResearchBMECOGSCI/gnet,0,0,0,prototype3.png,no,mono,no,18,no,black,no,no,768,1212,3.5.6,legacy,xpyriment,osweb,1.3.13,0,space,space,enter,space,157994,27210,26530,157994,2,legacy,824,1536,24,864,24,0,0,1536,1648317637832,1024,2,48000,-16,experiment,p1sarrsha1.png,0,even,Win32,63,139102,136086,63,63,654393,655904,649391,140620,649391,63,853045,854555,850042,655905,850042,visual_patterns,0,0,0,yes,1366
undefined,undefined,undefined,undefined,white,no,Mozilla,Netscape,"5.0 (Windows NT 10.0; Win64; x64) AppleWebKit/537.36 (KHTML, like Gecko) Chrome/99.0.4844.82 Safari/537.36",xpyriment,legacy,legacy,0,uniform,0,0,0,0,24,24,24,0,0,74,74,74,74,74,0,74,0,9,9,9,9,9,0,9,26-02-22,26-02-22,18:59:07,Sat Mar 26 2022 18:59:07 GMT+0100 (Central European Standard Time),The main experiment item,yes,0,0,C:/Users/rrics/Documents/!!ResearchBMECOGSCI/gnet,0,0,0,prototype3.png,no,mono,no,18,no,black,no,no,768,1212,3.5.6,legacy,xpyriment,osweb,1.3.13,0,space,space,enter,space,157994,27210,26530,157994,2,legacy,824,1536,24,864,24,0,0,1536,1648317637832,1024,2,48000,-16,experiment,p4sarr1.png,0,even,Win32,63,139102,136086,63,63,654393,655904,649391,140620,649391,63,857560,859071,854559,655905,854559,visual_patterns,0,0,0,yes,1366
undefined,undefined,undefined,undefined,white,no,Mozilla,Netscape,"5.0 (Windows NT 10.0; Win64; x64) AppleWebKit/537.36 (KHTML, like Gecko) Chrome/99.0.4844.82 Safari/537.36",xpyriment,legacy,legacy,0,uniform,0,0,0,0,24,24,24,0,0,74,74,74,74,74,0,74,0,10,10,10,10,10,0,10,26-02-22,26-02-22,18:59:07,Sat Mar 26 2022 18:59:07 GMT+0100 (Central European Standard Time),The main experiment item,yes,0,0,C:/Users/rrics/Documents/!!ResearchBMECOGSCI/gnet,0,0,0,prototype3.png,no,mono,no,18,no,black,no,no,768,1212,3.5.6,legacy,xpyriment,osweb,1.3.13,0,space,space,enter,space,157994,27210,26530,157994,2,legacy,824,1536,24,864,24,0,0,1536,1648317637832,1024,2,48000,-16,experiment,p9sarr2.png,0,even,Win32,63,139102,136086,63,63,654393,655904,649391,140620,649391,63,862076,863588,859075,655905,859075,visual_patterns,0,0,0,yes,1366
undefined,undefined,undefined,undefined,white,no,Mozilla,Netscape,"5.0 (Windows NT 10.0; Win64; x64) AppleWebKit/537.36 (KHTML, like Gecko) Chrome/99.0.4844.82 Safari/537.36",xpyriment,legacy,legacy,0,uniform,0,0,0,0,24,24,24,0,0,74,74,74,74,74,0,74,0,11,11,11,11,11,0,11,26-02-22,26-02-22,18:59:07,Sat Mar 26 2022 18:59:07 GMT+0100 (Central European Standard Time),The main experiment item,yes,0,0,C:/Users/rrics/Documents/!!ResearchBMECOGSCI/gnet,0,0,0,prototype3.png,no,mono,no,18,no,black,no,no,768,1212,3.5.6,legacy,xpyriment,osweb,1.3.13,0,space,space,enter,space,157994,27210,26530,157994,2,legacy,824,1536,24,864,24,0,0,1536,1648317637832,1024,2,48000,-16,experiment,p1sarr2.png,0,even,Win32,63,139102,136086,63,63,654393,655904,649391,140620,649391,63,866594,868106,863592,655905,863592,visual_patterns,0,0,0,yes,1366
undefined,undefined,undefined,undefined,white,no,Mozilla,Netscape,"5.0 (Windows NT 10.0; Win64; x64) AppleWebKit/537.36 (KHTML, like Gecko) Chrome/99.0.4844.82 Safari/537.36",xpyriment,legacy,legacy,0,uniform,0,0,0,0,24,24,24,0,0,74,74,74,74,74,0,74,0,12,12,12,12,12,0,12,26-02-22,26-02-22,18:59:07,Sat Mar 26 2022 18:59:07 GMT+0100 (Central European Standard Time),The main experiment item,yes,0,0,C:/Users/rrics/Documents/!!ResearchBMECOGSCI/gnet,0,0,0,prototype3.png,no,mono,no,18,no,black,no,no,768,1212,3.5.6,legacy,xpyriment,osweb,1.3.13,0,space,space,enter,space,157994,27210,26530,157994,2,legacy,824,1536,24,864,24,0,0,1536,1648317637832,1024,2,48000,-16,experiment,p3sarrcol4.png,0,even,Win32,63,139102,136086,63,63,654393,655904,649391,140620,649391,63,871110,872622,868111,655905,868110,visual_patterns,0,0,0,yes,1366
undefined,undefined,undefined,undefined,white,no,Mozilla,Netscape,"5.0 (Windows NT 10.0; Win64; x64) AppleWebKit/537.36 (KHTML, like Gecko) Chrome/99.0.4844.82 Safari/537.36",xpyriment,legacy,legacy,0,uniform,0,0,0,0,24,24,24,0,0,74,74,74,74,74,0,74,0,13,13,13,13,13,0,13,26-02-22,26-02-22,18:59:07,Sat Mar 26 2022 18:59:07 GMT+0100 (Central European Standard Time),The main experiment item,yes,0,0,C:/Users/rrics/Documents/!!ResearchBMECOGSCI/gnet,0,0,0,prototype3.png,no,mono,no,18,no,black,no,no,768,1212,3.5.6,legacy,xpyriment,osweb,1.3.13,0,space,space,enter,space,157994,27210,26530,157994,2,legacy,824,1536,24,864,24,0,0,1536,1648317637832,1024,2,48000,-16,experiment,p2sarrshacol2.png,0,even,Win32,63,139102,136086,63,63,654393,655904,649391,140620,649391,63,875629,877138,872625,655905,872625,visual_patterns,0,0,0,yes,1366
undefined,undefined,undefined,undefined,white,no,Mozilla,Netscape,"5.0 (Windows NT 10.0; Win64; x64) AppleWebKit/537.36 (KHTML, like Gecko) Chrome/99.0.4844.82 Safari/537.36",xpyriment,legacy,legacy,0,uniform,0,0,0,0,24,24,24,0,0,74,74,74,74,74,0,74,0,14,14,14,14,14,0,14,26-02-22,26-02-22,18:59:07,Sat Mar 26 2022 18:59:07 GMT+0100 (Central European Standard Time),The main experiment item,yes,0,0,C:/Users/rrics/Documents/!!ResearchBMECOGSCI/gnet,0,0,0,prototype3.png,no,mono,no,18,no,black,no,no,768,1212,3.5.6,legacy,xpyriment,osweb,1.3.13,0,space,space,enter,space,157994,27210,26530,157994,2,legacy,824,1536,24,864,24,0,0,1536,1648317637832,1024,2,48000,-16,experiment,p6sarr1.png,0,even,Win32,63,139102,136086,63,63,654393,655904,649391,140620,649391,63,880143,881655,877142,655905,877142,visual_patterns,0,0,0,yes,1366
undefined,undefined,undefined,undefined,white,no,Mozilla,Netscape,"5.0 (Windows NT 10.0; Win64; x64) AppleWebKit/537.36 (KHTML, like Gecko) Chrome/99.0.4844.82 Safari/537.36",xpyriment,legacy,legacy,0,uniform,0,0,0,0,24,24,24,0,0,74,74,74,74,74,0,74,0,15,15,15,15,15,0,15,26-02-22,26-02-22,18:59:07,Sat Mar 26 2022 18:59:07 GMT+0100 (Central European Standard Time),The main experiment item,yes,0,0,C:/Users/rrics/Documents/!!ResearchBMECOGSCI/gnet,0,0,0,prototype3.png,no,mono,no,18,no,black,no,no,768,1212,3.5.6,legacy,xpyriment,osweb,1.3.13,0,space,space,enter,space,157994,27210,26530,157994,2,legacy,824,1536,24,864,24,0,0,1536,1648317637832,1024,2,48000,-16,experiment,p4sarrshacol3.png,0,even,Win32,63,139102,136086,63,63,654393,655904,649391,140620,649391,63,884662,886171,881660,655905,881660,visual_patterns,0,0,0,yes,1366
undefined,undefined,undefined,undefined,white,no,Mozilla,Netscape,"5.0 (Windows NT 10.0; Win64; x64) AppleWebKit/537.36 (KHTML, like Gecko) Chrome/99.0.4844.82 Safari/537.36",xpyriment,legacy,legacy,0,uniform,0,0,0,0,24,24,24,0,0,74,74,74,74,74,0,74,0,16,16,16,16,16,0,16,26-02-22,26-02-22,18:59:07,Sat Mar 26 2022 18:59:07 GMT+0100 (Central European Standard Time),The main experiment item,yes,0,0,C:/Users/rrics/Documents/!!ResearchBMECOGSCI/gnet,0,0,0,prototype3.png,no,mono,no,18,no,black,no,no,768,1212,3.5.6,legacy,xpyriment,osweb,1.3.13,0,space,space,enter,space,157994,27210,26530,157994,2,legacy,824,1536,24,864,24,0,0,1536,1648317637832,1024,2,48000,-16,experiment,p4sarrshacol4.png,0,even,Win32,63,139102,136086,63,63,654393,655904,649391,140620,649391,63,889184,890688,886182,655905,886181,visual_patterns,0,0,0,yes,1366
undefined,undefined,undefined,undefined,white,no,Mozilla,Netscape,"5.0 (Windows NT 10.0; Win64; x64) AppleWebKit/537.36 (KHTML, like Gecko) Chrome/99.0.4844.82 Safari/537.36",xpyriment,legacy,legacy,0,uniform,0,0,0,0,24,24,24,0,0,74,74,74,74,74,0,74,0,17,17,17,17,17,0,17,26-02-22,26-02-22,18:59:07,Sat Mar 26 2022 18:59:07 GMT+0100 (Central European Standard Time),The main experiment item,yes,0,0,C:/Users/rrics/Documents/!!ResearchBMECOGSCI/gnet,0,0,0,prototype3.png,no,mono,no,18,no,black,no,no,768,1212,3.5.6,legacy,xpyriment,osweb,1.3.13,0,space,space,enter,space,157994,27210,26530,157994,2,legacy,824,1536,24,864,24,0,0,1536,1648317637832,1024,2,48000,-16,experiment,p2sarrcol1.png,0,even,Win32,63,139102,136086,63,63,654393,655904,649391,140620,649391,63,893693,895205,890693,655905,890693,visual_patterns,0,0,0,yes,1366
undefined,undefined,undefined,undefined,white,no,Mozilla,Netscape,"5.0 (Windows NT 10.0; Win64; x64) AppleWebKit/537.36 (KHTML, like Gecko) Chrome/99.0.4844.82 Safari/537.36",xpyriment,legacy,legacy,0,uniform,0,0,0,0,24,24,24,0,0,74,74,74,74,74,0,74,0,18,18,18,18,18,0,18,26-02-22,26-02-22,18:59:07,Sat Mar 26 2022 18:59:07 GMT+0100 (Central European Standard Time),The main experiment item,yes,0,0,C:/Users/rrics/Documents/!!ResearchBMECOGSCI/gnet,0,0,0,prototype3.png,no,mono,no,18,no,black,no,no,768,1212,3.5.6,legacy,xpyriment,osweb,1.3.13,0,space,space,enter,space,157994,27210,26530,157994,2,legacy,824,1536,24,864,24,0,0,1536,1648317637832,1024,2,48000,-16,experiment,p1sarr4.png,0,even,Win32,63,139102,136086,63,63,654393,655904,649391,140620,649391,63,898208,899722,895209,655905,895209,visual_patterns,0,0,0,yes,1366
undefined,undefined,undefined,undefined,white,no,Mozilla,Netscape,"5.0 (Windows NT 10.0; Win64; x64) AppleWebKit/537.36 (KHTML, like Gecko) Chrome/99.0.4844.82 Safari/537.36",xpyriment,legacy,legacy,0,uniform,0,0,0,0,24,24,24,0,0,74,74,74,74,74,0,74,0,19,19,19,19,19,0,19,26-02-22,26-02-22,18:59:07,Sat Mar 26 2022 18:59:07 GMT+0100 (Central European Standard Time),The main experiment item,yes,0,0,C:/Users/rrics/Documents/!!ResearchBMECOGSCI/gnet,0,0,0,prototype3.png,no,mono,no,18,no,black,no,no,768,1212,3.5.6,legacy,xpyriment,osweb,1.3.13,0,space,space,enter,space,157994,27210,26530,157994,2,legacy,824,1536,24,864,24,0,0,1536,1648317637832,1024,2,48000,-16,experiment,p10sarr1.png,0,even,Win32,63,139102,136086,63,63,654393,655904,649391,140620,649391,63,902726,904238,899726,655905,899726,visual_patterns,0,0,0,yes,1366
undefined,undefined,undefined,undefined,white,no,Mozilla,Netscape,"5.0 (Windows NT 10.0; Win64; x64) AppleWebKit/537.36 (KHTML, like Gecko) Chrome/99.0.4844.82 Safari/537.36",xpyriment,legacy,legacy,0,uniform,0,0,0,0,24,24,24,0,0,74,74,74,74,74,0,74,0,20,20,20,20,20,0,20,26-02-22,26-02-22,18:59:07,Sat Mar 26 2022 18:59:07 GMT+0100 (Central European Standard Time),The main experiment item,yes,0,0,C:/Users/rrics/Documents/!!ResearchBMECOGSCI/gnet,0,0,0,prototype3.png,no,mono,no,18,no,black,no,no,768,1212,3.5.6,legacy,xpyriment,osweb,1.3.13,0,space,space,enter,space,157994,27210,26530,157994,2,legacy,824,1536,24,864,24,0,0,1536,1648317637832,1024,2,48000,-16,experiment,p8sarr3.png,0,even,Win32,63,139102,136086,63,63,654393,655904,649391,140620,649391,63,907243,908755,904243,655905,904243,visual_patterns,0,0,0,yes,1366
undefined,undefined,undefined,undefined,white,no,Mozilla,Netscape,"5.0 (Windows NT 10.0; Win64; x64) AppleWebKit/537.36 (KHTML, like Gecko) Chrome/99.0.4844.82 Safari/537.36",xpyriment,legacy,legacy,0,uniform,0,0,0,0,24,24,24,0,0,74,74,74,74,74,0,74,0,21,21,21,21,21,0,21,26-02-22,26-02-22,18:59:07,Sat Mar 26 2022 18:59:07 GMT+0100 (Central European Standard Time),The main experiment item,yes,0,0,C:/Users/rrics/Documents/!!ResearchBMECOGSCI/gnet,0,0,0,prototype3.png,no,mono,no,18,no,black,no,no,768,1212,3.5.6,legacy,xpyriment,osweb,1.3.13,0,space,space,enter,space,157994,27210,26530,157994,2,legacy,824,1536,24,864,24,0,0,1536,1648317637832,1024,2,48000,-16,experiment,p9sarr4.png,0,even,Win32,63,139102,136086,63,63,654393,655904,649391,140620,649391,63,911769,913272,908765,655905,908765,visual_patterns,0,0,0,yes,1366
undefined,undefined,undefined,undefined,white,no,Mozilla,Netscape,"5.0 (Windows NT 10.0; Win64; x64) AppleWebKit/537.36 (KHTML, like Gecko) Chrome/99.0.4844.82 Safari/537.36",xpyriment,legacy,legacy,0,uniform,0,0,0,0,24,24,24,0,0,74,74,74,74,74,0,74,0,22,22,22,22,22,0,22,26-02-22,26-02-22,18:59:07,Sat Mar 26 2022 18:59:07 GMT+0100 (Central European Standard Time),The main experiment item,yes,0,0,C:/Users/rrics/Documents/!!ResearchBMECOGSCI/gnet,0,0,0,prototype3.png,no,mono,no,18,no,black,no,no,768,1212,3.5.6,legacy,xpyriment,osweb,1.3.13,0,space,space,enter,space,157994,27210,26530,157994,2,legacy,824,1536,24,864,24,0,0,1536,1648317637832,1024,2,48000,-16,experiment,p5sarrcol2.png,0,even,Win32,63,139102,136086,63,63,654393,655904,649391,140620,649391,63,916277,917788,913275,655905,913275,visual_patterns,0,0,0,yes,1366
undefined,undefined,undefined,undefined,white,no,Mozilla,Netscape,"5.0 (Windows NT 10.0; Win64; x64) AppleWebKit/537.36 (KHTML, like Gecko) Chrome/99.0.4844.82 Safari/537.36",xpyriment,legacy,legacy,0,uniform,0,0,0,0,24,24,24,0,0,74,74,74,74,74,0,74,0,23,23,23,23,23,0,23,26-02-22,26-02-22,18:59:07,Sat Mar 26 2022 18:59:07 GMT+0100 (Central European Standard Time),The main experiment item,yes,0,0,C:/Users/rrics/Documents/!!ResearchBMECOGSCI/gnet,0,0,0,prototype3.png,no,mono,no,18,no,black,no,no,768,1212,3.5.6,legacy,xpyriment,osweb,1.3.13,0,space,space,enter,space,157994,27210,26530,157994,2,legacy,824,1536,24,864,24,0,0,1536,1648317637832,1024,2,48000,-16,experiment,p7sarr4.png,0,even,Win32,63,139102,136086,63,63,654393,655904,649391,140620,649391,63,920794,922305,917793,655905,917793,visual_patterns,0,0,0,yes,1366
undefined,undefined,undefined,undefined,white,no,Mozilla,Netscape,"5.0 (Windows NT 10.0; Win64; x64) AppleWebKit/537.36 (KHTML, like Gecko) Chrome/99.0.4844.82 Safari/537.36",xpyriment,legacy,legacy,0,uniform,0,0,0,0,24,24,24,0,0,74,74,74,74,74,0,74,0,24,24,24,24,24,0,24,26-02-22,26-02-22,18:59:07,Sat Mar 26 2022 18:59:07 GMT+0100 (Central European Standard Time),The main experiment item,yes,0,0,C:/Users/rrics/Documents/!!ResearchBMECOGSCI/gnet,0,0,0,prototype3.png,no,mono,no,18,no,black,no,no,768,1212,3.5.6,legacy,xpyriment,osweb,1.3.13,0,space,space,enter,space,157994,27210,26530,157994,2,legacy,824,1536,24,864,24,0,0,1536,1648317637832,1024,2,48000,-16,experiment,p3sarrsha3.png,0,even,Win32,63,139102,136086,63,63,654393,655904,649391,140620,649391,63,925312,926822,922310,655905,922310,visual_patterns,0,0,0,yes,1366
undefined,undefined,undefined,undefined,white,no,Mozilla,Netscape,"5.0 (Windows NT 10.0; Win64; x64) AppleWebKit/537.36 (KHTML, like Gecko) Chrome/99.0.4844.82 Safari/537.36",xpyriment,legacy,legacy,0,uniform,0,0,0,0,24,24,24,0,0,74,74,74,74,74,0,74,0,25,25,25,25,25,0,25,26-02-22,26-02-22,18:59:07,Sat Mar 26 2022 18:59:07 GMT+0100 (Central European Standard Time),The main experiment item,yes,0,0,C:/Users/rrics/Documents/!!ResearchBMECOGSCI/gnet,0,0,0,prototype3.png,no,mono,no,18,no,black,no,no,768,1212,3.5.6,legacy,xpyriment,osweb,1.3.13,0,space,space,enter,space,157994,27210,26530,157994,2,legacy,824,1536,24,864,24,0,0,1536,1648317637832,1024,2,48000,-16,experiment,p8sarr4.png,0,even,Win32,63,139102,136086,63,63,654393,655904,649391,140620,649391,63,929830,931338,926826,655905,926826,visual_patterns,0,0,0,yes,1366
undefined,undefined,undefined,undefined,white,no,Mozilla,Netscape,"5.0 (Windows NT 10.0; Win64; x64) AppleWebKit/537.36 (KHTML, like Gecko) Chrome/99.0.4844.82 Safari/537.36",xpyriment,legacy,legacy,0,uniform,0,0,0,0,24,24,24,0,0,74,74,74,74,74,0,74,0,26,26,26,26,26,0,26,26-02-22,26-02-22,18:59:07,Sat Mar 26 2022 18:59:07 GMT+0100 (Central European Standard Time),The main experiment item,yes,0,0,C:/Users/rrics/Documents/!!ResearchBMECOGSCI/gnet,0,0,0,prototype3.png,no,mono,no,18,no,black,no,no,768,1212,3.5.6,legacy,xpyriment,osweb,1.3.13,0,space,space,enter,space,157994,27210,26530,157994,2,legacy,824,1536,24,864,24,0,0,1536,1648317637832,1024,2,48000,-16,experiment,p2sarrshacol4.png,0,even,Win32,63,139102,136086,63,63,654393,655904,649391,140620,649391,63,934344,935855,931343,655905,931343,visual_patterns,0,0,0,yes,1366
undefined,undefined,undefined,undefined,white,no,Mozilla,Netscape,"5.0 (Windows NT 10.0; Win64; x64) AppleWebKit/537.36 (KHTML, like Gecko) Chrome/99.0.4844.82 Safari/537.36",xpyriment,legacy,legacy,0,uniform,0,0,0,0,24,24,24,0,0,74,74,74,74,74,0,74,0,27,27,27,27,27,0,27,26-02-22,26-02-22,18:59:07,Sat Mar 26 2022 18:59:07 GMT+0100 (Central European Standard Time),The main experiment item,yes,0,0,C:/Users/rrics/Documents/!!ResearchBMECOGSCI/gnet,0,0,0,prototype3.png,no,mono,no,18,no,black,no,no,768,1212,3.5.6,legacy,xpyriment,osweb,1.3.13,0,space,space,enter,space,157994,27210,26530,157994,2,legacy,824,1536,24,864,24,0,0,1536,1648317637832,1024,2,48000,-16,experiment,p4sarrshacol1.png,0,even,Win32,63,139102,136086,63,63,654393,655904,649391,140620,649391,63,938862,940372,935859,655905,935859,visual_patterns,0,0,0,yes,1366
undefined,undefined,undefined,undefined,white,no,Mozilla,Netscape,"5.0 (Windows NT 10.0; Win64; x64) AppleWebKit/537.36 (KHTML, like Gecko) Chrome/99.0.4844.82 Safari/537.36",xpyriment,legacy,legacy,0,uniform,0,0,0,0,24,24,24,0,0,74,74,74,74,74,0,74,0,28,28,28,28,28,0,28,26-02-22,26-02-22,18:59:07,Sat Mar 26 2022 18:59:07 GMT+0100 (Central European Standard Time),The main experiment item,yes,0,0,C:/Users/rrics/Documents/!!ResearchBMECOGSCI/gnet,0,0,0,prototype3.png,no,mono,no,18,no,black,no,no,768,1212,3.5.6,legacy,xpyriment,osweb,1.3.13,0,space,space,enter,space,157994,27210,26530,157994,2,legacy,824,1536,24,864,24,0,0,1536,1648317637832,1024,2,48000,-16,experiment,p1sarrshacol3.png,0,even,Win32,63,139102,136086,63,63,654393,655904,649391,140620,649391,63,943380,944889,940376,655905,940376,visual_patterns,0,0,0,yes,1366
undefined,undefined,undefined,undefined,white,no,Mozilla,Netscape,"5.0 (Windows NT 10.0; Win64; x64) AppleWebKit/537.36 (KHTML, like Gecko) Chrome/99.0.4844.82 Safari/537.36",xpyriment,legacy,legacy,0,uniform,0,0,0,0,24,24,24,0,0,74,74,74,74,74,0,74,0,29,29,29,29,29,0,29,26-02-22,26-02-22,18:59:07,Sat Mar 26 2022 18:59:07 GMT+0100 (Central European Standard Time),The main experiment item,yes,0,0,C:/Users/rrics/Documents/!!ResearchBMECOGSCI/gnet,0,0,0,prototype3.png,no,mono,no,18,no,black,no,no,768,1212,3.5.6,legacy,xpyriment,osweb,1.3.13,0,space,space,enter,space,157994,27210,26530,157994,2,legacy,824,1536,24,864,24,0,0,1536,1648317637832,1024,2,48000,-16,experiment,p2sarrsha1.png,0,even,Win32,63,139102,136086,63,63,654393,655904,649391,140620,649391,63,947895,949405,944892,655905,944892,visual_patterns,0,0,0,yes,1366
undefined,undefined,undefined,undefined,white,no,Mozilla,Netscape,"5.0 (Windows NT 10.0; Win64; x64) AppleWebKit/537.36 (KHTML, like Gecko) Chrome/99.0.4844.82 Safari/537.36",xpyriment,legacy,legacy,0,uniform,0,0,0,0,24,24,24,0,0,74,74,74,74,74,0,74,0,30,30,30,30,30,0,30,26-02-22,26-02-22,18:59:07,Sat Mar 26 2022 18:59:07 GMT+0100 (Central European Standard Time),The main experiment item,yes,0,0,C:/Users/rrics/Documents/!!ResearchBMECOGSCI/gnet,0,0,0,prototype3.png,no,mono,no,18,no,black,no,no,768,1212,3.5.6,legacy,xpyriment,osweb,1.3.13,0,space,space,enter,space,157994,27210,26530,157994,2,legacy,824,1536,24,864,24,0,0,1536,1648317637832,1024,2,48000,-16,experiment,p3sarr2.png,0,even,Win32,63,139102,136086,63,63,654393,655904,649391,140620,649391,63,952410,953922,949409,655905,949409,visual_patterns,0,0,0,yes,1366
undefined,undefined,undefined,undefined,white,no,Mozilla,Netscape,"5.0 (Windows NT 10.0; Win64; x64) AppleWebKit/537.36 (KHTML, like Gecko) Chrome/99.0.4844.82 Safari/537.36",xpyriment,legacy,legacy,0,uniform,0,0,0,0,24,24,24,0,0,74,74,74,74,74,0,74,0,31,31,31,31,31,0,31,26-02-22,26-02-22,18:59:07,Sat Mar 26 2022 18:59:07 GMT+0100 (Central European Standard Time),The main experiment item,yes,0,0,C:/Users/rrics/Documents/!!ResearchBMECOGSCI/gnet,0,0,0,prototype3.png,no,mono,no,18,no,black,no,no,768,1212,3.5.6,legacy,xpyriment,osweb,1.3.13,0,space,space,enter,space,157994,27210,26530,157994,2,legacy,824,1536,24,864,24,0,0,1536,1648317637832,1024,2,48000,-16,experiment,p3sarrshacol3.png,0,even,Win32,63,139102,136086,63,63,654393,655904,649391,140620,649391,63,956936,958439,953933,655905,953933,visual_patterns,0,0,0,yes,1366
undefined,undefined,undefined,undefined,white,no,Mozilla,Netscape,"5.0 (Windows NT 10.0; Win64; x64) AppleWebKit/537.36 (KHTML, like Gecko) Chrome/99.0.4844.82 Safari/537.36",xpyriment,legacy,legacy,0,uniform,0,0,0,0,24,24,24,0,0,74,74,74,74,74,0,74,0,32,32,32,32,32,0,32,26-02-22,26-02-22,18:59:07,Sat Mar 26 2022 18:59:07 GMT+0100 (Central European Standard Time),The main experiment item,yes,0,0,C:/Users/rrics/Documents/!!ResearchBMECOGSCI/gnet,0,0,0,prototype3.png,no,mono,no,18,no,black,no,no,768,1212,3.5.6,legacy,xpyriment,osweb,1.3.13,0,space,space,enter,space,157994,27210,26530,157994,2,legacy,824,1536,24,864,24,0,0,1536,1648317637832,1024,2,48000,-16,experiment,p2sarrcol4.png,0,even,Win32,63,139102,136086,63,63,654393,655904,649391,140620,649391,63,961445,962955,958444,655905,958444,visual_patterns,0,0,0,yes,1366
undefined,undefined,undefined,undefined,white,no,Mozilla,Netscape,"5.0 (Windows NT 10.0; Win64; x64) AppleWebKit/537.36 (KHTML, like Gecko) Chrome/99.0.4844.82 Safari/537.36",xpyriment,legacy,legacy,0,uniform,0,0,0,0,24,24,24,0,0,74,74,74,74,74,0,74,0,33,33,33,33,33,0,33,26-02-22,26-02-22,18:59:07,Sat Mar 26 2022 18:59:07 GMT+0100 (Central European Standard Time),The main experiment item,yes,0,0,C:/Users/rrics/Documents/!!ResearchBMECOGSCI/gnet,0,0,0,prototype3.png,no,mono,no,18,no,black,no,no,768,1212,3.5.6,legacy,xpyriment,osweb,1.3.13,0,space,space,enter,space,157994,27210,26530,157994,2,legacy,824,1536,24,864,24,0,0,1536,1648317637832,1024,2,48000,-16,experiment,p5sarrcol1.png,0,even,Win32,63,139102,136086,63,63,654393,655904,649391,140620,649391,63,965960,967473,962959,655905,962959,visual_patterns,0,0,0,yes,1366
undefined,undefined,undefined,undefined,white,no,Mozilla,Netscape,"5.0 (Windows NT 10.0; Win64; x64) AppleWebKit/537.36 (KHTML, like Gecko) Chrome/99.0.4844.82 Safari/537.36",xpyriment,legacy,legacy,0,uniform,0,0,0,0,24,24,24,0,0,74,74,74,74,74,0,74,0,34,34,34,34,34,0,34,26-02-22,26-02-22,18:59:07,Sat Mar 26 2022 18:59:07 GMT+0100 (Central European Standard Time),The main experiment item,yes,0,0,C:/Users/rrics/Documents/!!ResearchBMECOGSCI/gnet,0,0,0,prototype3.png,no,mono,no,18,no,black,no,no,768,1212,3.5.6,legacy,xpyriment,osweb,1.3.13,0,space,space,enter,space,157994,27210,26530,157994,2,legacy,824,1536,24,864,24,0,0,1536,1648317637832,1024,2,48000,-16,experiment,p8sarr2.png,0,even,Win32,63,139102,136086,63,63,654393,655904,649391,140620,649391,63,970480,971989,967477,655905,967477,visual_patterns,0,0,0,yes,1366
undefined,undefined,undefined,undefined,white,no,Mozilla,Netscape,"5.0 (Windows NT 10.0; Win64; x64) AppleWebKit/537.36 (KHTML, like Gecko) Chrome/99.0.4844.82 Safari/537.36",xpyriment,legacy,legacy,0,uniform,0,0,0,0,24,24,24,0,0,74,74,74,74,74,0,74,0,35,35,35,35,35,0,35,26-02-22,26-02-22,18:59:07,Sat Mar 26 2022 18:59:07 GMT+0100 (Central European Standard Time),The main experiment item,yes,0,0,C:/Users/rrics/Documents/!!ResearchBMECOGSCI/gnet,0,0,0,prototype3.png,no,mono,no,18,no,black,no,no,768,1212,3.5.6,legacy,xpyriment,osweb,1.3.13,0,space,space,enter,space,157994,27210,26530,157994,2,legacy,824,1536,24,864,24,0,0,1536,1648317637832,1024,2,48000,-16,experiment,p5sarr3.png,0,even,Win32,63,139102,136086,63,63,654393,655904,649391,140620,649391,63,974996,976505,971993,655905,971993,visual_patterns,0,0,0,yes,1366
undefined,undefined,undefined,undefined,white,no,Mozilla,Netscape,"5.0 (Windows NT 10.0; Win64; x64) AppleWebKit/537.36 (KHTML, like Gecko) Chrome/99.0.4844.82 Safari/537.36",xpyriment,legacy,legacy,0,uniform,0,0,0,0,24,24,24,0,0,74,74,74,74,74,0,74,0,36,36,36,36,36,0,36,26-02-22,26-02-22,18:59:07,Sat Mar 26 2022 18:59:07 GMT+0100 (Central European Standard Time),The main experiment item,yes,0,0,C:/Users/rrics/Documents/!!ResearchBMECOGSCI/gnet,0,0,0,prototype3.png,no,mono,no,18,no,black,no,no,768,1212,3.5.6,legacy,xpyriment,osweb,1.3.13,0,space,space,enter,space,157994,27210,26530,157994,2,legacy,824,1536,24,864,24,0,0,1536,1648317637832,1024,2,48000,-16,experiment,p7sarr1.png,0,even,Win32,63,139102,136086,63,63,654393,655904,649391,140620,649391,63,979516,981022,976516,655905,976516,visual_patterns,0,0,0,yes,1366
undefined,undefined,undefined,undefined,white,no,Mozilla,Netscape,"5.0 (Windows NT 10.0; Win64; x64) AppleWebKit/537.36 (KHTML, like Gecko) Chrome/99.0.4844.82 Safari/537.36",xpyriment,legacy,legacy,0,uniform,0,0,0,0,24,24,24,0,0,74,74,74,74,74,0,74,0,37,37,37,37,37,0,37,26-02-22,26-02-22,18:59:07,Sat Mar 26 2022 18:59:07 GMT+0100 (Central European Standard Time),The main experiment item,yes,0,0,C:/Users/rrics/Documents/!!ResearchBMECOGSCI/gnet,0,0,0,prototype3.png,no,mono,no,18,no,black,no,no,768,1212,3.5.6,legacy,xpyriment,osweb,1.3.13,0,space,space,enter,space,157994,27210,26530,157994,2,legacy,824,1536,24,864,24,0,0,1536,1648317637832,1024,2,48000,-16,experiment,p1sarrcol4.png,0,even,Win32,63,139102,136086,63,63,654393,655904,649391,140620,649391,63,984028,985539,981027,655905,981027,visual_patterns,0,0,0,yes,1366
undefined,undefined,undefined,undefined,white,no,Mozilla,Netscape,"5.0 (Windows NT 10.0; Win64; x64) AppleWebKit/537.36 (KHTML, like Gecko) Chrome/99.0.4844.82 Safari/537.36",xpyriment,legacy,legacy,0,uniform,0,0,0,0,24,24,24,0,0,74,74,74,74,74,0,74,0,38,38,38,38,38,0,38,26-02-22,26-02-22,18:59:07,Sat Mar 26 2022 18:59:07 GMT+0100 (Central European Standard Time),The main experiment item,yes,0,0,C:/Users/rrics/Documents/!!ResearchBMECOGSCI/gnet,0,0,0,prototype3.png,no,mono,no,18,no,black,no,no,768,1212,3.5.6,legacy,xpyriment,osweb,1.3.13,0,space,space,enter,space,157994,27210,26530,157994,2,legacy,824,1536,24,864,24,0,0,1536,1648317637832,1024,2,48000,-16,experiment,p3sarrsha4.png,0,even,Win32,63,139102,136086,63,63,654393,655904,649391,140620,649391,63,988545,990055,985543,655905,985543,visual_patterns,0,0,0,yes,1366
undefined,undefined,undefined,undefined,white,no,Mozilla,Netscape,"5.0 (Windows NT 10.0; Win64; x64) AppleWebKit/537.36 (KHTML, like Gecko) Chrome/99.0.4844.82 Safari/537.36",xpyriment,legacy,legacy,0,uniform,0,0,0,0,24,24,24,0,0,74,74,74,74,74,0,74,0,39,39,39,39,39,0,39,26-02-22,26-02-22,18:59:07,Sat Mar 26 2022 18:59:07 GMT+0100 (Central European Standard Time),The main experiment item,yes,0,0,C:/Users/rrics/Documents/!!ResearchBMECOGSCI/gnet,0,0,0,prototype3.png,no,mono,no,18,no,black,no,no,768,1212,3.5.6,legacy,xpyriment,osweb,1.3.13,0,space,space,enter,space,157994,27210,26530,157994,2,legacy,824,1536,24,864,24,0,0,1536,1648317637832,1024,2,48000,-16,experiment,p3sarr1.png,0,even,Win32,63,139102,136086,63,63,654393,655904,649391,140620,649391,63,993061,994574,990059,655905,990059,visual_patterns,0,0,0,yes,1366
undefined,undefined,undefined,undefined,white,no,Mozilla,Netscape,"5.0 (Windows NT 10.0; Win64; x64) AppleWebKit/537.36 (KHTML, like Gecko) Chrome/99.0.4844.82 Safari/537.36",xpyriment,legacy,legacy,0,uniform,0,0,0,0,24,24,24,0,0,74,74,74,74,74,0,74,0,40,40,40,40,40,0,40,26-02-22,26-02-22,18:59:07,Sat Mar 26 2022 18:59:07 GMT+0100 (Central European Standard Time),The main experiment item,yes,0,0,C:/Users/rrics/Documents/!!ResearchBMECOGSCI/gnet,0,0,0,prototype3.png,no,mono,no,18,no,black,no,no,768,1212,3.5.6,legacy,xpyriment,osweb,1.3.13,0,space,space,enter,space,157994,27210,26530,157994,2,legacy,824,1536,24,864,24,0,0,1536,1648317637832,1024,2,48000,-16,experiment,p2sarrsha3.png,0,even,Win32,63,139102,136086,63,63,654393,655904,649391,140620,649391,63,997581,999089,994578,655905,994578,visual_patterns,0,0,0,yes,1366
undefined,undefined,undefined,undefined,white,no,Mozilla,Netscape,"5.0 (Windows NT 10.0; Win64; x64) AppleWebKit/537.36 (KHTML, like Gecko) Chrome/99.0.4844.82 Safari/537.36",xpyriment,legacy,legacy,0,uniform,0,0,0,0,24,24,24,0,0,74,74,74,74,74,0,74,0,41,41,41,41,41,0,41,26-02-22,26-02-22,18:59:07,Sat Mar 26 2022 18:59:07 GMT+0100 (Central European Standard Time),The main experiment item,yes,0,0,C:/Users/rrics/Documents/!!ResearchBMECOGSCI/gnet,0,0,0,prototype3.png,no,mono,no,18,no,black,no,no,768,1212,3.5.6,legacy,xpyriment,osweb,1.3.13,0,space,space,enter,space,157994,27210,26530,157994,2,legacy,824,1536,24,864,24,0,0,1536,1648317637832,1024,2,48000,-16,experiment,p9sarr3.png,0,even,Win32,63,139102,136086,63,63,654393,655904,649391,140620,649391,63,1002093,1003605,999093,655905,999093,visual_patterns,0,0,0,yes,1366
undefined,undefined,undefined,undefined,white,no,Mozilla,Netscape,"5.0 (Windows NT 10.0; Win64; x64) AppleWebKit/537.36 (KHTML, like Gecko) Chrome/99.0.4844.82 Safari/537.36",xpyriment,legacy,legacy,0,uniform,0,0,0,0,24,24,24,0,0,74,74,74,74,74,0,74,0,42,42,42,42,42,0,42,26-02-22,26-02-22,18:59:07,Sat Mar 26 2022 18:59:07 GMT+0100 (Central European Standard Time),The main experiment item,yes,0,0,C:/Users/rrics/Documents/!!ResearchBMECOGSCI/gnet,0,0,0,prototype3.png,no,mono,no,18,no,black,no,no,768,1212,3.5.6,legacy,xpyriment,osweb,1.3.13,0,space,space,enter,space,157994,27210,26530,157994,2,legacy,824,1536,24,864,24,0,0,1536,1648317637832,1024,2,48000,-16,experiment,p10sarr4.png,0,even,Win32,63,139102,136086,63,63,654393,655904,649391,140620,649391,63,1006611,1008122,1003610,655905,1003610,visual_patterns,0,0,0,yes,1366
undefined,undefined,undefined,undefined,white,no,Mozilla,Netscape,"5.0 (Windows NT 10.0; Win64; x64) AppleWebKit/537.36 (KHTML, like Gecko) Chrome/99.0.4844.82 Safari/537.36",xpyriment,legacy,legacy,0,uniform,0,0,0,0,24,24,24,0,0,74,74,74,74,74,0,74,0,43,43,43,43,43,0,43,26-02-22,26-02-22,18:59:07,Sat Mar 26 2022 18:59:07 GMT+0100 (Central European Standard Time),The main experiment item,yes,0,0,C:/Users/rrics/Documents/!!ResearchBMECOGSCI/gnet,0,0,0,prototype3.png,no,mono,no,18,no,black,no,no,768,1212,3.5.6,legacy,xpyriment,osweb,1.3.13,0,space,space,enter,space,157994,27210,26530,157994,2,legacy,824,1536,24,864,24,0,0,1536,1648317637832,1024,2,48000,-16,experiment,p4sarrcol1.png,0,even,Win32,63,139102,136086,63,63,654393,655904,649391,140620,649391,63,1011126,1012639,1008126,655905,1008126,visual_patterns,0,0,0,yes,1366
undefined,undefined,undefined,undefined,white,no,Mozilla,Netscape,"5.0 (Windows NT 10.0; Win64; x64) AppleWebKit/537.36 (KHTML, like Gecko) Chrome/99.0.4844.82 Safari/537.36",xpyriment,legacy,legacy,0,uniform,0,0,0,0,24,24,24,0,0,74,74,74,74,74,0,74,0,44,44,44,44,44,0,44,26-02-22,26-02-22,18:59:07,Sat Mar 26 2022 18:59:07 GMT+0100 (Central European Standard Time),The main experiment item,yes,0,0,C:/Users/rrics/Documents/!!ResearchBMECOGSCI/gnet,0,0,0,prototype3.png,no,mono,no,18,no,black,no,no,768,1212,3.5.6,legacy,xpyriment,osweb,1.3.13,0,space,space,enter,space,157994,27210,26530,157994,2,legacy,824,1536,24,864,24,0,0,1536,1648317637832,1024,2,48000,-16,experiment,p5sarrshacol4.png,0,even,Win32,63,139102,136086,63,63,654393,655904,649391,140620,649391,63,1015643,1017155,1012644,655905,1012644,visual_patterns,0,0,0,yes,1366
undefined,undefined,undefined,undefined,white,no,Mozilla,Netscape,"5.0 (Windows NT 10.0; Win64; x64) AppleWebKit/537.36 (KHTML, like Gecko) Chrome/99.0.4844.82 Safari/537.36",xpyriment,legacy,legacy,0,uniform,0,0,0,0,24,24,24,0,0,74,74,74,74,74,0,74,0,45,45,45,45,45,0,45,26-02-22,26-02-22,18:59:07,Sat Mar 26 2022 18:59:07 GMT+0100 (Central European Standard Time),The main experiment item,yes,0,0,C:/Users/rrics/Documents/!!ResearchBMECOGSCI/gnet,0,0,0,prototype3.png,no,mono,no,18,no,black,no,no,768,1212,3.5.6,legacy,xpyriment,osweb,1.3.13,0,space,space,enter,space,157994,27210,26530,157994,2,legacy,824,1536,24,864,24,0,0,1536,1648317637832,1024,2,48000,-16,experiment,p3sarr3.png,0,even,Win32,63,139102,136086,63,63,654393,655904,649391,140620,649391,63,1020159,1021672,1017161,655905,1017161,visual_patterns,0,0,0,yes,1366
undefined,undefined,undefined,undefined,white,no,Mozilla,Netscape,"5.0 (Windows NT 10.0; Win64; x64) AppleWebKit/537.36 (KHTML, like Gecko) Chrome/99.0.4844.82 Safari/537.36",xpyriment,legacy,legacy,0,uniform,0,0,0,0,24,24,24,0,0,74,74,74,74,74,0,74,0,46,46,46,46,46,0,46,26-02-22,26-02-22,18:59:07,Sat Mar 26 2022 18:59:07 GMT+0100 (Central European Standard Time),The main experiment item,yes,0,0,C:/Users/rrics/Documents/!!ResearchBMECOGSCI/gnet,0,0,0,prototype3.png,no,mono,no,18,no,black,no,no,768,1212,3.5.6,legacy,xpyriment,osweb,1.3.13,0,space,space,enter,space,157994,27210,26530,157994,2,legacy,824,1536,24,864,24,0,0,1536,1648317637832,1024,2,48000,-16,experiment,p2sarr3.png,0,even,Win32,63,139102,136086,63,63,654393,655904,649391,140620,649391,63,1024679,1026189,1021677,655905,1021677,visual_patterns,0,0,0,yes,1366
undefined,undefined,undefined,undefined,white,no,Mozilla,Netscape,"5.0 (Windows NT 10.0; Win64; x64) AppleWebKit/537.36 (KHTML, like Gecko) Chrome/99.0.4844.82 Safari/537.36",xpyriment,legacy,legacy,0,uniform,0,0,0,0,24,24,24,0,0,74,74,74,74,74,0,74,0,47,47,47,47,47,0,47,26-02-22,26-02-22,18:59:07,Sat Mar 26 2022 18:59:07 GMT+0100 (Central European Standard Time),The main experiment item,yes,0,0,C:/Users/rrics/Documents/!!ResearchBMECOGSCI/gnet,0,0,0,prototype3.png,no,mono,no,18,no,black,no,no,768,1212,3.5.6,legacy,xpyriment,osweb,1.3.13,0,space,space,enter,space,157994,27210,26530,157994,2,legacy,824,1536,24,864,24,0,0,1536,1648317637832,1024,2,48000,-16,experiment,p4sarr2.png,0,even,Win32,63,139102,136086,63,63,654393,655904,649391,140620,649391,63,1029197,1030705,1026193,655905,1026193,visual_patterns,0,0,0,yes,1366
