acc,accuracy,average_response_time,avg_rt,background,bidi,browser_codename,browser_name,browser_version,canvas_backend,clock_backend,color_backend,compensation,coordinates,count_end,count_experiment,count_osweb,count_prestudy,count_prestudy_isi,count_prestudy_sequence,count_prestudy_stimpres,count_start,count_study,count_study_coroutines,count_study_isi,count_study_logger,count_study_response,count_study_sequence,count_study_start,count_study_stimpres,count_test,count_test_coroutines,count_test_isi,count_test_logger,count_test_response,count_test_sequence,count_test_start,count_test_stimpres,date_startdate,date_startdateUTC,date_starttime,datetime,description,disable_garbage_collection,experiment_debug,experiment_parameters,experiment_path,experiment_pilot,experiment_taskname,experiment_taskversion,fampict,font_bold,font_family,font_italic,font_size,font_underline,foreground,form_clicks,fullscreen,height,jatosStudyResultId,jatosVersion,keyboard_backend,mouse_backend,opensesame_codename,opensesame_version,repeat_cycle,response,response_start,response_study_start,response_test_start,response_time,response_time_start,response_time_study_start,response_time_test_start,round_decimals,sampler_backend,screen_availableHeight,screen_availableWidth,screen_colorDepth,screen_height,screen_pixelDepth,screen_screenX,screen_screenY,screen_width,sessionid,sound_buf_size,sound_channels,sound_freq,sound_sample_size,start,stim,subject_nr,subject_parity,system_os,time_prestudy,time_prestudy_isi,time_prestudy_stimpres,time_start,time_study,time_study_isi,time_study_logger,time_study_response,time_study_start,time_study_stimpres,time_test,time_test_isi,time_test_logger,time_test_response,time_test_start,time_test_stimpres,title,total_correct,total_response_time,total_responses,uniform_coordinates,width
undefined,undefined,undefined,undefined,white,no,Mozilla,Netscape,"5.0 (Windows NT 10.0; Win64; x64) AppleWebKit/537.36 (KHTML, like Gecko) Chrome/99.0.4844.84 Safari/537.36",xpyriment,legacy,legacy,0,uniform,0,0,0,0,24,24,24,0,0,0,0,0,0,0,0,0,0,,,,,,0,,01-03-22,01-03-22,22:03:39,Fri Apr 01 2022 22:03:39 GMT+0200 (közép-európai nyári idő),The main experiment item,yes,0,0,C:/Users/rrics/Documents/!!ResearchBMECOGSCI/gnet,0,0,0,prototype3.png,no,mono,no,18,no,black,no,no,768,1214,3.5.6,legacy,xpyriment,osweb,1.3.13,0,left,space,left,,33599,23339,33599,,2,legacy,860,1600,24,900,24,0,0,1600,1648843438296,1024,2,48000,-16,experiment,p6sarr1.png,0,even,Win32,109,135264,132250,109,109,175411,176921,170410,136783,170410,109,,,,,,visual_patterns,0,0,0,yes,1366
undefined,undefined,undefined,undefined,white,no,Mozilla,Netscape,"5.0 (Windows NT 10.0; Win64; x64) AppleWebKit/537.36 (KHTML, like Gecko) Chrome/99.0.4844.84 Safari/537.36",xpyriment,legacy,legacy,0,uniform,0,0,0,0,24,24,24,0,0,1,1,1,1,1,0,1,0,,,,,,0,,01-03-22,01-03-22,22:03:39,Fri Apr 01 2022 22:03:39 GMT+0200 (közép-európai nyári idő),The main experiment item,yes,0,0,C:/Users/rrics/Documents/!!ResearchBMECOGSCI/gnet,0,0,0,prototype3.png,no,mono,no,18,no,black,no,no,768,1214,3.5.6,legacy,xpyriment,osweb,1.3.13,0,left,space,left,,33599,23339,33599,,2,legacy,860,1600,24,900,24,0,0,1600,1648843438296,1024,2,48000,-16,experiment,prototype3.png,0,even,Win32,109,135264,132250,109,109,181939,183450,176937,136783,176937,109,,,,,,visual_patterns,0,0,0,yes,1366
undefined,undefined,undefined,undefined,white,no,Mozilla,Netscape,"5.0 (Windows NT 10.0; Win64; x64) AppleWebKit/537.36 (KHTML, like Gecko) Chrome/99.0.4844.84 Safari/537.36",xpyriment,legacy,legacy,0,uniform,0,0,0,0,24,24,24,0,0,2,2,2,2,2,0,2,0,,,,,,0,,01-03-22,01-03-22,22:03:39,Fri Apr 01 2022 22:03:39 GMT+0200 (közép-európai nyári idő),The main experiment item,yes,0,0,C:/Users/rrics/Documents/!!ResearchBMECOGSCI/gnet,0,0,0,prototype3.png,no,mono,no,18,no,black,no,no,768,1214,3.5.6,legacy,xpyriment,osweb,1.3.13,0,left,space,left,,33599,23339,33599,,2,legacy,860,1600,24,900,24,0,0,1600,1648843438296,1024,2,48000,-16,experiment,p3sarr1.png,0,even,Win32,109,135264,132250,109,109,188465,189982,183467,136783,183467,109,,,,,,visual_patterns,0,0,0,yes,1366
undefined,undefined,undefined,undefined,white,no,Mozilla,Netscape,"5.0 (Windows NT 10.0; Win64; x64) AppleWebKit/537.36 (KHTML, like Gecko) Chrome/99.0.4844.84 Safari/537.36",xpyriment,legacy,legacy,0,uniform,0,0,0,0,24,24,24,0,0,3,3,3,3,3,0,3,0,,,,,,0,,01-03-22,01-03-22,22:03:39,Fri Apr 01 2022 22:03:39 GMT+0200 (közép-európai nyári idő),The main experiment item,yes,0,0,C:/Users/rrics/Documents/!!ResearchBMECOGSCI/gnet,0,0,0,prototype3.png,no,mono,no,18,no,black,no,no,768,1214,3.5.6,legacy,xpyriment,osweb,1.3.13,0,left,space,left,,33599,23339,33599,,2,legacy,860,1600,24,900,24,0,0,1600,1648843438296,1024,2,48000,-16,experiment,p9sarr2.png,0,even,Win32,109,135264,132250,109,109,194997,196513,189999,136783,189999,109,,,,,,visual_patterns,0,0,0,yes,1366
undefined,undefined,undefined,undefined,white,no,Mozilla,Netscape,"5.0 (Windows NT 10.0; Win64; x64) AppleWebKit/537.36 (KHTML, like Gecko) Chrome/99.0.4844.84 Safari/537.36",xpyriment,legacy,legacy,0,uniform,0,0,0,0,24,24,24,0,0,4,4,4,4,4,0,4,0,,,,,,0,,01-03-22,01-03-22,22:03:39,Fri Apr 01 2022 22:03:39 GMT+0200 (közép-európai nyári idő),The main experiment item,yes,0,0,C:/Users/rrics/Documents/!!ResearchBMECOGSCI/gnet,0,0,0,prototype3.png,no,mono,no,18,no,black,no,no,768,1214,3.5.6,legacy,xpyriment,osweb,1.3.13,0,left,space,left,,33599,23339,33599,,2,legacy,860,1600,24,900,24,0,0,1600,1648843438296,1024,2,48000,-16,experiment,p4sarr2.png,0,even,Win32,109,135264,132250,109,109,201524,203028,196530,136783,196530,109,,,,,,visual_patterns,0,0,0,yes,1366
undefined,undefined,undefined,undefined,white,no,Mozilla,Netscape,"5.0 (Windows NT 10.0; Win64; x64) AppleWebKit/537.36 (KHTML, like Gecko) Chrome/99.0.4844.84 Safari/537.36",xpyriment,legacy,legacy,0,uniform,0,0,0,0,24,24,24,0,0,5,5,5,5,5,0,5,0,,,,,,0,,01-03-22,01-03-22,22:03:39,Fri Apr 01 2022 22:03:39 GMT+0200 (közép-európai nyári idő),The main experiment item,yes,0,0,C:/Users/rrics/Documents/!!ResearchBMECOGSCI/gnet,0,0,0,prototype3.png,no,mono,no,18,no,black,no,no,768,1214,3.5.6,legacy,xpyriment,osweb,1.3.13,0,left,space,left,,33599,23339,33599,,2,legacy,860,1600,24,900,24,0,0,1600,1648843438296,1024,2,48000,-16,experiment,p4sarrshacol2.png,0,even,Win32,109,135264,132250,109,109,208044,209560,203044,136783,203044,109,,,,,,visual_patterns,0,0,0,yes,1366
undefined,undefined,undefined,undefined,white,no,Mozilla,Netscape,"5.0 (Windows NT 10.0; Win64; x64) AppleWebKit/537.36 (KHTML, like Gecko) Chrome/99.0.4844.84 Safari/537.36",xpyriment,legacy,legacy,0,uniform,0,0,0,0,24,24,24,0,0,6,6,6,6,6,0,6,0,,,,,,0,,01-03-22,01-03-22,22:03:39,Fri Apr 01 2022 22:03:39 GMT+0200 (közép-európai nyári idő),The main experiment item,yes,0,0,C:/Users/rrics/Documents/!!ResearchBMECOGSCI/gnet,0,0,0,prototype3.png,no,mono,no,18,no,black,no,no,768,1214,3.5.6,legacy,xpyriment,osweb,1.3.13,0,left,space,left,,33599,23339,33599,,2,legacy,860,1600,24,900,24,0,0,1600,1648843438296,1024,2,48000,-16,experiment,p5sarrsha2.png,0,even,Win32,109,135264,132250,109,109,214573,216075,209576,136783,209576,109,,,,,,visual_patterns,0,0,0,yes,1366
undefined,undefined,undefined,undefined,white,no,Mozilla,Netscape,"5.0 (Windows NT 10.0; Win64; x64) AppleWebKit/537.36 (KHTML, like Gecko) Chrome/99.0.4844.84 Safari/537.36",xpyriment,legacy,legacy,0,uniform,0,0,0,0,24,24,24,0,0,7,7,7,7,7,0,7,0,,,,,,0,,01-03-22,01-03-22,22:03:39,Fri Apr 01 2022 22:03:39 GMT+0200 (közép-európai nyári idő),The main experiment item,yes,0,0,C:/Users/rrics/Documents/!!ResearchBMECOGSCI/gnet,0,0,0,prototype3.png,no,mono,no,18,no,black,no,no,768,1214,3.5.6,legacy,xpyriment,osweb,1.3.13,0,left,space,left,,33599,23339,33599,,2,legacy,860,1600,24,900,24,0,0,1600,1648843438296,1024,2,48000,-16,experiment,p2sarr1.png,0,even,Win32,109,135264,132250,109,109,221088,222590,216092,136783,216092,109,,,,,,visual_patterns,0,0,0,yes,1366
undefined,undefined,undefined,undefined,white,no,Mozilla,Netscape,"5.0 (Windows NT 10.0; Win64; x64) AppleWebKit/537.36 (KHTML, like Gecko) Chrome/99.0.4844.84 Safari/537.36",xpyriment,legacy,legacy,0,uniform,0,0,0,0,24,24,24,0,0,8,8,8,8,8,0,8,0,,,,,,0,,01-03-22,01-03-22,22:03:39,Fri Apr 01 2022 22:03:39 GMT+0200 (közép-európai nyári idő),The main experiment item,yes,0,0,C:/Users/rrics/Documents/!!ResearchBMECOGSCI/gnet,0,0,0,prototype3.png,no,mono,no,18,no,black,no,no,768,1214,3.5.6,legacy,xpyriment,osweb,1.3.13,0,left,space,left,,33599,23339,33599,,2,legacy,860,1600,24,900,24,0,0,1600,1648843438296,1024,2,48000,-16,experiment,prototype4.png,0,even,Win32,109,135264,132250,109,109,227604,229105,222603,136783,222603,109,,,,,,visual_patterns,0,0,0,yes,1366
undefined,undefined,undefined,undefined,white,no,Mozilla,Netscape,"5.0 (Windows NT 10.0; Win64; x64) AppleWebKit/537.36 (KHTML, like Gecko) Chrome/99.0.4844.84 Safari/537.36",xpyriment,legacy,legacy,0,uniform,0,0,0,0,24,24,24,0,0,9,9,9,9,9,0,9,0,,,,,,0,,01-03-22,01-03-22,22:03:39,Fri Apr 01 2022 22:03:39 GMT+0200 (közép-európai nyári idő),The main experiment item,yes,0,0,C:/Users/rrics/Documents/!!ResearchBMECOGSCI/gnet,0,0,0,prototype3.png,no,mono,no,18,no,black,no,no,768,1214,3.5.6,legacy,xpyriment,osweb,1.3.13,0,left,space,left,,33599,23339,33599,,2,legacy,860,1600,24,900,24,0,0,1600,1648843438296,1024,2,48000,-16,experiment,p5sarrsha1.png,0,even,Win32,109,135264,132250,109,109,234122,235636,229124,136783,229124,109,,,,,,visual_patterns,0,0,0,yes,1366
undefined,undefined,undefined,undefined,white,no,Mozilla,Netscape,"5.0 (Windows NT 10.0; Win64; x64) AppleWebKit/537.36 (KHTML, like Gecko) Chrome/99.0.4844.84 Safari/537.36",xpyriment,legacy,legacy,0,uniform,0,0,0,0,24,24,24,0,0,10,10,10,10,10,0,10,0,,,,,,0,,01-03-22,01-03-22,22:03:39,Fri Apr 01 2022 22:03:39 GMT+0200 (közép-európai nyári idő),The main experiment item,yes,0,0,C:/Users/rrics/Documents/!!ResearchBMECOGSCI/gnet,0,0,0,prototype3.png,no,mono,no,18,no,black,no,no,768,1214,3.5.6,legacy,xpyriment,osweb,1.3.13,0,left,space,left,,33599,23339,33599,,2,legacy,860,1600,24,900,24,0,0,1600,1648843438296,1024,2,48000,-16,experiment,p5sarrcol1.png,0,even,Win32,109,135264,132250,109,109,240646,242151,235644,136783,235644,109,,,,,,visual_patterns,0,0,0,yes,1366
undefined,undefined,undefined,undefined,white,no,Mozilla,Netscape,"5.0 (Windows NT 10.0; Win64; x64) AppleWebKit/537.36 (KHTML, like Gecko) Chrome/99.0.4844.84 Safari/537.36",xpyriment,legacy,legacy,0,uniform,0,0,0,0,24,24,24,0,0,11,11,11,11,11,0,11,0,,,,,,0,,01-03-22,01-03-22,22:03:39,Fri Apr 01 2022 22:03:39 GMT+0200 (közép-európai nyári idő),The main experiment item,yes,0,0,C:/Users/rrics/Documents/!!ResearchBMECOGSCI/gnet,0,0,0,prototype3.png,no,mono,no,18,no,black,no,no,768,1214,3.5.6,legacy,xpyriment,osweb,1.3.13,0,left,space,left,,33599,23339,33599,,2,legacy,860,1600,24,900,24,0,0,1600,1648843438296,1024,2,48000,-16,experiment,p8sarr2.png,0,even,Win32,109,135264,132250,109,109,247165,248666,242169,136783,242168,109,,,,,,visual_patterns,0,0,0,yes,1366
undefined,undefined,undefined,undefined,white,no,Mozilla,Netscape,"5.0 (Windows NT 10.0; Win64; x64) AppleWebKit/537.36 (KHTML, like Gecko) Chrome/99.0.4844.84 Safari/537.36",xpyriment,legacy,legacy,0,uniform,0,0,0,0,24,24,24,0,0,12,12,12,12,12,0,12,0,,,,,,0,,01-03-22,01-03-22,22:03:39,Fri Apr 01 2022 22:03:39 GMT+0200 (közép-európai nyári idő),The main experiment item,yes,0,0,C:/Users/rrics/Documents/!!ResearchBMECOGSCI/gnet,0,0,0,prototype3.png,no,mono,no,18,no,black,no,no,768,1214,3.5.6,legacy,xpyriment,osweb,1.3.13,0,left,space,left,,33599,23339,33599,,2,legacy,860,1600,24,900,24,0,0,1600,1648843438296,1024,2,48000,-16,experiment,p5sarrshacol2.png,0,even,Win32,109,135264,132250,109,109,253700,255214,248701,136783,248701,109,,,,,,visual_patterns,0,0,0,yes,1366
undefined,undefined,undefined,undefined,white,no,Mozilla,Netscape,"5.0 (Windows NT 10.0; Win64; x64) AppleWebKit/537.36 (KHTML, like Gecko) Chrome/99.0.4844.84 Safari/537.36",xpyriment,legacy,legacy,0,uniform,0,0,0,0,24,24,24,0,0,13,13,13,13,13,0,13,0,,,,,,0,,01-03-22,01-03-22,22:03:39,Fri Apr 01 2022 22:03:39 GMT+0200 (közép-európai nyári idő),The main experiment item,yes,0,0,C:/Users/rrics/Documents/!!ResearchBMECOGSCI/gnet,0,0,0,prototype3.png,no,mono,no,18,no,black,no,no,768,1214,3.5.6,legacy,xpyriment,osweb,1.3.13,0,left,space,left,,33599,23339,33599,,2,legacy,860,1600,24,900,24,0,0,1600,1648843438296,1024,2,48000,-16,experiment,p8sarr1.png,0,even,Win32,109,135264,132250,109,109,260229,261746,255235,136783,255235,109,,,,,,visual_patterns,0,0,0,yes,1366
undefined,undefined,undefined,undefined,white,no,Mozilla,Netscape,"5.0 (Windows NT 10.0; Win64; x64) AppleWebKit/537.36 (KHTML, like Gecko) Chrome/99.0.4844.84 Safari/537.36",xpyriment,legacy,legacy,0,uniform,0,0,0,0,24,24,24,0,0,14,14,14,14,14,0,14,0,,,,,,0,,01-03-22,01-03-22,22:03:39,Fri Apr 01 2022 22:03:39 GMT+0200 (közép-európai nyári idő),The main experiment item,yes,0,0,C:/Users/rrics/Documents/!!ResearchBMECOGSCI/gnet,0,0,0,prototype3.png,no,mono,no,18,no,black,no,no,768,1214,3.5.6,legacy,xpyriment,osweb,1.3.13,0,left,space,left,,33599,23339,33599,,2,legacy,860,1600,24,900,24,0,0,1600,1648843438296,1024,2,48000,-16,experiment,p3sarrcol1.png,0,even,Win32,109,135264,132250,109,109,266760,268261,261762,136783,261762,109,,,,,,visual_patterns,0,0,0,yes,1366
undefined,undefined,undefined,undefined,white,no,Mozilla,Netscape,"5.0 (Windows NT 10.0; Win64; x64) AppleWebKit/537.36 (KHTML, like Gecko) Chrome/99.0.4844.84 Safari/537.36",xpyriment,legacy,legacy,0,uniform,0,0,0,0,24,24,24,0,0,15,15,15,15,15,0,15,0,,,,,,0,,01-03-22,01-03-22,22:03:39,Fri Apr 01 2022 22:03:39 GMT+0200 (közép-európai nyári idő),The main experiment item,yes,0,0,C:/Users/rrics/Documents/!!ResearchBMECOGSCI/gnet,0,0,0,prototype3.png,no,mono,no,18,no,black,no,no,768,1214,3.5.6,legacy,xpyriment,osweb,1.3.13,0,left,space,left,,33599,23339,33599,,2,legacy,860,1600,24,900,24,0,0,1600,1648843438296,1024,2,48000,-16,experiment,prototype1.png,0,even,Win32,109,135264,132250,109,109,273277,274792,268273,136783,268273,109,,,,,,visual_patterns,0,0,0,yes,1366
undefined,undefined,undefined,undefined,white,no,Mozilla,Netscape,"5.0 (Windows NT 10.0; Win64; x64) AppleWebKit/537.36 (KHTML, like Gecko) Chrome/99.0.4844.84 Safari/537.36",xpyriment,legacy,legacy,0,uniform,0,0,0,0,24,24,24,0,0,16,16,16,16,16,0,16,0,,,,,,0,,01-03-22,01-03-22,22:03:39,Fri Apr 01 2022 22:03:39 GMT+0200 (közép-európai nyári idő),The main experiment item,yes,0,0,C:/Users/rrics/Documents/!!ResearchBMECOGSCI/gnet,0,0,0,prototype3.png,no,mono,no,18,no,black,no,no,768,1214,3.5.6,legacy,xpyriment,osweb,1.3.13,0,left,space,left,,33599,23339,33599,,2,legacy,860,1600,24,900,24,0,0,1600,1648843438296,1024,2,48000,-16,experiment,p2sarr2.png,0,even,Win32,109,135264,132250,109,109,279805,281307,274808,136783,274808,109,,,,,,visual_patterns,0,0,0,yes,1366
undefined,undefined,undefined,undefined,white,no,Mozilla,Netscape,"5.0 (Windows NT 10.0; Win64; x64) AppleWebKit/537.36 (KHTML, like Gecko) Chrome/99.0.4844.84 Safari/537.36",xpyriment,legacy,legacy,0,uniform,0,0,0,0,24,24,24,0,0,17,17,17,17,17,0,17,0,,,,,,0,,01-03-22,01-03-22,22:03:39,Fri Apr 01 2022 22:03:39 GMT+0200 (közép-európai nyári idő),The main experiment item,yes,0,0,C:/Users/rrics/Documents/!!ResearchBMECOGSCI/gnet,0,0,0,prototype3.png,no,mono,no,18,no,black,no,no,768,1214,3.5.6,legacy,xpyriment,osweb,1.3.13,0,left,space,left,,33599,23339,33599,,2,legacy,860,1600,24,900,24,0,0,1600,1648843438296,1024,2,48000,-16,experiment,p3sarrsha2.png,0,even,Win32,109,135264,132250,109,109,286349,287856,281349,136783,281349,109,,,,,,visual_patterns,0,0,0,yes,1366
undefined,undefined,undefined,undefined,white,no,Mozilla,Netscape,"5.0 (Windows NT 10.0; Win64; x64) AppleWebKit/537.36 (KHTML, like Gecko) Chrome/99.0.4844.84 Safari/537.36",xpyriment,legacy,legacy,0,uniform,0,0,0,0,24,24,24,0,0,18,18,18,18,18,0,18,0,,,,,,0,,01-03-22,01-03-22,22:03:39,Fri Apr 01 2022 22:03:39 GMT+0200 (közép-európai nyári idő),The main experiment item,yes,0,0,C:/Users/rrics/Documents/!!ResearchBMECOGSCI/gnet,0,0,0,prototype3.png,no,mono,no,18,no,black,no,no,768,1214,3.5.6,legacy,xpyriment,osweb,1.3.13,0,left,space,left,,33599,23339,33599,,2,legacy,860,1600,24,900,24,0,0,1600,1648843438296,1024,2,48000,-16,experiment,prototype4.png,0,even,Win32,109,135264,132250,109,109,292871,294387,287868,136783,287868,109,,,,,,visual_patterns,0,0,0,yes,1366
undefined,undefined,undefined,undefined,white,no,Mozilla,Netscape,"5.0 (Windows NT 10.0; Win64; x64) AppleWebKit/537.36 (KHTML, like Gecko) Chrome/99.0.4844.84 Safari/537.36",xpyriment,legacy,legacy,0,uniform,0,0,0,0,24,24,24,0,0,19,19,19,19,19,0,19,0,,,,,,0,,01-03-22,01-03-22,22:03:39,Fri Apr 01 2022 22:03:39 GMT+0200 (közép-európai nyári idő),The main experiment item,yes,0,0,C:/Users/rrics/Documents/!!ResearchBMECOGSCI/gnet,0,0,0,prototype3.png,no,mono,no,18,no,black,no,no,768,1214,3.5.6,legacy,xpyriment,osweb,1.3.13,0,left,space,left,,33599,23339,33599,,2,legacy,860,1600,24,900,24,0,0,1600,1648843438296,1024,2,48000,-16,experiment,p3sarrsha1.png,0,even,Win32,109,135264,132250,109,109,299400,300902,294402,136783,294402,109,,,,,,visual_patterns,0,0,0,yes,1366
undefined,undefined,undefined,undefined,white,no,Mozilla,Netscape,"5.0 (Windows NT 10.0; Win64; x64) AppleWebKit/537.36 (KHTML, like Gecko) Chrome/99.0.4844.84 Safari/537.36",xpyriment,legacy,legacy,0,uniform,0,0,0,0,24,24,24,0,0,20,20,20,20,20,0,20,0,,,,,,0,,01-03-22,01-03-22,22:03:39,Fri Apr 01 2022 22:03:39 GMT+0200 (közép-európai nyári idő),The main experiment item,yes,0,0,C:/Users/rrics/Documents/!!ResearchBMECOGSCI/gnet,0,0,0,prototype3.png,no,mono,no,18,no,black,no,no,768,1214,3.5.6,legacy,xpyriment,osweb,1.3.13,0,left,space,left,,33599,23339,33599,,2,legacy,860,1600,24,900,24,0,0,1600,1648843438296,1024,2,48000,-16,experiment,prototype2.png,0,even,Win32,109,135264,132250,109,109,305916,307417,300914,136783,300914,109,,,,,,visual_patterns,0,0,0,yes,1366
undefined,undefined,undefined,undefined,white,no,Mozilla,Netscape,"5.0 (Windows NT 10.0; Win64; x64) AppleWebKit/537.36 (KHTML, like Gecko) Chrome/99.0.4844.84 Safari/537.36",xpyriment,legacy,legacy,0,uniform,0,0,0,0,24,24,24,0,0,21,21,21,21,21,0,21,0,,,,,,0,,01-03-22,01-03-22,22:03:39,Fri Apr 01 2022 22:03:39 GMT+0200 (közép-európai nyári idő),The main experiment item,yes,0,0,C:/Users/rrics/Documents/!!ResearchBMECOGSCI/gnet,0,0,0,prototype3.png,no,mono,no,18,no,black,no,no,768,1214,3.5.6,legacy,xpyriment,osweb,1.3.13,0,left,space,left,,33599,23339,33599,,2,legacy,860,1600,24,900,24,0,0,1600,1648843438296,1024,2,48000,-16,experiment,p4sarrcol2.png,0,even,Win32,109,135264,132250,109,109,312433,313949,307432,136783,307432,109,,,,,,visual_patterns,0,0,0,yes,1366
undefined,undefined,undefined,undefined,white,no,Mozilla,Netscape,"5.0 (Windows NT 10.0; Win64; x64) AppleWebKit/537.36 (KHTML, like Gecko) Chrome/99.0.4844.84 Safari/537.36",xpyriment,legacy,legacy,0,uniform,0,0,0,0,24,24,24,0,0,22,22,22,22,22,0,22,0,,,,,,0,,01-03-22,01-03-22,22:03:39,Fri Apr 01 2022 22:03:39 GMT+0200 (közép-európai nyári idő),The main experiment item,yes,0,0,C:/Users/rrics/Documents/!!ResearchBMECOGSCI/gnet,0,0,0,prototype3.png,no,mono,no,18,no,black,no,no,768,1214,3.5.6,legacy,xpyriment,osweb,1.3.13,0,left,space,left,,33599,23339,33599,,2,legacy,860,1600,24,900,24,0,0,1600,1648843438296,1024,2,48000,-16,experiment,p5sarrshacol1.png,0,even,Win32,109,135264,132250,109,109,318961,320464,313965,136783,313965,109,,,,,,visual_patterns,0,0,0,yes,1366
undefined,undefined,undefined,undefined,white,no,Mozilla,Netscape,"5.0 (Windows NT 10.0; Win64; x64) AppleWebKit/537.36 (KHTML, like Gecko) Chrome/99.0.4844.84 Safari/537.36",xpyriment,legacy,legacy,0,uniform,0,0,0,0,24,24,24,0,0,23,23,23,23,23,0,23,0,,,,,,0,,01-03-22,01-03-22,22:03:39,Fri Apr 01 2022 22:03:39 GMT+0200 (közép-európai nyári idő),The main experiment item,yes,0,0,C:/Users/rrics/Documents/!!ResearchBMECOGSCI/gnet,0,0,0,prototype3.png,no,mono,no,18,no,black,no,no,768,1214,3.5.6,legacy,xpyriment,osweb,1.3.13,0,left,space,left,,33599,23339,33599,,2,legacy,860,1600,24,900,24,0,0,1600,1648843438296,1024,2,48000,-16,experiment,prototype2.png,0,even,Win32,109,135264,132250,109,109,325477,326978,320477,136783,320477,109,,,,,,visual_patterns,0,0,0,yes,1366
undefined,undefined,undefined,undefined,white,no,Mozilla,Netscape,"5.0 (Windows NT 10.0; Win64; x64) AppleWebKit/537.36 (KHTML, like Gecko) Chrome/99.0.4844.84 Safari/537.36",xpyriment,legacy,legacy,0,uniform,0,0,0,0,24,24,24,0,0,24,24,24,24,24,0,24,0,,,,,,0,,01-03-22,01-03-22,22:03:39,Fri Apr 01 2022 22:03:39 GMT+0200 (közép-európai nyári idő),The main experiment item,yes,0,0,C:/Users/rrics/Documents/!!ResearchBMECOGSCI/gnet,0,0,0,prototype3.png,no,mono,no,18,no,black,no,no,768,1214,3.5.6,legacy,xpyriment,osweb,1.3.13,0,left,space,left,,33599,23339,33599,,2,legacy,860,1600,24,900,24,0,0,1600,1648843438296,1024,2,48000,-16,experiment,p4sarrsha2.png,0,even,Win32,109,135264,132250,109,109,331989,333493,326994,136783,326994,109,,,,,,visual_patterns,0,0,0,yes,1366
undefined,undefined,undefined,undefined,white,no,Mozilla,Netscape,"5.0 (Windows NT 10.0; Win64; x64) AppleWebKit/537.36 (KHTML, like Gecko) Chrome/99.0.4844.84 Safari/537.36",xpyriment,legacy,legacy,0,uniform,0,0,0,0,24,24,24,0,0,25,25,25,25,25,0,25,0,,,,,,0,,01-03-22,01-03-22,22:03:39,Fri Apr 01 2022 22:03:39 GMT+0200 (közép-európai nyári idő),The main experiment item,yes,0,0,C:/Users/rrics/Documents/!!ResearchBMECOGSCI/gnet,0,0,0,prototype3.png,no,mono,no,18,no,black,no,no,768,1214,3.5.6,legacy,xpyriment,osweb,1.3.13,0,left,space,left,,33599,23339,33599,,2,legacy,860,1600,24,900,24,0,0,1600,1648843438296,1024,2,48000,-16,experiment,p9sarr1.png,0,even,Win32,109,135264,132250,109,109,338508,340025,333511,136783,333511,109,,,,,,visual_patterns,0,0,0,yes,1366
undefined,undefined,undefined,undefined,white,no,Mozilla,Netscape,"5.0 (Windows NT 10.0; Win64; x64) AppleWebKit/537.36 (KHTML, like Gecko) Chrome/99.0.4844.84 Safari/537.36",xpyriment,legacy,legacy,0,uniform,0,0,0,0,24,24,24,0,0,26,26,26,26,26,0,26,0,,,,,,0,,01-03-22,01-03-22,22:03:39,Fri Apr 01 2022 22:03:39 GMT+0200 (közép-európai nyári idő),The main experiment item,yes,0,0,C:/Users/rrics/Documents/!!ResearchBMECOGSCI/gnet,0,0,0,prototype3.png,no,mono,no,18,no,black,no,no,768,1214,3.5.6,legacy,xpyriment,osweb,1.3.13,0,left,space,left,,33599,23339,33599,,2,legacy,860,1600,24,900,24,0,0,1600,1648843438296,1024,2,48000,-16,experiment,prototype1.png,0,even,Win32,109,135264,132250,109,109,345038,346540,340037,136783,340037,109,,,,,,visual_patterns,0,0,0,yes,1366
undefined,undefined,undefined,undefined,white,no,Mozilla,Netscape,"5.0 (Windows NT 10.0; Win64; x64) AppleWebKit/537.36 (KHTML, like Gecko) Chrome/99.0.4844.84 Safari/537.36",xpyriment,legacy,legacy,0,uniform,0,0,0,0,24,24,24,0,0,27,27,27,27,27,0,27,0,,,,,,0,,01-03-22,01-03-22,22:03:39,Fri Apr 01 2022 22:03:39 GMT+0200 (közép-európai nyári idő),The main experiment item,yes,0,0,C:/Users/rrics/Documents/!!ResearchBMECOGSCI/gnet,0,0,0,prototype3.png,no,mono,no,18,no,black,no,no,768,1214,3.5.6,legacy,xpyriment,osweb,1.3.13,0,left,space,left,,33599,23339,33599,,2,legacy,860,1600,24,900,24,0,0,1600,1648843438296,1024,2,48000,-16,experiment,p4sarrcol1.png,0,even,Win32,109,135264,132250,109,109,351552,353055,346556,136783,346556,109,,,,,,visual_patterns,0,0,0,yes,1366
undefined,undefined,undefined,undefined,white,no,Mozilla,Netscape,"5.0 (Windows NT 10.0; Win64; x64) AppleWebKit/537.36 (KHTML, like Gecko) Chrome/99.0.4844.84 Safari/537.36",xpyriment,legacy,legacy,0,uniform,0,0,0,0,24,24,24,0,0,28,28,28,28,28,0,28,0,,,,,,0,,01-03-22,01-03-22,22:03:39,Fri Apr 01 2022 22:03:39 GMT+0200 (közép-európai nyári idő),The main experiment item,yes,0,0,C:/Users/rrics/Documents/!!ResearchBMECOGSCI/gnet,0,0,0,prototype3.png,no,mono,no,18,no,black,no,no,768,1214,3.5.6,legacy,xpyriment,osweb,1.3.13,0,left,space,left,,33599,23339,33599,,2,legacy,860,1600,24,900,24,0,0,1600,1648843438296,1024,2,48000,-16,experiment,prototype4.png,0,even,Win32,109,135264,132250,109,109,358069,359570,353068,136783,353068,109,,,,,,visual_patterns,0,0,0,yes,1366
undefined,undefined,undefined,undefined,white,no,Mozilla,Netscape,"5.0 (Windows NT 10.0; Win64; x64) AppleWebKit/537.36 (KHTML, like Gecko) Chrome/99.0.4844.84 Safari/537.36",xpyriment,legacy,legacy,0,uniform,0,0,0,0,24,24,24,0,0,29,29,29,29,29,0,29,0,,,,,,0,,01-03-22,01-03-22,22:03:39,Fri Apr 01 2022 22:03:39 GMT+0200 (közép-európai nyári idő),The main experiment item,yes,0,0,C:/Users/rrics/Documents/!!ResearchBMECOGSCI/gnet,0,0,0,prototype3.png,no,mono,no,18,no,black,no,no,768,1214,3.5.6,legacy,xpyriment,osweb,1.3.13,0,left,space,left,,33599,23339,33599,,2,legacy,860,1600,24,900,24,0,0,1600,1648843438296,1024,2,48000,-16,experiment,prototype5.png,0,even,Win32,109,135264,132250,109,109,364584,366085,359582,136783,359582,109,,,,,,visual_patterns,0,0,0,yes,1366
undefined,undefined,undefined,undefined,white,no,Mozilla,Netscape,"5.0 (Windows NT 10.0; Win64; x64) AppleWebKit/537.36 (KHTML, like Gecko) Chrome/99.0.4844.84 Safari/537.36",xpyriment,legacy,legacy,0,uniform,0,0,0,0,24,24,24,0,0,30,30,30,30,30,0,30,0,,,,,,0,,01-03-22,01-03-22,22:03:39,Fri Apr 01 2022 22:03:39 GMT+0200 (közép-európai nyári idő),The main experiment item,yes,0,0,C:/Users/rrics/Documents/!!ResearchBMECOGSCI/gnet,0,0,0,prototype3.png,no,mono,no,18,no,black,no,no,768,1214,3.5.6,legacy,xpyriment,osweb,1.3.13,0,left,space,left,,33599,23339,33599,,2,legacy,860,1600,24,900,24,0,0,1600,1648843438296,1024,2,48000,-16,experiment,p5sarrcol2.png,0,even,Win32,109,135264,132250,109,109,371098,372600,366102,136783,366102,109,,,,,,visual_patterns,0,0,0,yes,1366
undefined,undefined,undefined,undefined,white,no,Mozilla,Netscape,"5.0 (Windows NT 10.0; Win64; x64) AppleWebKit/537.36 (KHTML, like Gecko) Chrome/99.0.4844.84 Safari/537.36",xpyriment,legacy,legacy,0,uniform,0,0,0,0,24,24,24,0,0,31,31,31,31,31,0,31,0,,,,,,0,,01-03-22,01-03-22,22:03:39,Fri Apr 01 2022 22:03:39 GMT+0200 (közép-európai nyári idő),The main experiment item,yes,0,0,C:/Users/rrics/Documents/!!ResearchBMECOGSCI/gnet,0,0,0,prototype3.png,no,mono,no,18,no,black,no,no,768,1214,3.5.6,legacy,xpyriment,osweb,1.3.13,0,left,space,left,,33599,23339,33599,,2,legacy,860,1600,24,900,24,0,0,1600,1648843438296,1024,2,48000,-16,experiment,p2sarrsha2.png,0,even,Win32,109,135264,132250,109,109,377612,379115,372617,136783,372617,109,,,,,,visual_patterns,0,0,0,yes,1366
undefined,undefined,undefined,undefined,white,no,Mozilla,Netscape,"5.0 (Windows NT 10.0; Win64; x64) AppleWebKit/537.36 (KHTML, like Gecko) Chrome/99.0.4844.84 Safari/537.36",xpyriment,legacy,legacy,0,uniform,0,0,0,0,24,24,24,0,0,32,32,32,32,32,0,32,0,,,,,,0,,01-03-22,01-03-22,22:03:39,Fri Apr 01 2022 22:03:39 GMT+0200 (közép-európai nyári idő),The main experiment item,yes,0,0,C:/Users/rrics/Documents/!!ResearchBMECOGSCI/gnet,0,0,0,prototype3.png,no,mono,no,18,no,black,no,no,768,1214,3.5.6,legacy,xpyriment,osweb,1.3.13,0,left,space,left,,33599,23339,33599,,2,legacy,860,1600,24,900,24,0,0,1600,1648843438296,1024,2,48000,-16,experiment,p5sarr1.png,0,even,Win32,109,135264,132250,109,109,384150,385663,379150,136783,379149,109,,,,,,visual_patterns,0,0,0,yes,1366
undefined,undefined,undefined,undefined,white,no,Mozilla,Netscape,"5.0 (Windows NT 10.0; Win64; x64) AppleWebKit/537.36 (KHTML, like Gecko) Chrome/99.0.4844.84 Safari/537.36",xpyriment,legacy,legacy,0,uniform,0,0,0,0,24,24,24,0,0,33,33,33,33,33,0,33,0,,,,,,0,,01-03-22,01-03-22,22:03:39,Fri Apr 01 2022 22:03:39 GMT+0200 (közép-európai nyári idő),The main experiment item,yes,0,0,C:/Users/rrics/Documents/!!ResearchBMECOGSCI/gnet,0,0,0,prototype3.png,no,mono,no,18,no,black,no,no,768,1214,3.5.6,legacy,xpyriment,osweb,1.3.13,0,left,space,left,,33599,23339,33599,,2,legacy,860,1600,24,900,24,0,0,1600,1648843438296,1024,2,48000,-16,experiment,p3sarrshacol1.png,0,even,Win32,109,135264,132250,109,109,390677,392178,385679,136783,385679,109,,,,,,visual_patterns,0,0,0,yes,1366
undefined,undefined,undefined,undefined,white,no,Mozilla,Netscape,"5.0 (Windows NT 10.0; Win64; x64) AppleWebKit/537.36 (KHTML, like Gecko) Chrome/99.0.4844.84 Safari/537.36",xpyriment,legacy,legacy,0,uniform,0,0,0,0,24,24,24,0,0,34,34,34,34,34,0,34,0,,,,,,0,,01-03-22,01-03-22,22:03:39,Fri Apr 01 2022 22:03:39 GMT+0200 (közép-európai nyári idő),The main experiment item,yes,0,0,C:/Users/rrics/Documents/!!ResearchBMECOGSCI/gnet,0,0,0,prototype3.png,no,mono,no,18,no,black,no,no,768,1214,3.5.6,legacy,xpyriment,osweb,1.3.13,0,left,space,left,,33599,23339,33599,,2,legacy,860,1600,24,900,24,0,0,1600,1648843438296,1024,2,48000,-16,experiment,prototype1.png,0,even,Win32,109,135264,132250,109,109,397192,398693,392192,136783,392192,109,,,,,,visual_patterns,0,0,0,yes,1366
undefined,undefined,undefined,undefined,white,no,Mozilla,Netscape,"5.0 (Windows NT 10.0; Win64; x64) AppleWebKit/537.36 (KHTML, like Gecko) Chrome/99.0.4844.84 Safari/537.36",xpyriment,legacy,legacy,0,uniform,0,0,0,0,24,24,24,0,0,35,35,35,35,35,0,35,0,,,,,,0,,01-03-22,01-03-22,22:03:39,Fri Apr 01 2022 22:03:39 GMT+0200 (közép-európai nyári idő),The main experiment item,yes,0,0,C:/Users/rrics/Documents/!!ResearchBMECOGSCI/gnet,0,0,0,prototype3.png,no,mono,no,18,no,black,no,no,768,1214,3.5.6,legacy,xpyriment,osweb,1.3.13,0,left,space,left,,33599,23339,33599,,2,legacy,860,1600,24,900,24,0,0,1600,1648843438296,1024,2,48000,-16,experiment,p4sarrshacol1.png,0,even,Win32,109,135264,132250,109,109,403705,405208,398708,136783,398708,109,,,,,,visual_patterns,0,0,0,yes,1366
undefined,undefined,undefined,undefined,white,no,Mozilla,Netscape,"5.0 (Windows NT 10.0; Win64; x64) AppleWebKit/537.36 (KHTML, like Gecko) Chrome/99.0.4844.84 Safari/537.36",xpyriment,legacy,legacy,0,uniform,0,0,0,0,24,24,24,0,0,36,36,36,36,36,0,36,0,,,,,,0,,01-03-22,01-03-22,22:03:39,Fri Apr 01 2022 22:03:39 GMT+0200 (közép-európai nyári idő),The main experiment item,yes,0,0,C:/Users/rrics/Documents/!!ResearchBMECOGSCI/gnet,0,0,0,prototype3.png,no,mono,no,18,no,black,no,no,768,1214,3.5.6,legacy,xpyriment,osweb,1.3.13,0,left,space,left,,33599,23339,33599,,2,legacy,860,1600,24,900,24,0,0,1600,1648843438296,1024,2,48000,-16,experiment,prototype3.png,0,even,Win32,109,135264,132250,109,109,410222,411739,405220,136783,405220,109,,,,,,visual_patterns,0,0,0,yes,1366
undefined,undefined,undefined,undefined,white,no,Mozilla,Netscape,"5.0 (Windows NT 10.0; Win64; x64) AppleWebKit/537.36 (KHTML, like Gecko) Chrome/99.0.4844.84 Safari/537.36",xpyriment,legacy,legacy,0,uniform,0,0,0,0,24,24,24,0,0,37,37,37,37,37,0,37,0,,,,,,0,,01-03-22,01-03-22,22:03:39,Fri Apr 01 2022 22:03:39 GMT+0200 (közép-európai nyári idő),The main experiment item,yes,0,0,C:/Users/rrics/Documents/!!ResearchBMECOGSCI/gnet,0,0,0,prototype3.png,no,mono,no,18,no,black,no,no,768,1214,3.5.6,legacy,xpyriment,osweb,1.3.13,0,left,space,left,,33599,23339,33599,,2,legacy,860,1600,24,900,24,0,0,1600,1648843438296,1024,2,48000,-16,experiment,prototype3.png,0,even,Win32,109,135264,132250,109,109,416781,418287,411778,136783,411778,109,,,,,,visual_patterns,0,0,0,yes,1366
undefined,undefined,undefined,undefined,white,no,Mozilla,Netscape,"5.0 (Windows NT 10.0; Win64; x64) AppleWebKit/537.36 (KHTML, like Gecko) Chrome/99.0.4844.84 Safari/537.36",xpyriment,legacy,legacy,0,uniform,0,0,0,0,24,24,24,0,0,38,38,38,38,38,0,38,0,,,,,,0,,01-03-22,01-03-22,22:03:39,Fri Apr 01 2022 22:03:39 GMT+0200 (közép-európai nyári idő),The main experiment item,yes,0,0,C:/Users/rrics/Documents/!!ResearchBMECOGSCI/gnet,0,0,0,prototype3.png,no,mono,no,18,no,black,no,no,768,1214,3.5.6,legacy,xpyriment,osweb,1.3.13,0,left,space,left,,33599,23339,33599,,2,legacy,860,1600,24,900,24,0,0,1600,1648843438296,1024,2,48000,-16,experiment,p7sarr1.png,0,even,Win32,109,135264,132250,109,109,423299,424802,418303,136783,418303,109,,,,,,visual_patterns,0,0,0,yes,1366
undefined,undefined,undefined,undefined,white,no,Mozilla,Netscape,"5.0 (Windows NT 10.0; Win64; x64) AppleWebKit/537.36 (KHTML, like Gecko) Chrome/99.0.4844.84 Safari/537.36",xpyriment,legacy,legacy,0,uniform,0,0,0,0,24,24,24,0,0,39,39,39,39,39,0,39,0,,,,,,0,,01-03-22,01-03-22,22:03:39,Fri Apr 01 2022 22:03:39 GMT+0200 (közép-európai nyári idő),The main experiment item,yes,0,0,C:/Users/rrics/Documents/!!ResearchBMECOGSCI/gnet,0,0,0,prototype3.png,no,mono,no,18,no,black,no,no,768,1214,3.5.6,legacy,xpyriment,osweb,1.3.13,0,left,space,left,,33599,23339,33599,,2,legacy,860,1600,24,900,24,0,0,1600,1648843438296,1024,2,48000,-16,experiment,p1sarrsha1.png,0,even,Win32,109,135264,132250,109,109,429813,431317,424817,136783,424817,109,,,,,,visual_patterns,0,0,0,yes,1366
undefined,undefined,undefined,undefined,white,no,Mozilla,Netscape,"5.0 (Windows NT 10.0; Win64; x64) AppleWebKit/537.36 (KHTML, like Gecko) Chrome/99.0.4844.84 Safari/537.36",xpyriment,legacy,legacy,0,uniform,0,0,0,0,24,24,24,0,0,40,40,40,40,40,0,40,0,,,,,,0,,01-03-22,01-03-22,22:03:39,Fri Apr 01 2022 22:03:39 GMT+0200 (közép-európai nyári idő),The main experiment item,yes,0,0,C:/Users/rrics/Documents/!!ResearchBMECOGSCI/gnet,0,0,0,prototype3.png,no,mono,no,18,no,black,no,no,768,1214,3.5.6,legacy,xpyriment,osweb,1.3.13,0,left,space,left,,33599,23339,33599,,2,legacy,860,1600,24,900,24,0,0,1600,1648843438296,1024,2,48000,-16,experiment,prototype5.png,0,even,Win32,109,135264,132250,109,109,436332,437849,431329,136783,431329,109,,,,,,visual_patterns,0,0,0,yes,1366
undefined,undefined,undefined,undefined,white,no,Mozilla,Netscape,"5.0 (Windows NT 10.0; Win64; x64) AppleWebKit/537.36 (KHTML, like Gecko) Chrome/99.0.4844.84 Safari/537.36",xpyriment,legacy,legacy,0,uniform,0,0,0,0,24,24,24,0,0,41,41,41,41,41,0,41,0,,,,,,0,,01-03-22,01-03-22,22:03:39,Fri Apr 01 2022 22:03:39 GMT+0200 (közép-európai nyári idő),The main experiment item,yes,0,0,C:/Users/rrics/Documents/!!ResearchBMECOGSCI/gnet,0,0,0,prototype3.png,no,mono,no,18,no,black,no,no,768,1214,3.5.6,legacy,xpyriment,osweb,1.3.13,0,left,space,left,,33599,23339,33599,,2,legacy,860,1600,24,900,24,0,0,1600,1648843438296,1024,2,48000,-16,experiment,p3sarrshacol2.png,0,even,Win32,109,135264,132250,109,109,442865,444381,437868,136783,437868,109,,,,,,visual_patterns,0,0,0,yes,1366
undefined,undefined,undefined,undefined,white,no,Mozilla,Netscape,"5.0 (Windows NT 10.0; Win64; x64) AppleWebKit/537.36 (KHTML, like Gecko) Chrome/99.0.4844.84 Safari/537.36",xpyriment,legacy,legacy,0,uniform,0,0,0,0,24,24,24,0,0,42,42,42,42,42,0,42,0,,,,,,0,,01-03-22,01-03-22,22:03:39,Fri Apr 01 2022 22:03:39 GMT+0200 (közép-európai nyári idő),The main experiment item,yes,0,0,C:/Users/rrics/Documents/!!ResearchBMECOGSCI/gnet,0,0,0,prototype3.png,no,mono,no,18,no,black,no,no,768,1214,3.5.6,legacy,xpyriment,osweb,1.3.13,0,left,space,left,,33599,23339,33599,,2,legacy,860,1600,24,900,24,0,0,1600,1648843438296,1024,2,48000,-16,experiment,p3sarrcol2.png,0,even,Win32,109,135264,132250,109,109,449393,450895,444396,136783,444396,109,,,,,,visual_patterns,0,0,0,yes,1366
undefined,undefined,undefined,undefined,white,no,Mozilla,Netscape,"5.0 (Windows NT 10.0; Win64; x64) AppleWebKit/537.36 (KHTML, like Gecko) Chrome/99.0.4844.84 Safari/537.36",xpyriment,legacy,legacy,0,uniform,0,0,0,0,24,24,24,0,0,43,43,43,43,43,0,43,0,,,,,,0,,01-03-22,01-03-22,22:03:39,Fri Apr 01 2022 22:03:39 GMT+0200 (közép-európai nyári idő),The main experiment item,yes,0,0,C:/Users/rrics/Documents/!!ResearchBMECOGSCI/gnet,0,0,0,prototype3.png,no,mono,no,18,no,black,no,no,768,1214,3.5.6,legacy,xpyriment,osweb,1.3.13,0,left,space,left,,33599,23339,33599,,2,legacy,860,1600,24,900,24,0,0,1600,1648843438296,1024,2,48000,-16,experiment,p3sarr2.png,0,even,Win32,109,135264,132250,109,109,455907,457410,450911,136783,450911,109,,,,,,visual_patterns,0,0,0,yes,1366
undefined,undefined,undefined,undefined,white,no,Mozilla,Netscape,"5.0 (Windows NT 10.0; Win64; x64) AppleWebKit/537.36 (KHTML, like Gecko) Chrome/99.0.4844.84 Safari/537.36",xpyriment,legacy,legacy,0,uniform,0,0,0,0,24,24,24,0,0,44,44,44,44,44,0,44,0,,,,,,0,,01-03-22,01-03-22,22:03:39,Fri Apr 01 2022 22:03:39 GMT+0200 (közép-európai nyári idő),The main experiment item,yes,0,0,C:/Users/rrics/Documents/!!ResearchBMECOGSCI/gnet,0,0,0,prototype3.png,no,mono,no,18,no,black,no,no,768,1214,3.5.6,legacy,xpyriment,osweb,1.3.13,0,left,space,left,,33599,23339,33599,,2,legacy,860,1600,24,900,24,0,0,1600,1648843438296,1024,2,48000,-16,experiment,p2sarrsha1.png,0,even,Win32,109,135264,132250,109,109,462423,463925,457426,136783,457426,109,,,,,,visual_patterns,0,0,0,yes,1366
undefined,undefined,undefined,undefined,white,no,Mozilla,Netscape,"5.0 (Windows NT 10.0; Win64; x64) AppleWebKit/537.36 (KHTML, like Gecko) Chrome/99.0.4844.84 Safari/537.36",xpyriment,legacy,legacy,0,uniform,0,0,0,0,24,24,24,0,0,45,45,45,45,45,0,45,0,,,,,,0,,01-03-22,01-03-22,22:03:39,Fri Apr 01 2022 22:03:39 GMT+0200 (közép-európai nyári idő),The main experiment item,yes,0,0,C:/Users/rrics/Documents/!!ResearchBMECOGSCI/gnet,0,0,0,prototype3.png,no,mono,no,18,no,black,no,no,768,1214,3.5.6,legacy,xpyriment,osweb,1.3.13,0,left,space,left,,33599,23339,33599,,2,legacy,860,1600,24,900,24,0,0,1600,1648843438296,1024,2,48000,-16,experiment,p4sarrsha1.png,0,even,Win32,109,135264,132250,109,109,468940,470457,463940,136783,463940,109,,,,,,visual_patterns,0,0,0,yes,1366
undefined,undefined,undefined,undefined,white,no,Mozilla,Netscape,"5.0 (Windows NT 10.0; Win64; x64) AppleWebKit/537.36 (KHTML, like Gecko) Chrome/99.0.4844.84 Safari/537.36",xpyriment,legacy,legacy,0,uniform,0,0,0,0,24,24,24,0,0,46,46,46,46,46,0,46,0,,,,,,0,,01-03-22,01-03-22,22:03:39,Fri Apr 01 2022 22:03:39 GMT+0200 (közép-európai nyári idő),The main experiment item,yes,0,0,C:/Users/rrics/Documents/!!ResearchBMECOGSCI/gnet,0,0,0,prototype3.png,no,mono,no,18,no,black,no,no,768,1214,3.5.6,legacy,xpyriment,osweb,1.3.13,0,left,space,left,,33599,23339,33599,,2,legacy,860,1600,24,900,24,0,0,1600,1648843438296,1024,2,48000,-16,experiment,p1sarrcol1.png,0,even,Win32,109,135264,132250,109,109,475469,476972,470472,136783,470472,109,,,,,,visual_patterns,0,0,0,yes,1366
undefined,undefined,undefined,undefined,white,no,Mozilla,Netscape,"5.0 (Windows NT 10.0; Win64; x64) AppleWebKit/537.36 (KHTML, like Gecko) Chrome/99.0.4844.84 Safari/537.36",xpyriment,legacy,legacy,0,uniform,0,0,0,0,24,24,24,0,0,47,47,47,47,47,0,47,0,,,,,,0,,01-03-22,01-03-22,22:03:39,Fri Apr 01 2022 22:03:39 GMT+0200 (közép-európai nyári idő),The main experiment item,yes,0,0,C:/Users/rrics/Documents/!!ResearchBMECOGSCI/gnet,0,0,0,prototype3.png,no,mono,no,18,no,black,no,no,768,1214,3.5.6,legacy,xpyriment,osweb,1.3.13,0,left,space,left,,33599,23339,33599,,2,legacy,860,1600,24,900,24,0,0,1600,1648843438296,1024,2,48000,-16,experiment,p1sarrsha2.png,0,even,Win32,109,135264,132250,109,109,481988,483503,476989,136783,476989,109,,,,,,visual_patterns,0,0,0,yes,1366
undefined,undefined,undefined,undefined,white,no,Mozilla,Netscape,"5.0 (Windows NT 10.0; Win64; x64) AppleWebKit/537.36 (KHTML, like Gecko) Chrome/99.0.4844.84 Safari/537.36",xpyriment,legacy,legacy,0,uniform,0,0,0,0,24,24,24,0,0,48,48,48,48,48,0,48,0,,,,,,0,,01-03-22,01-03-22,22:03:39,Fri Apr 01 2022 22:03:39 GMT+0200 (közép-európai nyári idő),The main experiment item,yes,0,0,C:/Users/rrics/Documents/!!ResearchBMECOGSCI/gnet,0,0,0,prototype3.png,no,mono,no,18,no,black,no,no,768,1214,3.5.6,legacy,xpyriment,osweb,1.3.13,0,left,space,left,,33599,23339,33599,,2,legacy,860,1600,24,900,24,0,0,1600,1648843438296,1024,2,48000,-16,experiment,p7sarr2.png,0,even,Win32,109,135264,132250,109,109,488515,490018,483520,136783,483520,109,,,,,,visual_patterns,0,0,0,yes,1366
undefined,undefined,undefined,undefined,white,no,Mozilla,Netscape,"5.0 (Windows NT 10.0; Win64; x64) AppleWebKit/537.36 (KHTML, like Gecko) Chrome/99.0.4844.84 Safari/537.36",xpyriment,legacy,legacy,0,uniform,0,0,0,0,24,24,24,0,0,49,49,49,49,49,0,49,0,,,,,,0,,01-03-22,01-03-22,22:03:39,Fri Apr 01 2022 22:03:39 GMT+0200 (közép-európai nyári idő),The main experiment item,yes,0,0,C:/Users/rrics/Documents/!!ResearchBMECOGSCI/gnet,0,0,0,prototype3.png,no,mono,no,18,no,black,no,no,768,1214,3.5.6,legacy,xpyriment,osweb,1.3.13,0,left,space,left,,33599,23339,33599,,2,legacy,860,1600,24,900,24,0,0,1600,1648843438296,1024,2,48000,-16,experiment,p4sarr1.png,0,even,Win32,109,135264,132250,109,109,495034,496550,490034,136783,490034,109,,,,,,visual_patterns,0,0,0,yes,1366
undefined,undefined,undefined,undefined,white,no,Mozilla,Netscape,"5.0 (Windows NT 10.0; Win64; x64) AppleWebKit/537.36 (KHTML, like Gecko) Chrome/99.0.4844.84 Safari/537.36",xpyriment,legacy,legacy,0,uniform,0,0,0,0,24,24,24,0,0,50,50,50,50,50,0,50,0,,,,,,0,,01-03-22,01-03-22,22:03:39,Fri Apr 01 2022 22:03:39 GMT+0200 (közép-európai nyári idő),The main experiment item,yes,0,0,C:/Users/rrics/Documents/!!ResearchBMECOGSCI/gnet,0,0,0,prototype3.png,no,mono,no,18,no,black,no,no,768,1214,3.5.6,legacy,xpyriment,osweb,1.3.13,0,left,space,left,,33599,23339,33599,,2,legacy,860,1600,24,900,24,0,0,1600,1648843438296,1024,2,48000,-16,experiment,p10sarr1.png,0,even,Win32,109,135264,132250,109,109,501562,503065,496565,136783,496565,109,,,,,,visual_patterns,0,0,0,yes,1366
undefined,undefined,undefined,undefined,white,no,Mozilla,Netscape,"5.0 (Windows NT 10.0; Win64; x64) AppleWebKit/537.36 (KHTML, like Gecko) Chrome/99.0.4844.84 Safari/537.36",xpyriment,legacy,legacy,0,uniform,0,0,0,0,24,24,24,0,0,51,51,51,51,51,0,51,0,,,,,,0,,01-03-22,01-03-22,22:03:39,Fri Apr 01 2022 22:03:39 GMT+0200 (közép-európai nyári idő),The main experiment item,yes,0,0,C:/Users/rrics/Documents/!!ResearchBMECOGSCI/gnet,0,0,0,prototype3.png,no,mono,no,18,no,black,no,no,768,1214,3.5.6,legacy,xpyriment,osweb,1.3.13,0,left,space,left,,33599,23339,33599,,2,legacy,860,1600,24,900,24,0,0,1600,1648843438296,1024,2,48000,-16,experiment,prototype3.png,0,even,Win32,109,135264,132250,109,109,508077,509580,503077,136783,503077,109,,,,,,visual_patterns,0,0,0,yes,1366
undefined,undefined,undefined,undefined,white,no,Mozilla,Netscape,"5.0 (Windows NT 10.0; Win64; x64) AppleWebKit/537.36 (KHTML, like Gecko) Chrome/99.0.4844.84 Safari/537.36",xpyriment,legacy,legacy,0,uniform,0,0,0,0,24,24,24,0,0,52,52,52,52,52,0,52,0,,,,,,0,,01-03-22,01-03-22,22:03:39,Fri Apr 01 2022 22:03:39 GMT+0200 (közép-európai nyári idő),The main experiment item,yes,0,0,C:/Users/rrics/Documents/!!ResearchBMECOGSCI/gnet,0,0,0,prototype3.png,no,mono,no,18,no,black,no,no,768,1214,3.5.6,legacy,xpyriment,osweb,1.3.13,0,left,space,left,,33599,23339,33599,,2,legacy,860,1600,24,900,24,0,0,1600,1648843438296,1024,2,48000,-16,experiment,p1sarr1.png,0,even,Win32,109,135264,132250,109,109,514595,516111,509597,136783,509597,109,,,,,,visual_patterns,0,0,0,yes,1366
undefined,undefined,undefined,undefined,white,no,Mozilla,Netscape,"5.0 (Windows NT 10.0; Win64; x64) AppleWebKit/537.36 (KHTML, like Gecko) Chrome/99.0.4844.84 Safari/537.36",xpyriment,legacy,legacy,0,uniform,0,0,0,0,24,24,24,0,0,53,53,53,53,53,0,53,0,,,,,,0,,01-03-22,01-03-22,22:03:39,Fri Apr 01 2022 22:03:39 GMT+0200 (közép-európai nyári idő),The main experiment item,yes,0,0,C:/Users/rrics/Documents/!!ResearchBMECOGSCI/gnet,0,0,0,prototype3.png,no,mono,no,18,no,black,no,no,768,1214,3.5.6,legacy,xpyriment,osweb,1.3.13,0,left,space,left,,33599,23339,33599,,2,legacy,860,1600,24,900,24,0,0,1600,1648843438296,1024,2,48000,-16,experiment,p1sarrcol2.png,0,even,Win32,109,135264,132250,109,109,521124,522626,516129,136783,516129,109,,,,,,visual_patterns,0,0,0,yes,1366
undefined,undefined,undefined,undefined,white,no,Mozilla,Netscape,"5.0 (Windows NT 10.0; Win64; x64) AppleWebKit/537.36 (KHTML, like Gecko) Chrome/99.0.4844.84 Safari/537.36",xpyriment,legacy,legacy,0,uniform,0,0,0,0,24,24,24,0,0,54,54,54,54,54,0,54,0,,,,,,0,,01-03-22,01-03-22,22:03:39,Fri Apr 01 2022 22:03:39 GMT+0200 (közép-európai nyári idő),The main experiment item,yes,0,0,C:/Users/rrics/Documents/!!ResearchBMECOGSCI/gnet,0,0,0,prototype3.png,no,mono,no,18,no,black,no,no,768,1214,3.5.6,legacy,xpyriment,osweb,1.3.13,0,left,space,left,,33599,23339,33599,,2,legacy,860,1600,24,900,24,0,0,1600,1648843438296,1024,2,48000,-16,experiment,p2sarrcol2.png,0,even,Win32,109,135264,132250,109,109,527640,529141,522641,136783,522641,109,,,,,,visual_patterns,0,0,0,yes,1366
undefined,undefined,undefined,undefined,white,no,Mozilla,Netscape,"5.0 (Windows NT 10.0; Win64; x64) AppleWebKit/537.36 (KHTML, like Gecko) Chrome/99.0.4844.84 Safari/537.36",xpyriment,legacy,legacy,0,uniform,0,0,0,0,24,24,24,0,0,55,55,55,55,55,0,55,0,,,,,,0,,01-03-22,01-03-22,22:03:39,Fri Apr 01 2022 22:03:39 GMT+0200 (közép-európai nyári idő),The main experiment item,yes,0,0,C:/Users/rrics/Documents/!!ResearchBMECOGSCI/gnet,0,0,0,prototype3.png,no,mono,no,18,no,black,no,no,768,1214,3.5.6,legacy,xpyriment,osweb,1.3.13,0,left,space,left,,33599,23339,33599,,2,legacy,860,1600,24,900,24,0,0,1600,1648843438296,1024,2,48000,-16,experiment,prototype4.png,0,even,Win32,109,135264,132250,109,109,534153,535656,529154,136783,529154,109,,,,,,visual_patterns,0,0,0,yes,1366
undefined,undefined,undefined,undefined,white,no,Mozilla,Netscape,"5.0 (Windows NT 10.0; Win64; x64) AppleWebKit/537.36 (KHTML, like Gecko) Chrome/99.0.4844.84 Safari/537.36",xpyriment,legacy,legacy,0,uniform,0,0,0,0,24,24,24,0,0,56,56,56,56,56,0,56,0,,,,,,0,,01-03-22,01-03-22,22:03:39,Fri Apr 01 2022 22:03:39 GMT+0200 (közép-európai nyári idő),The main experiment item,yes,0,0,C:/Users/rrics/Documents/!!ResearchBMECOGSCI/gnet,0,0,0,prototype3.png,no,mono,no,18,no,black,no,no,768,1214,3.5.6,legacy,xpyriment,osweb,1.3.13,0,left,space,left,,33599,23339,33599,,2,legacy,860,1600,24,900,24,0,0,1600,1648843438296,1024,2,48000,-16,experiment,p2sarrshacol1.png,0,even,Win32,109,135264,132250,109,109,540667,542171,535671,136783,535671,109,,,,,,visual_patterns,0,0,0,yes,1366
undefined,undefined,undefined,undefined,white,no,Mozilla,Netscape,"5.0 (Windows NT 10.0; Win64; x64) AppleWebKit/537.36 (KHTML, like Gecko) Chrome/99.0.4844.84 Safari/537.36",xpyriment,legacy,legacy,0,uniform,0,0,0,0,24,24,24,0,0,57,57,57,57,57,0,57,0,,,,,,0,,01-03-22,01-03-22,22:03:39,Fri Apr 01 2022 22:03:39 GMT+0200 (közép-európai nyári idő),The main experiment item,yes,0,0,C:/Users/rrics/Documents/!!ResearchBMECOGSCI/gnet,0,0,0,prototype3.png,no,mono,no,18,no,black,no,no,768,1214,3.5.6,legacy,xpyriment,osweb,1.3.13,0,left,space,left,,33599,23339,33599,,2,legacy,860,1600,24,900,24,0,0,1600,1648843438296,1024,2,48000,-16,experiment,prototype5.png,0,even,Win32,109,135264,132250,109,109,547184,548686,542184,136783,542184,109,,,,,,visual_patterns,0,0,0,yes,1366
undefined,undefined,undefined,undefined,white,no,Mozilla,Netscape,"5.0 (Windows NT 10.0; Win64; x64) AppleWebKit/537.36 (KHTML, like Gecko) Chrome/99.0.4844.84 Safari/537.36",xpyriment,legacy,legacy,0,uniform,0,0,0,0,24,24,24,0,0,58,58,58,58,58,0,58,0,,,,,,0,,01-03-22,01-03-22,22:03:39,Fri Apr 01 2022 22:03:39 GMT+0200 (közép-európai nyári idő),The main experiment item,yes,0,0,C:/Users/rrics/Documents/!!ResearchBMECOGSCI/gnet,0,0,0,prototype3.png,no,mono,no,18,no,black,no,no,768,1214,3.5.6,legacy,xpyriment,osweb,1.3.13,0,left,space,left,,33599,23339,33599,,2,legacy,860,1600,24,900,24,0,0,1600,1648843438296,1024,2,48000,-16,experiment,prototype2.png,0,even,Win32,109,135264,132250,109,109,553699,555201,548699,136783,548699,109,,,,,,visual_patterns,0,0,0,yes,1366
undefined,undefined,undefined,undefined,white,no,Mozilla,Netscape,"5.0 (Windows NT 10.0; Win64; x64) AppleWebKit/537.36 (KHTML, like Gecko) Chrome/99.0.4844.84 Safari/537.36",xpyriment,legacy,legacy,0,uniform,0,0,0,0,24,24,24,0,0,59,59,59,59,59,0,59,0,,,,,,0,,01-03-22,01-03-22,22:03:39,Fri Apr 01 2022 22:03:39 GMT+0200 (közép-európai nyári idő),The main experiment item,yes,0,0,C:/Users/rrics/Documents/!!ResearchBMECOGSCI/gnet,0,0,0,prototype3.png,no,mono,no,18,no,black,no,no,768,1214,3.5.6,legacy,xpyriment,osweb,1.3.13,0,left,space,left,,33599,23339,33599,,2,legacy,860,1600,24,900,24,0,0,1600,1648843438296,1024,2,48000,-16,experiment,prototype5.png,0,even,Win32,109,135264,132250,109,109,560213,561716,555213,136783,555213,109,,,,,,visual_patterns,0,0,0,yes,1366
undefined,undefined,undefined,undefined,white,no,Mozilla,Netscape,"5.0 (Windows NT 10.0; Win64; x64) AppleWebKit/537.36 (KHTML, like Gecko) Chrome/99.0.4844.84 Safari/537.36",xpyriment,legacy,legacy,0,uniform,0,0,0,0,24,24,24,0,0,60,60,60,60,60,0,60,0,,,,,,0,,01-03-22,01-03-22,22:03:39,Fri Apr 01 2022 22:03:39 GMT+0200 (közép-európai nyári idő),The main experiment item,yes,0,0,C:/Users/rrics/Documents/!!ResearchBMECOGSCI/gnet,0,0,0,prototype3.png,no,mono,no,18,no,black,no,no,768,1214,3.5.6,legacy,xpyriment,osweb,1.3.13,0,left,space,left,,33599,23339,33599,,2,legacy,860,1600,24,900,24,0,0,1600,1648843438296,1024,2,48000,-16,experiment,p1sarrshacol2.png,0,even,Win32,109,135264,132250,109,109,566728,568231,561731,136783,561731,109,,,,,,visual_patterns,0,0,0,yes,1366
undefined,undefined,undefined,undefined,white,no,Mozilla,Netscape,"5.0 (Windows NT 10.0; Win64; x64) AppleWebKit/537.36 (KHTML, like Gecko) Chrome/99.0.4844.84 Safari/537.36",xpyriment,legacy,legacy,0,uniform,0,0,0,0,24,24,24,0,0,61,61,61,61,61,0,61,0,,,,,,0,,01-03-22,01-03-22,22:03:39,Fri Apr 01 2022 22:03:39 GMT+0200 (közép-európai nyári idő),The main experiment item,yes,0,0,C:/Users/rrics/Documents/!!ResearchBMECOGSCI/gnet,0,0,0,prototype3.png,no,mono,no,18,no,black,no,no,768,1214,3.5.6,legacy,xpyriment,osweb,1.3.13,0,left,space,left,,33599,23339,33599,,2,legacy,860,1600,24,900,24,0,0,1600,1648843438296,1024,2,48000,-16,experiment,p2sarrcol1.png,0,even,Win32,109,135264,132250,109,109,573243,574746,568247,136783,568247,109,,,,,,visual_patterns,0,0,0,yes,1366
undefined,undefined,undefined,undefined,white,no,Mozilla,Netscape,"5.0 (Windows NT 10.0; Win64; x64) AppleWebKit/537.36 (KHTML, like Gecko) Chrome/99.0.4844.84 Safari/537.36",xpyriment,legacy,legacy,0,uniform,0,0,0,0,24,24,24,0,0,62,62,62,62,62,0,62,0,,,,,,0,,01-03-22,01-03-22,22:03:39,Fri Apr 01 2022 22:03:39 GMT+0200 (közép-európai nyári idő),The main experiment item,yes,0,0,C:/Users/rrics/Documents/!!ResearchBMECOGSCI/gnet,0,0,0,prototype3.png,no,mono,no,18,no,black,no,no,768,1214,3.5.6,legacy,xpyriment,osweb,1.3.13,0,left,space,left,,33599,23339,33599,,2,legacy,860,1600,24,900,24,0,0,1600,1648843438296,1024,2,48000,-16,experiment,p5sarr2.png,0,even,Win32,109,135264,132250,109,109,579790,581294,574790,136783,574790,109,,,,,,visual_patterns,0,0,0,yes,1366
undefined,undefined,undefined,undefined,white,no,Mozilla,Netscape,"5.0 (Windows NT 10.0; Win64; x64) AppleWebKit/537.36 (KHTML, like Gecko) Chrome/99.0.4844.84 Safari/537.36",xpyriment,legacy,legacy,0,uniform,0,0,0,0,24,24,24,0,0,63,63,63,63,63,0,63,0,,,,,,0,,01-03-22,01-03-22,22:03:39,Fri Apr 01 2022 22:03:39 GMT+0200 (közép-európai nyári idő),The main experiment item,yes,0,0,C:/Users/rrics/Documents/!!ResearchBMECOGSCI/gnet,0,0,0,prototype3.png,no,mono,no,18,no,black,no,no,768,1214,3.5.6,legacy,xpyriment,osweb,1.3.13,0,left,space,left,,33599,23339,33599,,2,legacy,860,1600,24,900,24,0,0,1600,1648843438296,1024,2,48000,-16,experiment,p10sarr2.png,0,even,Win32,109,135264,132250,109,109,586308,587809,581314,136783,581314,109,,,,,,visual_patterns,0,0,0,yes,1366
undefined,undefined,undefined,undefined,white,no,Mozilla,Netscape,"5.0 (Windows NT 10.0; Win64; x64) AppleWebKit/537.36 (KHTML, like Gecko) Chrome/99.0.4844.84 Safari/537.36",xpyriment,legacy,legacy,0,uniform,0,0,0,0,24,24,24,0,0,64,64,64,64,64,0,64,0,,,,,,0,,01-03-22,01-03-22,22:03:39,Fri Apr 01 2022 22:03:39 GMT+0200 (közép-európai nyári idő),The main experiment item,yes,0,0,C:/Users/rrics/Documents/!!ResearchBMECOGSCI/gnet,0,0,0,prototype3.png,no,mono,no,18,no,black,no,no,768,1214,3.5.6,legacy,xpyriment,osweb,1.3.13,0,left,space,left,,33599,23339,33599,,2,legacy,860,1600,24,900,24,0,0,1600,1648843438296,1024,2,48000,-16,experiment,prototype1.png,0,even,Win32,109,135264,132250,109,109,592820,594324,587820,136783,587820,109,,,,,,visual_patterns,0,0,0,yes,1366
undefined,undefined,undefined,undefined,white,no,Mozilla,Netscape,"5.0 (Windows NT 10.0; Win64; x64) AppleWebKit/537.36 (KHTML, like Gecko) Chrome/99.0.4844.84 Safari/537.36",xpyriment,legacy,legacy,0,uniform,0,0,0,0,24,24,24,0,0,65,65,65,65,65,0,65,0,,,,,,0,,01-03-22,01-03-22,22:03:39,Fri Apr 01 2022 22:03:39 GMT+0200 (közép-európai nyári idő),The main experiment item,yes,0,0,C:/Users/rrics/Documents/!!ResearchBMECOGSCI/gnet,0,0,0,prototype3.png,no,mono,no,18,no,black,no,no,768,1214,3.5.6,legacy,xpyriment,osweb,1.3.13,0,left,space,left,,33599,23339,33599,,2,legacy,860,1600,24,900,24,0,0,1600,1648843438296,1024,2,48000,-16,experiment,prototype4.png,0,even,Win32,109,135264,132250,109,109,599337,600839,594335,136783,594335,109,,,,,,visual_patterns,0,0,0,yes,1366
undefined,undefined,undefined,undefined,white,no,Mozilla,Netscape,"5.0 (Windows NT 10.0; Win64; x64) AppleWebKit/537.36 (KHTML, like Gecko) Chrome/99.0.4844.84 Safari/537.36",xpyriment,legacy,legacy,0,uniform,0,0,0,0,24,24,24,0,0,66,66,66,66,66,0,66,0,,,,,,0,,01-03-22,01-03-22,22:03:39,Fri Apr 01 2022 22:03:39 GMT+0200 (közép-európai nyári idő),The main experiment item,yes,0,0,C:/Users/rrics/Documents/!!ResearchBMECOGSCI/gnet,0,0,0,prototype3.png,no,mono,no,18,no,black,no,no,768,1214,3.5.6,legacy,xpyriment,osweb,1.3.13,0,left,space,left,,33599,23339,33599,,2,legacy,860,1600,24,900,24,0,0,1600,1648843438296,1024,2,48000,-16,experiment,p2sarrshacol2.png,0,even,Win32,109,135264,132250,109,109,605850,607354,600854,136783,600854,109,,,,,,visual_patterns,0,0,0,yes,1366
undefined,undefined,undefined,undefined,white,no,Mozilla,Netscape,"5.0 (Windows NT 10.0; Win64; x64) AppleWebKit/537.36 (KHTML, like Gecko) Chrome/99.0.4844.84 Safari/537.36",xpyriment,legacy,legacy,0,uniform,0,0,0,0,24,24,24,0,0,67,67,67,67,67,0,67,0,,,,,,0,,01-03-22,01-03-22,22:03:39,Fri Apr 01 2022 22:03:39 GMT+0200 (közép-európai nyári idő),The main experiment item,yes,0,0,C:/Users/rrics/Documents/!!ResearchBMECOGSCI/gnet,0,0,0,prototype3.png,no,mono,no,18,no,black,no,no,768,1214,3.5.6,legacy,xpyriment,osweb,1.3.13,0,left,space,left,,33599,23339,33599,,2,legacy,860,1600,24,900,24,0,0,1600,1648843438296,1024,2,48000,-16,experiment,p1sarr2.png,0,even,Win32,109,135264,132250,109,109,612367,613869,607371,136783,607371,109,,,,,,visual_patterns,0,0,0,yes,1366
undefined,undefined,undefined,undefined,white,no,Mozilla,Netscape,"5.0 (Windows NT 10.0; Win64; x64) AppleWebKit/537.36 (KHTML, like Gecko) Chrome/99.0.4844.84 Safari/537.36",xpyriment,legacy,legacy,0,uniform,0,0,0,0,24,24,24,0,0,68,68,68,68,68,0,68,0,,,,,,0,,01-03-22,01-03-22,22:03:39,Fri Apr 01 2022 22:03:39 GMT+0200 (közép-európai nyári idő),The main experiment item,yes,0,0,C:/Users/rrics/Documents/!!ResearchBMECOGSCI/gnet,0,0,0,prototype3.png,no,mono,no,18,no,black,no,no,768,1214,3.5.6,legacy,xpyriment,osweb,1.3.13,0,left,space,left,,33599,23339,33599,,2,legacy,860,1600,24,900,24,0,0,1600,1648843438296,1024,2,48000,-16,experiment,p6sarr2.png,0,even,Win32,109,135264,132250,109,109,618881,620383,613885,136783,613885,109,,,,,,visual_patterns,0,0,0,yes,1366
undefined,undefined,undefined,undefined,white,no,Mozilla,Netscape,"5.0 (Windows NT 10.0; Win64; x64) AppleWebKit/537.36 (KHTML, like Gecko) Chrome/99.0.4844.84 Safari/537.36",xpyriment,legacy,legacy,0,uniform,0,0,0,0,24,24,24,0,0,69,69,69,69,69,0,69,0,,,,,,0,,01-03-22,01-03-22,22:03:39,Fri Apr 01 2022 22:03:39 GMT+0200 (közép-európai nyári idő),The main experiment item,yes,0,0,C:/Users/rrics/Documents/!!ResearchBMECOGSCI/gnet,0,0,0,prototype3.png,no,mono,no,18,no,black,no,no,768,1214,3.5.6,legacy,xpyriment,osweb,1.3.13,0,left,space,left,,33599,23339,33599,,2,legacy,860,1600,24,900,24,0,0,1600,1648843438296,1024,2,48000,-16,experiment,prototype2.png,0,even,Win32,109,135264,132250,109,109,625399,626915,620397,136783,620397,109,,,,,,visual_patterns,0,0,0,yes,1366
undefined,undefined,undefined,undefined,white,no,Mozilla,Netscape,"5.0 (Windows NT 10.0; Win64; x64) AppleWebKit/537.36 (KHTML, like Gecko) Chrome/99.0.4844.84 Safari/537.36",xpyriment,legacy,legacy,0,uniform,0,0,0,0,24,24,24,0,0,70,70,70,70,70,0,70,0,,,,,,0,,01-03-22,01-03-22,22:03:39,Fri Apr 01 2022 22:03:39 GMT+0200 (közép-európai nyári idő),The main experiment item,yes,0,0,C:/Users/rrics/Documents/!!ResearchBMECOGSCI/gnet,0,0,0,prototype3.png,no,mono,no,18,no,black,no,no,768,1214,3.5.6,legacy,xpyriment,osweb,1.3.13,0,left,space,left,,33599,23339,33599,,2,legacy,860,1600,24,900,24,0,0,1600,1648843438296,1024,2,48000,-16,experiment,p1sarrshacol1.png,0,even,Win32,109,135264,132250,109,109,631929,633430,626930,136783,626930,109,,,,,,visual_patterns,0,0,0,yes,1366
undefined,undefined,undefined,undefined,white,no,Mozilla,Netscape,"5.0 (Windows NT 10.0; Win64; x64) AppleWebKit/537.36 (KHTML, like Gecko) Chrome/99.0.4844.84 Safari/537.36",xpyriment,legacy,legacy,0,uniform,0,0,0,0,24,24,24,0,0,71,71,71,71,71,0,71,0,,,,,,0,,01-03-22,01-03-22,22:03:39,Fri Apr 01 2022 22:03:39 GMT+0200 (közép-európai nyári idő),The main experiment item,yes,0,0,C:/Users/rrics/Documents/!!ResearchBMECOGSCI/gnet,0,0,0,prototype3.png,no,mono,no,18,no,black,no,no,768,1214,3.5.6,legacy,xpyriment,osweb,1.3.13,0,left,space,left,,33599,23339,33599,,2,legacy,860,1600,24,900,24,0,0,1600,1648843438296,1024,2,48000,-16,experiment,prototype1.png,0,even,Win32,109,135264,132250,109,109,638445,639962,633443,136783,633443,109,,,,,,visual_patterns,0,0,0,yes,1366
undefined,undefined,undefined,undefined,white,no,Mozilla,Netscape,"5.0 (Windows NT 10.0; Win64; x64) AppleWebKit/537.36 (KHTML, like Gecko) Chrome/99.0.4844.84 Safari/537.36",xpyriment,legacy,legacy,0,uniform,0,0,0,0,24,24,24,0,0,72,72,72,72,72,0,72,0,,,,,,0,,01-03-22,01-03-22,22:03:39,Fri Apr 01 2022 22:03:39 GMT+0200 (közép-európai nyári idő),The main experiment item,yes,0,0,C:/Users/rrics/Documents/!!ResearchBMECOGSCI/gnet,0,0,0,prototype3.png,no,mono,no,18,no,black,no,no,768,1214,3.5.6,legacy,xpyriment,osweb,1.3.13,0,left,space,left,,33599,23339,33599,,2,legacy,860,1600,24,900,24,0,0,1600,1648843438296,1024,2,48000,-16,experiment,prototype5.png,0,even,Win32,109,135264,132250,109,109,644972,646477,639974,136783,639974,109,,,,,,visual_patterns,0,0,0,yes,1366
undefined,undefined,undefined,undefined,white,no,Mozilla,Netscape,"5.0 (Windows NT 10.0; Win64; x64) AppleWebKit/537.36 (KHTML, like Gecko) Chrome/99.0.4844.84 Safari/537.36",xpyriment,legacy,legacy,0,uniform,0,0,0,0,24,24,24,0,0,73,73,73,73,73,0,73,0,,,,,,0,,01-03-22,01-03-22,22:03:39,Fri Apr 01 2022 22:03:39 GMT+0200 (közép-európai nyári idő),The main experiment item,yes,0,0,C:/Users/rrics/Documents/!!ResearchBMECOGSCI/gnet,0,0,0,prototype3.png,no,mono,no,18,no,black,no,no,768,1214,3.5.6,legacy,xpyriment,osweb,1.3.13,0,left,space,left,,33599,23339,33599,,2,legacy,860,1600,24,900,24,0,0,1600,1648843438296,1024,2,48000,-16,experiment,prototype3.png,0,even,Win32,109,135264,132250,109,109,651492,653008,646491,136783,646491,109,,,,,,visual_patterns,0,0,0,yes,1366
undefined,undefined,undefined,undefined,white,no,Mozilla,Netscape,"5.0 (Windows NT 10.0; Win64; x64) AppleWebKit/537.36 (KHTML, like Gecko) Chrome/99.0.4844.84 Safari/537.36",xpyriment,legacy,legacy,0,uniform,0,0,0,0,24,24,24,0,0,74,74,74,74,74,0,74,0,,,,,,0,,01-03-22,01-03-22,22:03:39,Fri Apr 01 2022 22:03:39 GMT+0200 (közép-európai nyári idő),The main experiment item,yes,0,0,C:/Users/rrics/Documents/!!ResearchBMECOGSCI/gnet,0,0,0,prototype3.png,no,mono,no,18,no,black,no,no,768,1214,3.5.6,legacy,xpyriment,osweb,1.3.13,0,left,space,left,,33599,23339,33599,,2,legacy,860,1600,24,900,24,0,0,1600,1648843438296,1024,2,48000,-16,experiment,prototype2.png,0,even,Win32,109,135264,132250,109,109,658022,659523,653020,136783,653020,109,,,,,,visual_patterns,0,0,0,yes,1366
undefined,undefined,undefined,undefined,white,no,Mozilla,Netscape,"5.0 (Windows NT 10.0; Win64; x64) AppleWebKit/537.36 (KHTML, like Gecko) Chrome/99.0.4844.84 Safari/537.36",xpyriment,legacy,legacy,0,uniform,0,0,0,0,24,24,24,0,0,74,74,74,74,74,0,74,0,0,0,0,0,0,0,0,01-03-22,01-03-22,22:03:39,Fri Apr 01 2022 22:03:39 GMT+0200 (közép-európai nyári idő),The main experiment item,yes,0,0,C:/Users/rrics/Documents/!!ResearchBMECOGSCI/gnet,0,0,0,prototype3.png,no,mono,no,18,no,black,no,no,768,1214,3.5.6,legacy,xpyriment,osweb,1.3.13,0,right,space,left,right,30170,23339,33599,30170,2,legacy,860,1600,24,900,24,0,0,1600,1648843438296,1024,2,48000,-16,experiment,p5sarrsha3.png,0,even,Win32,109,135264,132250,109,109,658022,659523,653020,136783,653020,109,692748,694264,689752,659531,689752,visual_patterns,0,0,0,yes,1366
undefined,undefined,undefined,undefined,white,no,Mozilla,Netscape,"5.0 (Windows NT 10.0; Win64; x64) AppleWebKit/537.36 (KHTML, like Gecko) Chrome/99.0.4844.84 Safari/537.36",xpyriment,legacy,legacy,0,uniform,0,0,0,0,24,24,24,0,0,74,74,74,74,74,0,74,0,1,1,1,1,1,0,1,01-03-22,01-03-22,22:03:39,Fri Apr 01 2022 22:03:39 GMT+0200 (közép-európai nyári idő),The main experiment item,yes,0,0,C:/Users/rrics/Documents/!!ResearchBMECOGSCI/gnet,0,0,0,prototype3.png,no,mono,no,18,no,black,no,no,768,1214,3.5.6,legacy,xpyriment,osweb,1.3.13,0,right,space,left,right,30170,23339,33599,30170,2,legacy,860,1600,24,900,24,0,0,1600,1648843438296,1024,2,48000,-16,experiment,p2sarrshacol1.png,0,even,Win32,109,135264,132250,109,109,658022,659523,653020,136783,653020,109,697278,698779,694279,659531,694279,visual_patterns,0,0,0,yes,1366
undefined,undefined,undefined,undefined,white,no,Mozilla,Netscape,"5.0 (Windows NT 10.0; Win64; x64) AppleWebKit/537.36 (KHTML, like Gecko) Chrome/99.0.4844.84 Safari/537.36",xpyriment,legacy,legacy,0,uniform,0,0,0,0,24,24,24,0,0,74,74,74,74,74,0,74,0,2,2,2,2,2,0,2,01-03-22,01-03-22,22:03:39,Fri Apr 01 2022 22:03:39 GMT+0200 (közép-európai nyári idő),The main experiment item,yes,0,0,C:/Users/rrics/Documents/!!ResearchBMECOGSCI/gnet,0,0,0,prototype3.png,no,mono,no,18,no,black,no,no,768,1214,3.5.6,legacy,xpyriment,osweb,1.3.13,0,right,space,left,right,30170,23339,33599,30170,2,legacy,860,1600,24,900,24,0,0,1600,1648843438296,1024,2,48000,-16,experiment,p4sarr4.png,0,even,Win32,109,135264,132250,109,109,658022,659523,653020,136783,653020,109,701819,703328,698818,659531,698818,visual_patterns,0,0,0,yes,1366
undefined,undefined,undefined,undefined,white,no,Mozilla,Netscape,"5.0 (Windows NT 10.0; Win64; x64) AppleWebKit/537.36 (KHTML, like Gecko) Chrome/99.0.4844.84 Safari/537.36",xpyriment,legacy,legacy,0,uniform,0,0,0,0,24,24,24,0,0,74,74,74,74,74,0,74,0,3,3,3,3,3,0,3,01-03-22,01-03-22,22:03:39,Fri Apr 01 2022 22:03:39 GMT+0200 (közép-európai nyári idő),The main experiment item,yes,0,0,C:/Users/rrics/Documents/!!ResearchBMECOGSCI/gnet,0,0,0,prototype3.png,no,mono,no,18,no,black,no,no,768,1214,3.5.6,legacy,xpyriment,osweb,1.3.13,0,right,space,left,right,30170,23339,33599,30170,2,legacy,860,1600,24,900,24,0,0,1600,1648843438296,1024,2,48000,-16,experiment,p5sarrsha2.png,0,even,Win32,109,135264,132250,109,109,658022,659523,653020,136783,653020,109,706342,707843,703344,659531,703343,visual_patterns,0,0,0,yes,1366
undefined,undefined,undefined,undefined,white,no,Mozilla,Netscape,"5.0 (Windows NT 10.0; Win64; x64) AppleWebKit/537.36 (KHTML, like Gecko) Chrome/99.0.4844.84 Safari/537.36",xpyriment,legacy,legacy,0,uniform,0,0,0,0,24,24,24,0,0,74,74,74,74,74,0,74,0,4,4,4,4,4,0,4,01-03-22,01-03-22,22:03:39,Fri Apr 01 2022 22:03:39 GMT+0200 (közép-európai nyári idő),The main experiment item,yes,0,0,C:/Users/rrics/Documents/!!ResearchBMECOGSCI/gnet,0,0,0,prototype3.png,no,mono,no,18,no,black,no,no,768,1214,3.5.6,legacy,xpyriment,osweb,1.3.13,0,right,space,left,right,30170,23339,33599,30170,2,legacy,860,1600,24,900,24,0,0,1600,1648843438296,1024,2,48000,-16,experiment,p7sarr2.png,0,even,Win32,109,135264,132250,109,109,658022,659523,653020,136783,653020,109,710863,712376,707861,659531,707861,visual_patterns,0,0,0,yes,1366
undefined,undefined,undefined,undefined,white,no,Mozilla,Netscape,"5.0 (Windows NT 10.0; Win64; x64) AppleWebKit/537.36 (KHTML, like Gecko) Chrome/99.0.4844.84 Safari/537.36",xpyriment,legacy,legacy,0,uniform,0,0,0,0,24,24,24,0,0,74,74,74,74,74,0,74,0,5,5,5,5,5,0,5,01-03-22,01-03-22,22:03:39,Fri Apr 01 2022 22:03:39 GMT+0200 (közép-európai nyári idő),The main experiment item,yes,0,0,C:/Users/rrics/Documents/!!ResearchBMECOGSCI/gnet,0,0,0,prototype3.png,no,mono,no,18,no,black,no,no,768,1214,3.5.6,legacy,xpyriment,osweb,1.3.13,0,right,space,left,right,30170,23339,33599,30170,2,legacy,860,1600,24,900,24,0,0,1600,1648843438296,1024,2,48000,-16,experiment,p1sarrsha4.png,0,even,Win32,109,135264,132250,109,109,658022,659523,653020,136783,653020,109,715391,716908,712396,659531,712396,visual_patterns,0,0,0,yes,1366
undefined,undefined,undefined,undefined,white,no,Mozilla,Netscape,"5.0 (Windows NT 10.0; Win64; x64) AppleWebKit/537.36 (KHTML, like Gecko) Chrome/99.0.4844.84 Safari/537.36",xpyriment,legacy,legacy,0,uniform,0,0,0,0,24,24,24,0,0,74,74,74,74,74,0,74,0,6,6,6,6,6,0,6,01-03-22,01-03-22,22:03:39,Fri Apr 01 2022 22:03:39 GMT+0200 (közép-európai nyári idő),The main experiment item,yes,0,0,C:/Users/rrics/Documents/!!ResearchBMECOGSCI/gnet,0,0,0,prototype3.png,no,mono,no,18,no,black,no,no,768,1214,3.5.6,legacy,xpyriment,osweb,1.3.13,0,right,space,left,right,30170,23339,33599,30170,2,legacy,860,1600,24,900,24,0,0,1600,1648843438296,1024,2,48000,-16,experiment,p3sarrcol2.png,0,even,Win32,109,135264,132250,109,109,658022,659523,653020,136783,653020,109,719925,721440,716923,659531,716923,visual_patterns,0,0,0,yes,1366
undefined,undefined,undefined,undefined,white,no,Mozilla,Netscape,"5.0 (Windows NT 10.0; Win64; x64) AppleWebKit/537.36 (KHTML, like Gecko) Chrome/99.0.4844.84 Safari/537.36",xpyriment,legacy,legacy,0,uniform,0,0,0,0,24,24,24,0,0,74,74,74,74,74,0,74,0,7,7,7,7,7,0,7,01-03-22,01-03-22,22:03:39,Fri Apr 01 2022 22:03:39 GMT+0200 (közép-európai nyári idő),The main experiment item,yes,0,0,C:/Users/rrics/Documents/!!ResearchBMECOGSCI/gnet,0,0,0,prototype3.png,no,mono,no,18,no,black,no,no,768,1214,3.5.6,legacy,xpyriment,osweb,1.3.13,0,right,space,left,right,30170,23339,33599,30170,2,legacy,860,1600,24,900,24,0,0,1600,1648843438296,1024,2,48000,-16,experiment,p3sarrcol3.png,0,even,Win32,109,135264,132250,109,109,658022,659523,653020,136783,653020,109,724482,725989,721481,659531,721481,visual_patterns,0,0,0,yes,1366
undefined,undefined,undefined,undefined,white,no,Mozilla,Netscape,"5.0 (Windows NT 10.0; Win64; x64) AppleWebKit/537.36 (KHTML, like Gecko) Chrome/99.0.4844.84 Safari/537.36",xpyriment,legacy,legacy,0,uniform,0,0,0,0,24,24,24,0,0,74,74,74,74,74,0,74,0,8,8,8,8,8,0,8,01-03-22,01-03-22,22:03:39,Fri Apr 01 2022 22:03:39 GMT+0200 (közép-európai nyári idő),The main experiment item,yes,0,0,C:/Users/rrics/Documents/!!ResearchBMECOGSCI/gnet,0,0,0,prototype3.png,no,mono,no,18,no,black,no,no,768,1214,3.5.6,legacy,xpyriment,osweb,1.3.13,0,right,space,left,right,30170,23339,33599,30170,2,legacy,860,1600,24,900,24,0,0,1600,1648843438296,1024,2,48000,-16,experiment,p1sarrsha1.png,0,even,Win32,109,135264,132250,109,109,658022,659523,653020,136783,653020,109,729006,730521,726004,659531,726004,visual_patterns,0,0,0,yes,1366
undefined,undefined,undefined,undefined,white,no,Mozilla,Netscape,"5.0 (Windows NT 10.0; Win64; x64) AppleWebKit/537.36 (KHTML, like Gecko) Chrome/99.0.4844.84 Safari/537.36",xpyriment,legacy,legacy,0,uniform,0,0,0,0,24,24,24,0,0,74,74,74,74,74,0,74,0,9,9,9,9,9,0,9,01-03-22,01-03-22,22:03:39,Fri Apr 01 2022 22:03:39 GMT+0200 (közép-európai nyári idő),The main experiment item,yes,0,0,C:/Users/rrics/Documents/!!ResearchBMECOGSCI/gnet,0,0,0,prototype3.png,no,mono,no,18,no,black,no,no,768,1214,3.5.6,legacy,xpyriment,osweb,1.3.13,0,right,space,left,right,30170,23339,33599,30170,2,legacy,860,1600,24,900,24,0,0,1600,1648843438296,1024,2,48000,-16,experiment,p4sarr1.png,0,even,Win32,109,135264,132250,109,109,658022,659523,653020,136783,653020,109,733537,735053,730536,659531,730536,visual_patterns,0,0,0,yes,1366
undefined,undefined,undefined,undefined,white,no,Mozilla,Netscape,"5.0 (Windows NT 10.0; Win64; x64) AppleWebKit/537.36 (KHTML, like Gecko) Chrome/99.0.4844.84 Safari/537.36",xpyriment,legacy,legacy,0,uniform,0,0,0,0,24,24,24,0,0,74,74,74,74,74,0,74,0,10,10,10,10,10,0,10,01-03-22,01-03-22,22:03:39,Fri Apr 01 2022 22:03:39 GMT+0200 (közép-európai nyári idő),The main experiment item,yes,0,0,C:/Users/rrics/Documents/!!ResearchBMECOGSCI/gnet,0,0,0,prototype3.png,no,mono,no,18,no,black,no,no,768,1214,3.5.6,legacy,xpyriment,osweb,1.3.13,0,right,space,left,right,30170,23339,33599,30170,2,legacy,860,1600,24,900,24,0,0,1600,1648843438296,1024,2,48000,-16,experiment,p9sarr2.png,0,even,Win32,109,135264,132250,109,109,658022,659523,653020,136783,653020,109,738072,739585,735072,659531,735072,visual_patterns,0,0,0,yes,1366
undefined,undefined,undefined,undefined,white,no,Mozilla,Netscape,"5.0 (Windows NT 10.0; Win64; x64) AppleWebKit/537.36 (KHTML, like Gecko) Chrome/99.0.4844.84 Safari/537.36",xpyriment,legacy,legacy,0,uniform,0,0,0,0,24,24,24,0,0,74,74,74,74,74,0,74,0,11,11,11,11,11,0,11,01-03-22,01-03-22,22:03:39,Fri Apr 01 2022 22:03:39 GMT+0200 (közép-európai nyári idő),The main experiment item,yes,0,0,C:/Users/rrics/Documents/!!ResearchBMECOGSCI/gnet,0,0,0,prototype3.png,no,mono,no,18,no,black,no,no,768,1214,3.5.6,legacy,xpyriment,osweb,1.3.13,0,right,space,left,right,30170,23339,33599,30170,2,legacy,860,1600,24,900,24,0,0,1600,1648843438296,1024,2,48000,-16,experiment,p1sarr2.png,0,even,Win32,109,135264,132250,109,109,658022,659523,653020,136783,653020,109,742600,744117,739600,659531,739600,visual_patterns,0,0,0,yes,1366
undefined,undefined,undefined,undefined,white,no,Mozilla,Netscape,"5.0 (Windows NT 10.0; Win64; x64) AppleWebKit/537.36 (KHTML, like Gecko) Chrome/99.0.4844.84 Safari/537.36",xpyriment,legacy,legacy,0,uniform,0,0,0,0,24,24,24,0,0,74,74,74,74,74,0,74,0,12,12,12,12,12,0,12,01-03-22,01-03-22,22:03:39,Fri Apr 01 2022 22:03:39 GMT+0200 (közép-európai nyári idő),The main experiment item,yes,0,0,C:/Users/rrics/Documents/!!ResearchBMECOGSCI/gnet,0,0,0,prototype3.png,no,mono,no,18,no,black,no,no,768,1214,3.5.6,legacy,xpyriment,osweb,1.3.13,0,right,space,left,right,30170,23339,33599,30170,2,legacy,860,1600,24,900,24,0,0,1600,1648843438296,1024,2,48000,-16,experiment,p3sarrcol4.png,0,even,Win32,109,135264,132250,109,109,658022,659523,653020,136783,653020,109,747152,748666,744151,659531,744151,visual_patterns,0,0,0,yes,1366
undefined,undefined,undefined,undefined,white,no,Mozilla,Netscape,"5.0 (Windows NT 10.0; Win64; x64) AppleWebKit/537.36 (KHTML, like Gecko) Chrome/99.0.4844.84 Safari/537.36",xpyriment,legacy,legacy,0,uniform,0,0,0,0,24,24,24,0,0,74,74,74,74,74,0,74,0,13,13,13,13,13,0,13,01-03-22,01-03-22,22:03:39,Fri Apr 01 2022 22:03:39 GMT+0200 (közép-európai nyári idő),The main experiment item,yes,0,0,C:/Users/rrics/Documents/!!ResearchBMECOGSCI/gnet,0,0,0,prototype3.png,no,mono,no,18,no,black,no,no,768,1214,3.5.6,legacy,xpyriment,osweb,1.3.13,0,right,space,left,right,30170,23339,33599,30170,2,legacy,860,1600,24,900,24,0,0,1600,1648843438296,1024,2,48000,-16,experiment,p2sarrshacol2.png,0,even,Win32,109,135264,132250,109,109,658022,659523,653020,136783,653020,109,751682,753198,748683,659531,748683,visual_patterns,0,0,0,yes,1366
undefined,undefined,undefined,undefined,white,no,Mozilla,Netscape,"5.0 (Windows NT 10.0; Win64; x64) AppleWebKit/537.36 (KHTML, like Gecko) Chrome/99.0.4844.84 Safari/537.36",xpyriment,legacy,legacy,0,uniform,0,0,0,0,24,24,24,0,0,74,74,74,74,74,0,74,0,14,14,14,14,14,0,14,01-03-22,01-03-22,22:03:39,Fri Apr 01 2022 22:03:39 GMT+0200 (közép-európai nyári idő),The main experiment item,yes,0,0,C:/Users/rrics/Documents/!!ResearchBMECOGSCI/gnet,0,0,0,prototype3.png,no,mono,no,18,no,black,no,no,768,1214,3.5.6,legacy,xpyriment,osweb,1.3.13,0,right,space,left,right,30170,23339,33599,30170,2,legacy,860,1600,24,900,24,0,0,1600,1648843438296,1024,2,48000,-16,experiment,p6sarr1.png,0,even,Win32,109,135264,132250,109,109,658022,659523,653020,136783,653020,109,756216,757730,753213,659531,753213,visual_patterns,0,0,0,yes,1366
undefined,undefined,undefined,undefined,white,no,Mozilla,Netscape,"5.0 (Windows NT 10.0; Win64; x64) AppleWebKit/537.36 (KHTML, like Gecko) Chrome/99.0.4844.84 Safari/537.36",xpyriment,legacy,legacy,0,uniform,0,0,0,0,24,24,24,0,0,74,74,74,74,74,0,74,0,15,15,15,15,15,0,15,01-03-22,01-03-22,22:03:39,Fri Apr 01 2022 22:03:39 GMT+0200 (közép-európai nyári idő),The main experiment item,yes,0,0,C:/Users/rrics/Documents/!!ResearchBMECOGSCI/gnet,0,0,0,prototype3.png,no,mono,no,18,no,black,no,no,768,1214,3.5.6,legacy,xpyriment,osweb,1.3.13,0,right,space,left,right,30170,23339,33599,30170,2,legacy,860,1600,24,900,24,0,0,1600,1648843438296,1024,2,48000,-16,experiment,p4sarrshacol3.png,0,even,Win32,109,135264,132250,109,109,658022,659523,653020,136783,653020,109,760746,762262,757751,659531,757751,visual_patterns,0,0,0,yes,1366
undefined,undefined,undefined,undefined,white,no,Mozilla,Netscape,"5.0 (Windows NT 10.0; Win64; x64) AppleWebKit/537.36 (KHTML, like Gecko) Chrome/99.0.4844.84 Safari/537.36",xpyriment,legacy,legacy,0,uniform,0,0,0,0,24,24,24,0,0,74,74,74,74,74,0,74,0,16,16,16,16,16,0,16,01-03-22,01-03-22,22:03:39,Fri Apr 01 2022 22:03:39 GMT+0200 (közép-európai nyári idő),The main experiment item,yes,0,0,C:/Users/rrics/Documents/!!ResearchBMECOGSCI/gnet,0,0,0,prototype3.png,no,mono,no,18,no,black,no,no,768,1214,3.5.6,legacy,xpyriment,osweb,1.3.13,0,right,space,left,right,30170,23339,33599,30170,2,legacy,860,1600,24,900,24,0,0,1600,1648843438296,1024,2,48000,-16,experiment,p4sarrshacol4.png,0,even,Win32,109,135264,132250,109,109,658022,659523,653020,136783,653020,109,765278,766794,762288,659531,762288,visual_patterns,0,0,0,yes,1366
undefined,undefined,undefined,undefined,white,no,Mozilla,Netscape,"5.0 (Windows NT 10.0; Win64; x64) AppleWebKit/537.36 (KHTML, like Gecko) Chrome/99.0.4844.84 Safari/537.36",xpyriment,legacy,legacy,0,uniform,0,0,0,0,24,24,24,0,0,74,74,74,74,74,0,74,0,17,17,17,17,17,0,17,01-03-22,01-03-22,22:03:39,Fri Apr 01 2022 22:03:39 GMT+0200 (közép-európai nyári idő),The main experiment item,yes,0,0,C:/Users/rrics/Documents/!!ResearchBMECOGSCI/gnet,0,0,0,prototype3.png,no,mono,no,18,no,black,no,no,768,1214,3.5.6,legacy,xpyriment,osweb,1.3.13,0,right,space,left,right,30170,23339,33599,30170,2,legacy,860,1600,24,900,24,0,0,1600,1648843438296,1024,2,48000,-16,experiment,p2sarrcol1.png,0,even,Win32,109,135264,132250,109,109,658022,659523,653020,136783,653020,109,769832,771343,766831,659531,766831,visual_patterns,0,0,0,yes,1366
undefined,undefined,undefined,undefined,white,no,Mozilla,Netscape,"5.0 (Windows NT 10.0; Win64; x64) AppleWebKit/537.36 (KHTML, like Gecko) Chrome/99.0.4844.84 Safari/537.36",xpyriment,legacy,legacy,0,uniform,0,0,0,0,24,24,24,0,0,74,74,74,74,74,0,74,0,18,18,18,18,18,0,18,01-03-22,01-03-22,22:03:39,Fri Apr 01 2022 22:03:39 GMT+0200 (közép-európai nyári idő),The main experiment item,yes,0,0,C:/Users/rrics/Documents/!!ResearchBMECOGSCI/gnet,0,0,0,prototype3.png,no,mono,no,18,no,black,no,no,768,1214,3.5.6,legacy,xpyriment,osweb,1.3.13,0,right,space,left,right,30170,23339,33599,30170,2,legacy,860,1600,24,900,24,0,0,1600,1648843438296,1024,2,48000,-16,experiment,p1sarr4.png,0,even,Win32,109,135264,132250,109,109,658022,659523,653020,136783,653020,109,774360,775875,771362,659531,771362,visual_patterns,0,0,0,yes,1366
undefined,undefined,undefined,undefined,white,no,Mozilla,Netscape,"5.0 (Windows NT 10.0; Win64; x64) AppleWebKit/537.36 (KHTML, like Gecko) Chrome/99.0.4844.84 Safari/537.36",xpyriment,legacy,legacy,0,uniform,0,0,0,0,24,24,24,0,0,74,74,74,74,74,0,74,0,19,19,19,19,19,0,19,01-03-22,01-03-22,22:03:39,Fri Apr 01 2022 22:03:39 GMT+0200 (közép-európai nyári idő),The main experiment item,yes,0,0,C:/Users/rrics/Documents/!!ResearchBMECOGSCI/gnet,0,0,0,prototype3.png,no,mono,no,18,no,black,no,no,768,1214,3.5.6,legacy,xpyriment,osweb,1.3.13,0,right,space,left,right,30170,23339,33599,30170,2,legacy,860,1600,24,900,24,0,0,1600,1648843438296,1024,2,48000,-16,experiment,p10sarr1.png,0,even,Win32,109,135264,132250,109,109,658022,659523,653020,136783,653020,109,778891,780407,775891,659531,775891,visual_patterns,0,0,0,yes,1366
undefined,undefined,undefined,undefined,white,no,Mozilla,Netscape,"5.0 (Windows NT 10.0; Win64; x64) AppleWebKit/537.36 (KHTML, like Gecko) Chrome/99.0.4844.84 Safari/537.36",xpyriment,legacy,legacy,0,uniform,0,0,0,0,24,24,24,0,0,74,74,74,74,74,0,74,0,20,20,20,20,20,0,20,01-03-22,01-03-22,22:03:39,Fri Apr 01 2022 22:03:39 GMT+0200 (közép-európai nyári idő),The main experiment item,yes,0,0,C:/Users/rrics/Documents/!!ResearchBMECOGSCI/gnet,0,0,0,prototype3.png,no,mono,no,18,no,black,no,no,768,1214,3.5.6,legacy,xpyriment,osweb,1.3.13,0,right,space,left,right,30170,23339,33599,30170,2,legacy,860,1600,24,900,24,0,0,1600,1648843438296,1024,2,48000,-16,experiment,p8sarr3.png,0,even,Win32,109,135264,132250,109,109,658022,659523,653020,136783,653020,109,783424,784940,780426,659531,780426,visual_patterns,0,0,0,yes,1366
undefined,undefined,undefined,undefined,white,no,Mozilla,Netscape,"5.0 (Windows NT 10.0; Win64; x64) AppleWebKit/537.36 (KHTML, like Gecko) Chrome/99.0.4844.84 Safari/537.36",xpyriment,legacy,legacy,0,uniform,0,0,0,0,24,24,24,0,0,74,74,74,74,74,0,74,0,21,21,21,21,21,0,21,01-03-22,01-03-22,22:03:39,Fri Apr 01 2022 22:03:39 GMT+0200 (közép-európai nyári idő),The main experiment item,yes,0,0,C:/Users/rrics/Documents/!!ResearchBMECOGSCI/gnet,0,0,0,prototype3.png,no,mono,no,18,no,black,no,no,768,1214,3.5.6,legacy,xpyriment,osweb,1.3.13,0,right,space,left,right,30170,23339,33599,30170,2,legacy,860,1600,24,900,24,0,0,1600,1648843438296,1024,2,48000,-16,experiment,p9sarr4.png,0,even,Win32,109,135264,132250,109,109,658022,659523,653020,136783,653020,109,787956,789472,784957,659531,784957,visual_patterns,0,0,0,yes,1366
undefined,undefined,undefined,undefined,white,no,Mozilla,Netscape,"5.0 (Windows NT 10.0; Win64; x64) AppleWebKit/537.36 (KHTML, like Gecko) Chrome/99.0.4844.84 Safari/537.36",xpyriment,legacy,legacy,0,uniform,0,0,0,0,24,24,24,0,0,74,74,74,74,74,0,74,0,22,22,22,22,22,0,22,01-03-22,01-03-22,22:03:39,Fri Apr 01 2022 22:03:39 GMT+0200 (közép-európai nyári idő),The main experiment item,yes,0,0,C:/Users/rrics/Documents/!!ResearchBMECOGSCI/gnet,0,0,0,prototype3.png,no,mono,no,18,no,black,no,no,768,1214,3.5.6,legacy,xpyriment,osweb,1.3.13,0,right,space,left,right,30170,23339,33599,30170,2,legacy,860,1600,24,900,24,0,0,1600,1648843438296,1024,2,48000,-16,experiment,p5sarrcol2.png,0,even,Win32,109,135264,132250,109,109,658022,659523,653020,136783,653020,109,792520,794037,789516,659531,789516,visual_patterns,0,0,0,yes,1366
undefined,undefined,undefined,undefined,white,no,Mozilla,Netscape,"5.0 (Windows NT 10.0; Win64; x64) AppleWebKit/537.36 (KHTML, like Gecko) Chrome/99.0.4844.84 Safari/537.36",xpyriment,legacy,legacy,0,uniform,0,0,0,0,24,24,24,0,0,74,74,74,74,74,0,74,0,23,23,23,23,23,0,23,01-03-22,01-03-22,22:03:39,Fri Apr 01 2022 22:03:39 GMT+0200 (közép-európai nyári idő),The main experiment item,yes,0,0,C:/Users/rrics/Documents/!!ResearchBMECOGSCI/gnet,0,0,0,prototype3.png,no,mono,no,18,no,black,no,no,768,1214,3.5.6,legacy,xpyriment,osweb,1.3.13,0,right,space,left,right,30170,23339,33599,30170,2,legacy,860,1600,24,900,24,0,0,1600,1648843438296,1024,2,48000,-16,experiment,p7sarr4.png,0,even,Win32,109,135264,132250,109,109,658022,659523,653020,136783,653020,109,797050,798553,794050,659531,794049,visual_patterns,0,0,0,yes,1366
undefined,undefined,undefined,undefined,white,no,Mozilla,Netscape,"5.0 (Windows NT 10.0; Win64; x64) AppleWebKit/537.36 (KHTML, like Gecko) Chrome/99.0.4844.84 Safari/537.36",xpyriment,legacy,legacy,0,uniform,0,0,0,0,24,24,24,0,0,74,74,74,74,74,0,74,0,24,24,24,24,24,0,24,01-03-22,01-03-22,22:03:39,Fri Apr 01 2022 22:03:39 GMT+0200 (közép-európai nyári idő),The main experiment item,yes,0,0,C:/Users/rrics/Documents/!!ResearchBMECOGSCI/gnet,0,0,0,prototype3.png,no,mono,no,18,no,black,no,no,768,1214,3.5.6,legacy,xpyriment,osweb,1.3.13,0,right,space,left,right,30170,23339,33599,30170,2,legacy,860,1600,24,900,24,0,0,1600,1648843438296,1024,2,48000,-16,experiment,p3sarrsha3.png,0,even,Win32,109,135264,132250,109,109,658022,659523,653020,136783,653020,109,801567,803068,798572,659531,798572,visual_patterns,0,0,0,yes,1366
undefined,undefined,undefined,undefined,white,no,Mozilla,Netscape,"5.0 (Windows NT 10.0; Win64; x64) AppleWebKit/537.36 (KHTML, like Gecko) Chrome/99.0.4844.84 Safari/537.36",xpyriment,legacy,legacy,0,uniform,0,0,0,0,24,24,24,0,0,74,74,74,74,74,0,74,0,25,25,25,25,25,0,25,01-03-22,01-03-22,22:03:39,Fri Apr 01 2022 22:03:39 GMT+0200 (közép-európai nyári idő),The main experiment item,yes,0,0,C:/Users/rrics/Documents/!!ResearchBMECOGSCI/gnet,0,0,0,prototype3.png,no,mono,no,18,no,black,no,no,768,1214,3.5.6,legacy,xpyriment,osweb,1.3.13,0,right,space,left,right,30170,23339,33599,30170,2,legacy,860,1600,24,900,24,0,0,1600,1648843438296,1024,2,48000,-16,experiment,p8sarr4.png,0,even,Win32,109,135264,132250,109,109,658022,659523,653020,136783,653020,109,806085,807600,803088,659531,803088,visual_patterns,0,0,0,yes,1366
undefined,undefined,undefined,undefined,white,no,Mozilla,Netscape,"5.0 (Windows NT 10.0; Win64; x64) AppleWebKit/537.36 (KHTML, like Gecko) Chrome/99.0.4844.84 Safari/537.36",xpyriment,legacy,legacy,0,uniform,0,0,0,0,24,24,24,0,0,74,74,74,74,74,0,74,0,26,26,26,26,26,0,26,01-03-22,01-03-22,22:03:39,Fri Apr 01 2022 22:03:39 GMT+0200 (közép-európai nyári idő),The main experiment item,yes,0,0,C:/Users/rrics/Documents/!!ResearchBMECOGSCI/gnet,0,0,0,prototype3.png,no,mono,no,18,no,black,no,no,768,1214,3.5.6,legacy,xpyriment,osweb,1.3.13,0,right,space,left,right,30170,23339,33599,30170,2,legacy,860,1600,24,900,24,0,0,1600,1648843438296,1024,2,48000,-16,experiment,p2sarrshacol4.png,0,even,Win32,109,135264,132250,109,109,658022,659523,653020,136783,653020,109,810614,812115,807619,659531,807619,visual_patterns,0,0,0,yes,1366
undefined,undefined,undefined,undefined,white,no,Mozilla,Netscape,"5.0 (Windows NT 10.0; Win64; x64) AppleWebKit/537.36 (KHTML, like Gecko) Chrome/99.0.4844.84 Safari/537.36",xpyriment,legacy,legacy,0,uniform,0,0,0,0,24,24,24,0,0,74,74,74,74,74,0,74,0,27,27,27,27,27,0,27,01-03-22,01-03-22,22:03:39,Fri Apr 01 2022 22:03:39 GMT+0200 (közép-európai nyári idő),The main experiment item,yes,0,0,C:/Users/rrics/Documents/!!ResearchBMECOGSCI/gnet,0,0,0,prototype3.png,no,mono,no,18,no,black,no,no,768,1214,3.5.6,legacy,xpyriment,osweb,1.3.13,0,right,space,left,right,30170,23339,33599,30170,2,legacy,860,1600,24,900,24,0,0,1600,1648843438296,1024,2,48000,-16,experiment,p4sarrshacol1.png,0,even,Win32,109,135264,132250,109,109,658022,659523,653020,136783,653020,109,815133,816648,812133,659531,812133,visual_patterns,0,0,0,yes,1366
undefined,undefined,undefined,undefined,white,no,Mozilla,Netscape,"5.0 (Windows NT 10.0; Win64; x64) AppleWebKit/537.36 (KHTML, like Gecko) Chrome/99.0.4844.84 Safari/537.36",xpyriment,legacy,legacy,0,uniform,0,0,0,0,24,24,24,0,0,74,74,74,74,74,0,74,0,28,28,28,28,28,0,28,01-03-22,01-03-22,22:03:39,Fri Apr 01 2022 22:03:39 GMT+0200 (közép-európai nyári idő),The main experiment item,yes,0,0,C:/Users/rrics/Documents/!!ResearchBMECOGSCI/gnet,0,0,0,prototype3.png,no,mono,no,18,no,black,no,no,768,1214,3.5.6,legacy,xpyriment,osweb,1.3.13,0,right,space,left,right,30170,23339,33599,30170,2,legacy,860,1600,24,900,24,0,0,1600,1648843438296,1024,2,48000,-16,experiment,p1sarrshacol3.png,0,even,Win32,109,135264,132250,109,109,658022,659523,653020,136783,653020,109,819656,821163,816657,659531,816657,visual_patterns,0,0,0,yes,1366
undefined,undefined,undefined,undefined,white,no,Mozilla,Netscape,"5.0 (Windows NT 10.0; Win64; x64) AppleWebKit/537.36 (KHTML, like Gecko) Chrome/99.0.4844.84 Safari/537.36",xpyriment,legacy,legacy,0,uniform,0,0,0,0,24,24,24,0,0,74,74,74,74,74,0,74,0,29,29,29,29,29,0,29,01-03-22,01-03-22,22:03:39,Fri Apr 01 2022 22:03:39 GMT+0200 (közép-európai nyári idő),The main experiment item,yes,0,0,C:/Users/rrics/Documents/!!ResearchBMECOGSCI/gnet,0,0,0,prototype3.png,no,mono,no,18,no,black,no,no,768,1214,3.5.6,legacy,xpyriment,osweb,1.3.13,0,right,space,left,right,30170,23339,33599,30170,2,legacy,860,1600,24,900,24,0,0,1600,1648843438296,1024,2,48000,-16,experiment,p2sarrsha1.png,0,even,Win32,109,135264,132250,109,109,658022,659523,653020,136783,653020,109,824181,825695,821178,659531,821178,visual_patterns,0,0,0,yes,1366
undefined,undefined,undefined,undefined,white,no,Mozilla,Netscape,"5.0 (Windows NT 10.0; Win64; x64) AppleWebKit/537.36 (KHTML, like Gecko) Chrome/99.0.4844.84 Safari/537.36",xpyriment,legacy,legacy,0,uniform,0,0,0,0,24,24,24,0,0,74,74,74,74,74,0,74,0,30,30,30,30,30,0,30,01-03-22,01-03-22,22:03:39,Fri Apr 01 2022 22:03:39 GMT+0200 (közép-európai nyári idő),The main experiment item,yes,0,0,C:/Users/rrics/Documents/!!ResearchBMECOGSCI/gnet,0,0,0,prototype3.png,no,mono,no,18,no,black,no,no,768,1214,3.5.6,legacy,xpyriment,osweb,1.3.13,0,right,space,left,right,30170,23339,33599,30170,2,legacy,860,1600,24,900,24,0,0,1600,1648843438296,1024,2,48000,-16,experiment,p3sarr2.png,0,even,Win32,109,135264,132250,109,109,658022,659523,653020,136783,653020,109,828710,830211,825711,659531,825711,visual_patterns,0,0,0,yes,1366
undefined,undefined,undefined,undefined,white,no,Mozilla,Netscape,"5.0 (Windows NT 10.0; Win64; x64) AppleWebKit/537.36 (KHTML, like Gecko) Chrome/99.0.4844.84 Safari/537.36",xpyriment,legacy,legacy,0,uniform,0,0,0,0,24,24,24,0,0,74,74,74,74,74,0,74,0,31,31,31,31,31,0,31,01-03-22,01-03-22,22:03:39,Fri Apr 01 2022 22:03:39 GMT+0200 (közép-európai nyári idő),The main experiment item,yes,0,0,C:/Users/rrics/Documents/!!ResearchBMECOGSCI/gnet,0,0,0,prototype3.png,no,mono,no,18,no,black,no,no,768,1214,3.5.6,legacy,xpyriment,osweb,1.3.13,0,right,space,left,right,30170,23339,33599,30170,2,legacy,860,1600,24,900,24,0,0,1600,1648843438296,1024,2,48000,-16,experiment,p3sarrshacol3.png,0,even,Win32,109,135264,132250,109,109,658022,659523,653020,136783,653020,109,833229,834743,830233,659531,830233,visual_patterns,0,0,0,yes,1366
undefined,undefined,undefined,undefined,white,no,Mozilla,Netscape,"5.0 (Windows NT 10.0; Win64; x64) AppleWebKit/537.36 (KHTML, like Gecko) Chrome/99.0.4844.84 Safari/537.36",xpyriment,legacy,legacy,0,uniform,0,0,0,0,24,24,24,0,0,74,74,74,74,74,0,74,0,32,32,32,32,32,0,32,01-03-22,01-03-22,22:03:39,Fri Apr 01 2022 22:03:39 GMT+0200 (közép-európai nyári idő),The main experiment item,yes,0,0,C:/Users/rrics/Documents/!!ResearchBMECOGSCI/gnet,0,0,0,prototype3.png,no,mono,no,18,no,black,no,no,768,1214,3.5.6,legacy,xpyriment,osweb,1.3.13,0,right,space,left,right,30170,23339,33599,30170,2,legacy,860,1600,24,900,24,0,0,1600,1648843438296,1024,2,48000,-16,experiment,p2sarrcol4.png,0,even,Win32,109,135264,132250,109,109,658022,659523,653020,136783,653020,109,837783,839292,834782,659531,834782,visual_patterns,0,0,0,yes,1366
undefined,undefined,undefined,undefined,white,no,Mozilla,Netscape,"5.0 (Windows NT 10.0; Win64; x64) AppleWebKit/537.36 (KHTML, like Gecko) Chrome/99.0.4844.84 Safari/537.36",xpyriment,legacy,legacy,0,uniform,0,0,0,0,24,24,24,0,0,74,74,74,74,74,0,74,0,33,33,33,33,33,0,33,01-03-22,01-03-22,22:03:39,Fri Apr 01 2022 22:03:39 GMT+0200 (közép-európai nyári idő),The main experiment item,yes,0,0,C:/Users/rrics/Documents/!!ResearchBMECOGSCI/gnet,0,0,0,prototype3.png,no,mono,no,18,no,black,no,no,768,1214,3.5.6,legacy,xpyriment,osweb,1.3.13,0,right,space,left,right,30170,23339,33599,30170,2,legacy,860,1600,24,900,24,0,0,1600,1648843438296,1024,2,48000,-16,experiment,p5sarrcol1.png,0,even,Win32,109,135264,132250,109,109,658022,659523,653020,136783,653020,109,842310,843824,839310,659531,839310,visual_patterns,0,0,0,yes,1366
undefined,undefined,undefined,undefined,white,no,Mozilla,Netscape,"5.0 (Windows NT 10.0; Win64; x64) AppleWebKit/537.36 (KHTML, like Gecko) Chrome/99.0.4844.84 Safari/537.36",xpyriment,legacy,legacy,0,uniform,0,0,0,0,24,24,24,0,0,74,74,74,74,74,0,74,0,34,34,34,34,34,0,34,01-03-22,01-03-22,22:03:39,Fri Apr 01 2022 22:03:39 GMT+0200 (közép-európai nyári idő),The main experiment item,yes,0,0,C:/Users/rrics/Documents/!!ResearchBMECOGSCI/gnet,0,0,0,prototype3.png,no,mono,no,18,no,black,no,no,768,1214,3.5.6,legacy,xpyriment,osweb,1.3.13,0,right,space,left,right,30170,23339,33599,30170,2,legacy,860,1600,24,900,24,0,0,1600,1648843438296,1024,2,48000,-16,experiment,p8sarr2.png,0,even,Win32,109,135264,132250,109,109,658022,659523,653020,136783,653020,109,846839,848356,843841,659531,843841,visual_patterns,0,0,0,yes,1366
undefined,undefined,undefined,undefined,white,no,Mozilla,Netscape,"5.0 (Windows NT 10.0; Win64; x64) AppleWebKit/537.36 (KHTML, like Gecko) Chrome/99.0.4844.84 Safari/537.36",xpyriment,legacy,legacy,0,uniform,0,0,0,0,24,24,24,0,0,74,74,74,74,74,0,74,0,35,35,35,35,35,0,35,01-03-22,01-03-22,22:03:39,Fri Apr 01 2022 22:03:39 GMT+0200 (közép-európai nyári idő),The main experiment item,yes,0,0,C:/Users/rrics/Documents/!!ResearchBMECOGSCI/gnet,0,0,0,prototype3.png,no,mono,no,18,no,black,no,no,768,1214,3.5.6,legacy,xpyriment,osweb,1.3.13,0,right,space,left,right,30170,23339,33599,30170,2,legacy,860,1600,24,900,24,0,0,1600,1648843438296,1024,2,48000,-16,experiment,p5sarr3.png,0,even,Win32,109,135264,132250,109,109,658022,659523,653020,136783,653020,109,851375,852888,848376,659531,848376,visual_patterns,0,0,0,yes,1366
undefined,undefined,undefined,undefined,white,no,Mozilla,Netscape,"5.0 (Windows NT 10.0; Win64; x64) AppleWebKit/537.36 (KHTML, like Gecko) Chrome/99.0.4844.84 Safari/537.36",xpyriment,legacy,legacy,0,uniform,0,0,0,0,24,24,24,0,0,74,74,74,74,74,0,74,0,36,36,36,36,36,0,36,01-03-22,01-03-22,22:03:39,Fri Apr 01 2022 22:03:39 GMT+0200 (közép-európai nyári idő),The main experiment item,yes,0,0,C:/Users/rrics/Documents/!!ResearchBMECOGSCI/gnet,0,0,0,prototype3.png,no,mono,no,18,no,black,no,no,768,1214,3.5.6,legacy,xpyriment,osweb,1.3.13,0,right,space,left,right,30170,23339,33599,30170,2,legacy,860,1600,24,900,24,0,0,1600,1648843438296,1024,2,48000,-16,experiment,p7sarr1.png,0,even,Win32,109,135264,132250,109,109,658022,659523,653020,136783,653020,109,855903,857420,852904,659531,852904,visual_patterns,0,0,0,yes,1366
undefined,undefined,undefined,undefined,white,no,Mozilla,Netscape,"5.0 (Windows NT 10.0; Win64; x64) AppleWebKit/537.36 (KHTML, like Gecko) Chrome/99.0.4844.84 Safari/537.36",xpyriment,legacy,legacy,0,uniform,0,0,0,0,24,24,24,0,0,74,74,74,74,74,0,74,0,37,37,37,37,37,0,37,01-03-22,01-03-22,22:03:39,Fri Apr 01 2022 22:03:39 GMT+0200 (közép-európai nyári idő),The main experiment item,yes,0,0,C:/Users/rrics/Documents/!!ResearchBMECOGSCI/gnet,0,0,0,prototype3.png,no,mono,no,18,no,black,no,no,768,1214,3.5.6,legacy,xpyriment,osweb,1.3.13,0,right,space,left,right,30170,23339,33599,30170,2,legacy,860,1600,24,900,24,0,0,1600,1648843438296,1024,2,48000,-16,experiment,p1sarrcol4.png,0,even,Win32,109,135264,132250,109,109,658022,659523,653020,136783,653020,109,860438,861952,857441,659531,857441,visual_patterns,0,0,0,yes,1366
undefined,undefined,undefined,undefined,white,no,Mozilla,Netscape,"5.0 (Windows NT 10.0; Win64; x64) AppleWebKit/537.36 (KHTML, like Gecko) Chrome/99.0.4844.84 Safari/537.36",xpyriment,legacy,legacy,0,uniform,0,0,0,0,24,24,24,0,0,74,74,74,74,74,0,74,0,38,38,38,38,38,0,38,01-03-22,01-03-22,22:03:39,Fri Apr 01 2022 22:03:39 GMT+0200 (közép-európai nyári idő),The main experiment item,yes,0,0,C:/Users/rrics/Documents/!!ResearchBMECOGSCI/gnet,0,0,0,prototype3.png,no,mono,no,18,no,black,no,no,768,1214,3.5.6,legacy,xpyriment,osweb,1.3.13,0,right,space,left,right,30170,23339,33599,30170,2,legacy,860,1600,24,900,24,0,0,1600,1648843438296,1024,2,48000,-16,experiment,p3sarrsha4.png,0,even,Win32,109,135264,132250,109,109,658022,659523,653020,136783,653020,109,864994,866501,861991,659531,861991,visual_patterns,0,0,0,yes,1366
undefined,undefined,undefined,undefined,white,no,Mozilla,Netscape,"5.0 (Windows NT 10.0; Win64; x64) AppleWebKit/537.36 (KHTML, like Gecko) Chrome/99.0.4844.84 Safari/537.36",xpyriment,legacy,legacy,0,uniform,0,0,0,0,24,24,24,0,0,74,74,74,74,74,0,74,0,39,39,39,39,39,0,39,01-03-22,01-03-22,22:03:39,Fri Apr 01 2022 22:03:39 GMT+0200 (közép-európai nyári idő),The main experiment item,yes,0,0,C:/Users/rrics/Documents/!!ResearchBMECOGSCI/gnet,0,0,0,prototype3.png,no,mono,no,18,no,black,no,no,768,1214,3.5.6,legacy,xpyriment,osweb,1.3.13,0,right,space,left,right,30170,23339,33599,30170,2,legacy,860,1600,24,900,24,0,0,1600,1648843438296,1024,2,48000,-16,experiment,p3sarr1.png,0,even,Win32,109,135264,132250,109,109,658022,659523,653020,136783,653020,109,869517,871033,866516,659531,866515,visual_patterns,0,0,0,yes,1366
undefined,undefined,undefined,undefined,white,no,Mozilla,Netscape,"5.0 (Windows NT 10.0; Win64; x64) AppleWebKit/537.36 (KHTML, like Gecko) Chrome/99.0.4844.84 Safari/537.36",xpyriment,legacy,legacy,0,uniform,0,0,0,0,24,24,24,0,0,74,74,74,74,74,0,74,0,40,40,40,40,40,0,40,01-03-22,01-03-22,22:03:39,Fri Apr 01 2022 22:03:39 GMT+0200 (közép-európai nyári idő),The main experiment item,yes,0,0,C:/Users/rrics/Documents/!!ResearchBMECOGSCI/gnet,0,0,0,prototype3.png,no,mono,no,18,no,black,no,no,768,1214,3.5.6,legacy,xpyriment,osweb,1.3.13,0,right,space,left,right,30170,23339,33599,30170,2,legacy,860,1600,24,900,24,0,0,1600,1648843438296,1024,2,48000,-16,experiment,p2sarrsha3.png,0,even,Win32,109,135264,132250,109,109,658022,659523,653020,136783,653020,109,874050,875565,871052,659531,871052,visual_patterns,0,0,0,yes,1366
undefined,undefined,undefined,undefined,white,no,Mozilla,Netscape,"5.0 (Windows NT 10.0; Win64; x64) AppleWebKit/537.36 (KHTML, like Gecko) Chrome/99.0.4844.84 Safari/537.36",xpyriment,legacy,legacy,0,uniform,0,0,0,0,24,24,24,0,0,74,74,74,74,74,0,74,0,41,41,41,41,41,0,41,01-03-22,01-03-22,22:03:39,Fri Apr 01 2022 22:03:39 GMT+0200 (közép-európai nyári idő),The main experiment item,yes,0,0,C:/Users/rrics/Documents/!!ResearchBMECOGSCI/gnet,0,0,0,prototype3.png,no,mono,no,18,no,black,no,no,768,1214,3.5.6,legacy,xpyriment,osweb,1.3.13,0,right,space,left,right,30170,23339,33599,30170,2,legacy,860,1600,24,900,24,0,0,1600,1648843438296,1024,2,48000,-16,experiment,p9sarr3.png,0,even,Win32,109,135264,132250,109,109,658022,659523,653020,136783,653020,109,878582,880098,875584,659531,875584,visual_patterns,0,0,0,yes,1366
undefined,undefined,undefined,undefined,white,no,Mozilla,Netscape,"5.0 (Windows NT 10.0; Win64; x64) AppleWebKit/537.36 (KHTML, like Gecko) Chrome/99.0.4844.84 Safari/537.36",xpyriment,legacy,legacy,0,uniform,0,0,0,0,24,24,24,0,0,74,74,74,74,74,0,74,0,42,42,42,42,42,0,42,01-03-22,01-03-22,22:03:39,Fri Apr 01 2022 22:03:39 GMT+0200 (közép-európai nyári idő),The main experiment item,yes,0,0,C:/Users/rrics/Documents/!!ResearchBMECOGSCI/gnet,0,0,0,prototype3.png,no,mono,no,18,no,black,no,no,768,1214,3.5.6,legacy,xpyriment,osweb,1.3.13,0,right,space,left,right,30170,23339,33599,30170,2,legacy,860,1600,24,900,24,0,0,1600,1648843438296,1024,2,48000,-16,experiment,p10sarr4.png,0,even,Win32,109,135264,132250,109,109,658022,659523,653020,136783,653020,109,883115,884630,880116,659531,880116,visual_patterns,0,0,0,yes,1366
undefined,undefined,undefined,undefined,white,no,Mozilla,Netscape,"5.0 (Windows NT 10.0; Win64; x64) AppleWebKit/537.36 (KHTML, like Gecko) Chrome/99.0.4844.84 Safari/537.36",xpyriment,legacy,legacy,0,uniform,0,0,0,0,24,24,24,0,0,74,74,74,74,74,0,74,0,43,43,43,43,43,0,43,01-03-22,01-03-22,22:03:39,Fri Apr 01 2022 22:03:39 GMT+0200 (közép-európai nyári idő),The main experiment item,yes,0,0,C:/Users/rrics/Documents/!!ResearchBMECOGSCI/gnet,0,0,0,prototype3.png,no,mono,no,18,no,black,no,no,768,1214,3.5.6,legacy,xpyriment,osweb,1.3.13,0,right,space,left,right,30170,23339,33599,30170,2,legacy,860,1600,24,900,24,0,0,1600,1648843438296,1024,2,48000,-16,experiment,p4sarrcol1.png,0,even,Win32,109,135264,132250,109,109,658022,659523,653020,136783,653020,109,887647,889162,884647,659531,884647,visual_patterns,0,0,0,yes,1366
undefined,undefined,undefined,undefined,white,no,Mozilla,Netscape,"5.0 (Windows NT 10.0; Win64; x64) AppleWebKit/537.36 (KHTML, like Gecko) Chrome/99.0.4844.84 Safari/537.36",xpyriment,legacy,legacy,0,uniform,0,0,0,0,24,24,24,0,0,74,74,74,74,74,0,74,0,44,44,44,44,44,0,44,01-03-22,01-03-22,22:03:39,Fri Apr 01 2022 22:03:39 GMT+0200 (közép-európai nyári idő),The main experiment item,yes,0,0,C:/Users/rrics/Documents/!!ResearchBMECOGSCI/gnet,0,0,0,prototype3.png,no,mono,no,18,no,black,no,no,768,1214,3.5.6,legacy,xpyriment,osweb,1.3.13,0,right,space,left,right,30170,23339,33599,30170,2,legacy,860,1600,24,900,24,0,0,1600,1648843438296,1024,2,48000,-16,experiment,p5sarrshacol4.png,0,even,Win32,109,135264,132250,109,109,658022,659523,653020,136783,653020,109,892179,893694,889182,659531,889182,visual_patterns,0,0,0,yes,1366
undefined,undefined,undefined,undefined,white,no,Mozilla,Netscape,"5.0 (Windows NT 10.0; Win64; x64) AppleWebKit/537.36 (KHTML, like Gecko) Chrome/99.0.4844.84 Safari/537.36",xpyriment,legacy,legacy,0,uniform,0,0,0,0,24,24,24,0,0,74,74,74,74,74,0,74,0,45,45,45,45,45,0,45,01-03-22,01-03-22,22:03:39,Fri Apr 01 2022 22:03:39 GMT+0200 (közép-európai nyári idő),The main experiment item,yes,0,0,C:/Users/rrics/Documents/!!ResearchBMECOGSCI/gnet,0,0,0,prototype3.png,no,mono,no,18,no,black,no,no,768,1214,3.5.6,legacy,xpyriment,osweb,1.3.13,0,right,space,left,right,30170,23339,33599,30170,2,legacy,860,1600,24,900,24,0,0,1600,1648843438296,1024,2,48000,-16,experiment,p3sarr3.png,0,even,Win32,109,135264,132250,109,109,658022,659523,653020,136783,653020,109,896708,898210,893715,659531,893715,visual_patterns,0,0,0,yes,1366
undefined,undefined,undefined,undefined,white,no,Mozilla,Netscape,"5.0 (Windows NT 10.0; Win64; x64) AppleWebKit/537.36 (KHTML, like Gecko) Chrome/99.0.4844.84 Safari/537.36",xpyriment,legacy,legacy,0,uniform,0,0,0,0,24,24,24,0,0,74,74,74,74,74,0,74,0,46,46,46,46,46,0,46,01-03-22,01-03-22,22:03:39,Fri Apr 01 2022 22:03:39 GMT+0200 (közép-európai nyári idő),The main experiment item,yes,0,0,C:/Users/rrics/Documents/!!ResearchBMECOGSCI/gnet,0,0,0,prototype3.png,no,mono,no,18,no,black,no,no,768,1214,3.5.6,legacy,xpyriment,osweb,1.3.13,0,right,space,left,right,30170,23339,33599,30170,2,legacy,860,1600,24,900,24,0,0,1600,1648843438296,1024,2,48000,-16,experiment,p2sarr3.png,0,even,Win32,109,135264,132250,109,109,658022,659523,653020,136783,653020,109,901225,902741,898229,659531,898229,visual_patterns,0,0,0,yes,1366
undefined,undefined,undefined,undefined,white,no,Mozilla,Netscape,"5.0 (Windows NT 10.0; Win64; x64) AppleWebKit/537.36 (KHTML, like Gecko) Chrome/99.0.4844.84 Safari/537.36",xpyriment,legacy,legacy,0,uniform,0,0,0,0,24,24,24,0,0,74,74,74,74,74,0,74,0,47,47,47,47,47,0,47,01-03-22,01-03-22,22:03:39,Fri Apr 01 2022 22:03:39 GMT+0200 (közép-európai nyári idő),The main experiment item,yes,0,0,C:/Users/rrics/Documents/!!ResearchBMECOGSCI/gnet,0,0,0,prototype3.png,no,mono,no,18,no,black,no,no,768,1214,3.5.6,legacy,xpyriment,osweb,1.3.13,0,right,space,left,right,30170,23339,33599,30170,2,legacy,860,1600,24,900,24,0,0,1600,1648843438296,1024,2,48000,-16,experiment,p4sarr2.png,0,even,Win32,109,135264,132250,109,109,658022,659523,653020,136783,653020,109,905758,907274,902756,659531,902756,visual_patterns,0,0,0,yes,1366
undefined,undefined,undefined,undefined,white,no,Mozilla,Netscape,"5.0 (Windows NT 10.0; Win64; x64) AppleWebKit/537.36 (KHTML, like Gecko) Chrome/99.0.4844.84 Safari/537.36",xpyriment,legacy,legacy,0,uniform,0,0,0,0,24,24,24,0,0,74,74,74,74,74,0,74,0,48,48,48,48,48,0,48,01-03-22,01-03-22,22:03:39,Fri Apr 01 2022 22:03:39 GMT+0200 (közép-európai nyári idő),The main experiment item,yes,0,0,C:/Users/rrics/Documents/!!ResearchBMECOGSCI/gnet,0,0,0,prototype3.png,no,mono,no,18,no,black,no,no,768,1214,3.5.6,legacy,xpyriment,osweb,1.3.13,0,right,space,left,right,30170,23339,33599,30170,2,legacy,860,1600,24,900,24,0,0,1600,1648843438296,1024,2,48000,-16,experiment,p2sarrshacol3.png,0,even,Win32,109,135264,132250,109,109,658022,659523,653020,136783,653020,109,910316,911823,907313,659531,907313,visual_patterns,0,0,0,yes,1366
