acc,accuracy,average_response_time,avg_rt,background,bidi,browser_codename,browser_name,browser_version,canvas_backend,clock_backend,color_backend,compensation,coordinates,count_end,count_experiment,count_osweb,count_prestudy,count_prestudy_isi,count_prestudy_sequence,count_prestudy_stimpres,count_start,count_study,count_study_coroutines,count_study_isi,count_study_logger,count_study_response,count_study_sequence,count_study_start,count_study_stimpres,count_test,count_test_coroutines,count_test_isi,count_test_logger,count_test_response,count_test_sequence,count_test_start,count_test_stimpres,date_startdate,date_startdateUTC,date_starttime,datetime,description,disable_garbage_collection,experiment_debug,experiment_parameters,experiment_path,experiment_pilot,experiment_taskname,experiment_taskversion,fampict,font_bold,font_family,font_italic,font_size,font_underline,foreground,form_clicks,fullscreen,height,jatosStudyResultId,jatosVersion,keyboard_backend,mouse_backend,opensesame_codename,opensesame_version,repeat_cycle,response,response_start,response_study_start,response_test_start,response_time,response_time_start,response_time_study_start,response_time_test_start,round_decimals,sampler_backend,screen_availableHeight,screen_availableWidth,screen_colorDepth,screen_height,screen_pixelDepth,screen_screenX,screen_screenY,screen_width,sessionid,sound_buf_size,sound_channels,sound_freq,sound_sample_size,start,stim,subject_nr,subject_parity,system_os,time_prestudy,time_prestudy_isi,time_prestudy_stimpres,time_start,time_study,time_study_isi,time_study_logger,time_study_response,time_study_start,time_study_stimpres,time_test,time_test_isi,time_test_logger,time_test_response,time_test_start,time_test_stimpres,title,total_correct,total_response_time,total_responses,uniform_coordinates,width
undefined,undefined,undefined,undefined,white,no,Mozilla,Netscape,"5.0 (Windows NT 10.0; Win64; x64) AppleWebKit/537.36 (KHTML, like Gecko) Chrome/100.0.4896.75 Safari/537.36",xpyriment,legacy,legacy,0,uniform,0,0,0,0,24,24,24,0,0,0,0,0,0,0,0,0,0,,,,,,0,,10-03-22,10-03-22,11:56:10,Sun Apr 10 2022 11:56:10 GMT+0200 (közép-európai nyári idő),The main experiment item,yes,0,0,C:/Users/rrics/Documents/!!ResearchBMECOGSCI/gnet,0,0,0,prototype1.png,no,mono,no,18,no,black,no,no,768,1215,3.5.6,legacy,xpyriment,osweb,1.3.13,0,space,space,space,,26640,19994,26640,,2,legacy,834,1536,24,864,24,0,0,1536,1649584613257,1024,2,48000,-16,experiment,p6sarr1.png,1,odd,Win32,169,131968,128958,169,169,165147,166656,160147,133488,160146,169,,,,,,visual_patterns,0,0,0,yes,1366
undefined,undefined,undefined,undefined,white,no,Mozilla,Netscape,"5.0 (Windows NT 10.0; Win64; x64) AppleWebKit/537.36 (KHTML, like Gecko) Chrome/100.0.4896.75 Safari/537.36",xpyriment,legacy,legacy,0,uniform,0,0,0,0,24,24,24,0,0,1,1,1,1,1,0,1,0,,,,,,0,,10-03-22,10-03-22,11:56:10,Sun Apr 10 2022 11:56:10 GMT+0200 (közép-európai nyári idő),The main experiment item,yes,0,0,C:/Users/rrics/Documents/!!ResearchBMECOGSCI/gnet,0,0,0,prototype1.png,no,mono,no,18,no,black,no,no,768,1215,3.5.6,legacy,xpyriment,osweb,1.3.13,0,space,space,space,,26640,19994,26640,,2,legacy,834,1536,24,864,24,0,0,1536,1649584613257,1024,2,48000,-16,experiment,prototype3.png,1,odd,Win32,169,131968,128958,169,169,171680,173196,166678,133488,166678,169,,,,,,visual_patterns,0,0,0,yes,1366
undefined,undefined,undefined,undefined,white,no,Mozilla,Netscape,"5.0 (Windows NT 10.0; Win64; x64) AppleWebKit/537.36 (KHTML, like Gecko) Chrome/100.0.4896.75 Safari/537.36",xpyriment,legacy,legacy,0,uniform,0,0,0,0,24,24,24,0,0,2,2,2,2,2,0,2,0,,,,,,0,,10-03-22,10-03-22,11:56:10,Sun Apr 10 2022 11:56:10 GMT+0200 (közép-európai nyári idő),The main experiment item,yes,0,0,C:/Users/rrics/Documents/!!ResearchBMECOGSCI/gnet,0,0,0,prototype1.png,no,mono,no,18,no,black,no,no,768,1215,3.5.6,legacy,xpyriment,osweb,1.3.13,0,space,space,space,,26640,19994,26640,,2,legacy,834,1536,24,864,24,0,0,1536,1649584613257,1024,2,48000,-16,experiment,p3sarr1.png,1,odd,Win32,169,131968,128958,169,169,178205,179708,173204,133488,173204,169,,,,,,visual_patterns,0,0,0,yes,1366
undefined,undefined,undefined,undefined,white,no,Mozilla,Netscape,"5.0 (Windows NT 10.0; Win64; x64) AppleWebKit/537.36 (KHTML, like Gecko) Chrome/100.0.4896.75 Safari/537.36",xpyriment,legacy,legacy,0,uniform,0,0,0,0,24,24,24,0,0,3,3,3,3,3,0,3,0,,,,,,0,,10-03-22,10-03-22,11:56:10,Sun Apr 10 2022 11:56:10 GMT+0200 (közép-európai nyári idő),The main experiment item,yes,0,0,C:/Users/rrics/Documents/!!ResearchBMECOGSCI/gnet,0,0,0,prototype1.png,no,mono,no,18,no,black,no,no,768,1215,3.5.6,legacy,xpyriment,osweb,1.3.13,0,space,space,space,,26640,19994,26640,,2,legacy,834,1536,24,864,24,0,0,1536,1649584613257,1024,2,48000,-16,experiment,p9sarr2.png,1,odd,Win32,169,131968,128958,169,169,184736,186252,179748,133488,179748,169,,,,,,visual_patterns,0,0,0,yes,1366
undefined,undefined,undefined,undefined,white,no,Mozilla,Netscape,"5.0 (Windows NT 10.0; Win64; x64) AppleWebKit/537.36 (KHTML, like Gecko) Chrome/100.0.4896.75 Safari/537.36",xpyriment,legacy,legacy,0,uniform,0,0,0,0,24,24,24,0,0,4,4,4,4,4,0,4,0,,,,,,0,,10-03-22,10-03-22,11:56:10,Sun Apr 10 2022 11:56:10 GMT+0200 (közép-európai nyári idő),The main experiment item,yes,0,0,C:/Users/rrics/Documents/!!ResearchBMECOGSCI/gnet,0,0,0,prototype1.png,no,mono,no,18,no,black,no,no,768,1215,3.5.6,legacy,xpyriment,osweb,1.3.13,0,space,space,space,,26640,19994,26640,,2,legacy,834,1536,24,864,24,0,0,1536,1649584613257,1024,2,48000,-16,experiment,p4sarr2.png,1,odd,Win32,169,131968,128958,169,169,191296,192797,186297,133488,186297,169,,,,,,visual_patterns,0,0,0,yes,1366
undefined,undefined,undefined,undefined,white,no,Mozilla,Netscape,"5.0 (Windows NT 10.0; Win64; x64) AppleWebKit/537.36 (KHTML, like Gecko) Chrome/100.0.4896.75 Safari/537.36",xpyriment,legacy,legacy,0,uniform,0,0,0,0,24,24,24,0,0,5,5,5,5,5,0,5,0,,,,,,0,,10-03-22,10-03-22,11:56:10,Sun Apr 10 2022 11:56:10 GMT+0200 (közép-európai nyári idő),The main experiment item,yes,0,0,C:/Users/rrics/Documents/!!ResearchBMECOGSCI/gnet,0,0,0,prototype1.png,no,mono,no,18,no,black,no,no,768,1215,3.5.6,legacy,xpyriment,osweb,1.3.13,0,space,space,space,,26640,19994,26640,,2,legacy,834,1536,24,864,24,0,0,1536,1649584613257,1024,2,48000,-16,experiment,p4sarrshacol2.png,1,odd,Win32,169,131968,128958,169,169,197820,199323,192823,133488,192823,169,,,,,,visual_patterns,0,0,0,yes,1366
undefined,undefined,undefined,undefined,white,no,Mozilla,Netscape,"5.0 (Windows NT 10.0; Win64; x64) AppleWebKit/537.36 (KHTML, like Gecko) Chrome/100.0.4896.75 Safari/537.36",xpyriment,legacy,legacy,0,uniform,0,0,0,0,24,24,24,0,0,6,6,6,6,6,0,6,0,,,,,,0,,10-03-22,10-03-22,11:56:10,Sun Apr 10 2022 11:56:10 GMT+0200 (közép-európai nyári idő),The main experiment item,yes,0,0,C:/Users/rrics/Documents/!!ResearchBMECOGSCI/gnet,0,0,0,prototype1.png,no,mono,no,18,no,black,no,no,768,1215,3.5.6,legacy,xpyriment,osweb,1.3.13,0,space,space,space,,26640,19994,26640,,2,legacy,834,1536,24,864,24,0,0,1536,1649584613257,1024,2,48000,-16,experiment,p5sarrsha2.png,1,odd,Win32,169,131968,128958,169,169,204335,205852,199334,133488,199334,169,,,,,,visual_patterns,0,0,0,yes,1366
undefined,undefined,undefined,undefined,white,no,Mozilla,Netscape,"5.0 (Windows NT 10.0; Win64; x64) AppleWebKit/537.36 (KHTML, like Gecko) Chrome/100.0.4896.75 Safari/537.36",xpyriment,legacy,legacy,0,uniform,0,0,0,0,24,24,24,0,0,7,7,7,7,7,0,7,0,,,,,,0,,10-03-22,10-03-22,11:56:10,Sun Apr 10 2022 11:56:10 GMT+0200 (közép-európai nyári idő),The main experiment item,yes,0,0,C:/Users/rrics/Documents/!!ResearchBMECOGSCI/gnet,0,0,0,prototype1.png,no,mono,no,18,no,black,no,no,768,1215,3.5.6,legacy,xpyriment,osweb,1.3.13,0,space,space,space,,26640,19994,26640,,2,legacy,834,1536,24,864,24,0,0,1536,1649584613257,1024,2,48000,-16,experiment,p2sarr1.png,1,odd,Win32,169,131968,128958,169,169,210879,212396,205880,133488,205880,169,,,,,,visual_patterns,0,0,0,yes,1366
undefined,undefined,undefined,undefined,white,no,Mozilla,Netscape,"5.0 (Windows NT 10.0; Win64; x64) AppleWebKit/537.36 (KHTML, like Gecko) Chrome/100.0.4896.75 Safari/537.36",xpyriment,legacy,legacy,0,uniform,0,0,0,0,24,24,24,0,0,8,8,8,8,8,0,8,0,,,,,,0,,10-03-22,10-03-22,11:56:10,Sun Apr 10 2022 11:56:10 GMT+0200 (közép-európai nyári idő),The main experiment item,yes,0,0,C:/Users/rrics/Documents/!!ResearchBMECOGSCI/gnet,0,0,0,prototype1.png,no,mono,no,18,no,black,no,no,768,1215,3.5.6,legacy,xpyriment,osweb,1.3.13,0,space,space,space,,26640,19994,26640,,2,legacy,834,1536,24,864,24,0,0,1536,1649584613257,1024,2,48000,-16,experiment,prototype4.png,1,odd,Win32,169,131968,128958,169,169,217423,218941,212424,133488,212424,169,,,,,,visual_patterns,0,0,0,yes,1366
undefined,undefined,undefined,undefined,white,no,Mozilla,Netscape,"5.0 (Windows NT 10.0; Win64; x64) AppleWebKit/537.36 (KHTML, like Gecko) Chrome/100.0.4896.75 Safari/537.36",xpyriment,legacy,legacy,0,uniform,0,0,0,0,24,24,24,0,0,9,9,9,9,9,0,9,0,,,,,,0,,10-03-22,10-03-22,11:56:10,Sun Apr 10 2022 11:56:10 GMT+0200 (közép-európai nyári idő),The main experiment item,yes,0,0,C:/Users/rrics/Documents/!!ResearchBMECOGSCI/gnet,0,0,0,prototype1.png,no,mono,no,18,no,black,no,no,768,1215,3.5.6,legacy,xpyriment,osweb,1.3.13,0,space,space,space,,26640,19994,26640,,2,legacy,834,1536,24,864,24,0,0,1536,1649584613257,1024,2,48000,-16,experiment,p5sarrsha1.png,1,odd,Win32,169,131968,128958,169,169,223999,225501,218998,133488,218998,169,,,,,,visual_patterns,0,0,0,yes,1366
undefined,undefined,undefined,undefined,white,no,Mozilla,Netscape,"5.0 (Windows NT 10.0; Win64; x64) AppleWebKit/537.36 (KHTML, like Gecko) Chrome/100.0.4896.75 Safari/537.36",xpyriment,legacy,legacy,0,uniform,0,0,0,0,24,24,24,0,0,10,10,10,10,10,0,10,0,,,,,,0,,10-03-22,10-03-22,11:56:10,Sun Apr 10 2022 11:56:10 GMT+0200 (közép-európai nyári idő),The main experiment item,yes,0,0,C:/Users/rrics/Documents/!!ResearchBMECOGSCI/gnet,0,0,0,prototype1.png,no,mono,no,18,no,black,no,no,768,1215,3.5.6,legacy,xpyriment,osweb,1.3.13,0,space,space,space,,26640,19994,26640,,2,legacy,834,1536,24,864,24,0,0,1536,1649584613257,1024,2,48000,-16,experiment,p5sarrcol1.png,1,odd,Win32,169,131968,128958,169,169,230529,232046,225534,133488,225534,169,,,,,,visual_patterns,0,0,0,yes,1366
undefined,undefined,undefined,undefined,white,no,Mozilla,Netscape,"5.0 (Windows NT 10.0; Win64; x64) AppleWebKit/537.36 (KHTML, like Gecko) Chrome/100.0.4896.75 Safari/537.36",xpyriment,legacy,legacy,0,uniform,0,0,0,0,24,24,24,0,0,11,11,11,11,11,0,11,0,,,,,,0,,10-03-22,10-03-22,11:56:10,Sun Apr 10 2022 11:56:10 GMT+0200 (közép-európai nyári idő),The main experiment item,yes,0,0,C:/Users/rrics/Documents/!!ResearchBMECOGSCI/gnet,0,0,0,prototype1.png,no,mono,no,18,no,black,no,no,768,1215,3.5.6,legacy,xpyriment,osweb,1.3.13,0,space,space,space,,26640,19994,26640,,2,legacy,834,1536,24,864,24,0,0,1536,1649584613257,1024,2,48000,-16,experiment,p8sarr2.png,1,odd,Win32,169,131968,128958,169,169,237074,238590,232078,133488,232078,169,,,,,,visual_patterns,0,0,0,yes,1366
undefined,undefined,undefined,undefined,white,no,Mozilla,Netscape,"5.0 (Windows NT 10.0; Win64; x64) AppleWebKit/537.36 (KHTML, like Gecko) Chrome/100.0.4896.75 Safari/537.36",xpyriment,legacy,legacy,0,uniform,0,0,0,0,24,24,24,0,0,12,12,12,12,12,0,12,0,,,,,,0,,10-03-22,10-03-22,11:56:10,Sun Apr 10 2022 11:56:10 GMT+0200 (közép-európai nyári idő),The main experiment item,yes,0,0,C:/Users/rrics/Documents/!!ResearchBMECOGSCI/gnet,0,0,0,prototype1.png,no,mono,no,18,no,black,no,no,768,1215,3.5.6,legacy,xpyriment,osweb,1.3.13,0,space,space,space,,26640,19994,26640,,2,legacy,834,1536,24,864,24,0,0,1536,1649584613257,1024,2,48000,-16,experiment,p5sarrshacol2.png,1,odd,Win32,169,131968,128958,169,169,243619,245134,238621,133488,238621,169,,,,,,visual_patterns,0,0,0,yes,1366
undefined,undefined,undefined,undefined,white,no,Mozilla,Netscape,"5.0 (Windows NT 10.0; Win64; x64) AppleWebKit/537.36 (KHTML, like Gecko) Chrome/100.0.4896.75 Safari/537.36",xpyriment,legacy,legacy,0,uniform,0,0,0,0,24,24,24,0,0,13,13,13,13,13,0,13,0,,,,,,0,,10-03-22,10-03-22,11:56:10,Sun Apr 10 2022 11:56:10 GMT+0200 (közép-európai nyári idő),The main experiment item,yes,0,0,C:/Users/rrics/Documents/!!ResearchBMECOGSCI/gnet,0,0,0,prototype1.png,no,mono,no,18,no,black,no,no,768,1215,3.5.6,legacy,xpyriment,osweb,1.3.13,0,space,space,space,,26640,19994,26640,,2,legacy,834,1536,24,864,24,0,0,1536,1649584613257,1024,2,48000,-16,experiment,p8sarr1.png,1,odd,Win32,169,131968,128958,169,169,250159,251662,245166,133488,245166,169,,,,,,visual_patterns,0,0,0,yes,1366
undefined,undefined,undefined,undefined,white,no,Mozilla,Netscape,"5.0 (Windows NT 10.0; Win64; x64) AppleWebKit/537.36 (KHTML, like Gecko) Chrome/100.0.4896.75 Safari/537.36",xpyriment,legacy,legacy,0,uniform,0,0,0,0,24,24,24,0,0,14,14,14,14,14,0,14,0,,,,,,0,,10-03-22,10-03-22,11:56:10,Sun Apr 10 2022 11:56:10 GMT+0200 (közép-európai nyári idő),The main experiment item,yes,0,0,C:/Users/rrics/Documents/!!ResearchBMECOGSCI/gnet,0,0,0,prototype1.png,no,mono,no,18,no,black,no,no,768,1215,3.5.6,legacy,xpyriment,osweb,1.3.13,0,space,space,space,,26640,19994,26640,,2,legacy,834,1536,24,864,24,0,0,1536,1649584613257,1024,2,48000,-16,experiment,p3sarrcol1.png,1,odd,Win32,169,131968,128958,169,169,256730,258240,251730,133488,251730,169,,,,,,visual_patterns,0,0,0,yes,1366
undefined,undefined,undefined,undefined,white,no,Mozilla,Netscape,"5.0 (Windows NT 10.0; Win64; x64) AppleWebKit/537.36 (KHTML, like Gecko) Chrome/100.0.4896.75 Safari/537.36",xpyriment,legacy,legacy,0,uniform,0,0,0,0,24,24,24,0,0,15,15,15,15,15,0,15,0,,,,,,0,,10-03-22,10-03-22,11:56:10,Sun Apr 10 2022 11:56:10 GMT+0200 (közép-európai nyári idő),The main experiment item,yes,0,0,C:/Users/rrics/Documents/!!ResearchBMECOGSCI/gnet,0,0,0,prototype1.png,no,mono,no,18,no,black,no,no,768,1215,3.5.6,legacy,xpyriment,osweb,1.3.13,0,space,space,space,,26640,19994,26640,,2,legacy,834,1536,24,864,24,0,0,1536,1649584613257,1024,2,48000,-16,experiment,prototype1.png,1,odd,Win32,169,131968,128958,169,169,263252,264767,258249,133488,258249,169,,,,,,visual_patterns,0,0,0,yes,1366
undefined,undefined,undefined,undefined,white,no,Mozilla,Netscape,"5.0 (Windows NT 10.0; Win64; x64) AppleWebKit/537.36 (KHTML, like Gecko) Chrome/100.0.4896.75 Safari/537.36",xpyriment,legacy,legacy,0,uniform,0,0,0,0,24,24,24,0,0,16,16,16,16,16,0,16,0,,,,,,0,,10-03-22,10-03-22,11:56:10,Sun Apr 10 2022 11:56:10 GMT+0200 (közép-európai nyári idő),The main experiment item,yes,0,0,C:/Users/rrics/Documents/!!ResearchBMECOGSCI/gnet,0,0,0,prototype1.png,no,mono,no,18,no,black,no,no,768,1215,3.5.6,legacy,xpyriment,osweb,1.3.13,0,space,space,space,,26640,19994,26640,,2,legacy,834,1536,24,864,24,0,0,1536,1649584613257,1024,2,48000,-16,experiment,p2sarr2.png,1,odd,Win32,169,131968,128958,169,169,269799,271312,264801,133488,264801,169,,,,,,visual_patterns,0,0,0,yes,1366
undefined,undefined,undefined,undefined,white,no,Mozilla,Netscape,"5.0 (Windows NT 10.0; Win64; x64) AppleWebKit/537.36 (KHTML, like Gecko) Chrome/100.0.4896.75 Safari/537.36",xpyriment,legacy,legacy,0,uniform,0,0,0,0,24,24,24,0,0,17,17,17,17,17,0,17,0,,,,,,0,,10-03-22,10-03-22,11:56:10,Sun Apr 10 2022 11:56:10 GMT+0200 (közép-európai nyári idő),The main experiment item,yes,0,0,C:/Users/rrics/Documents/!!ResearchBMECOGSCI/gnet,0,0,0,prototype1.png,no,mono,no,18,no,black,no,no,768,1215,3.5.6,legacy,xpyriment,osweb,1.3.13,0,space,space,space,,26640,19994,26640,,2,legacy,834,1536,24,864,24,0,0,1536,1649584613257,1024,2,48000,-16,experiment,p3sarrsha2.png,1,odd,Win32,169,131968,128958,169,169,276340,277856,271340,133488,271340,169,,,,,,visual_patterns,0,0,0,yes,1366
undefined,undefined,undefined,undefined,white,no,Mozilla,Netscape,"5.0 (Windows NT 10.0; Win64; x64) AppleWebKit/537.36 (KHTML, like Gecko) Chrome/100.0.4896.75 Safari/537.36",xpyriment,legacy,legacy,0,uniform,0,0,0,0,24,24,24,0,0,18,18,18,18,18,0,18,0,,,,,,0,,10-03-22,10-03-22,11:56:10,Sun Apr 10 2022 11:56:10 GMT+0200 (közép-európai nyári idő),The main experiment item,yes,0,0,C:/Users/rrics/Documents/!!ResearchBMECOGSCI/gnet,0,0,0,prototype1.png,no,mono,no,18,no,black,no,no,768,1215,3.5.6,legacy,xpyriment,osweb,1.3.13,0,space,space,space,,26640,19994,26640,,2,legacy,834,1536,24,864,24,0,0,1536,1649584613257,1024,2,48000,-16,experiment,prototype4.png,1,odd,Win32,169,131968,128958,169,169,282883,284400,277882,133488,277882,169,,,,,,visual_patterns,0,0,0,yes,1366
undefined,undefined,undefined,undefined,white,no,Mozilla,Netscape,"5.0 (Windows NT 10.0; Win64; x64) AppleWebKit/537.36 (KHTML, like Gecko) Chrome/100.0.4896.75 Safari/537.36",xpyriment,legacy,legacy,0,uniform,0,0,0,0,24,24,24,0,0,19,19,19,19,19,0,19,0,,,,,,0,,10-03-22,10-03-22,11:56:10,Sun Apr 10 2022 11:56:10 GMT+0200 (közép-európai nyári idő),The main experiment item,yes,0,0,C:/Users/rrics/Documents/!!ResearchBMECOGSCI/gnet,0,0,0,prototype1.png,no,mono,no,18,no,black,no,no,768,1215,3.5.6,legacy,xpyriment,osweb,1.3.13,0,space,space,space,,26640,19994,26640,,2,legacy,834,1536,24,864,24,0,0,1536,1649584613257,1024,2,48000,-16,experiment,p3sarrsha1.png,1,odd,Win32,169,131968,128958,169,169,289456,290961,284455,133488,284455,169,,,,,,visual_patterns,0,0,0,yes,1366
undefined,undefined,undefined,undefined,white,no,Mozilla,Netscape,"5.0 (Windows NT 10.0; Win64; x64) AppleWebKit/537.36 (KHTML, like Gecko) Chrome/100.0.4896.75 Safari/537.36",xpyriment,legacy,legacy,0,uniform,0,0,0,0,24,24,24,0,0,20,20,20,20,20,0,20,0,,,,,,0,,10-03-22,10-03-22,11:56:10,Sun Apr 10 2022 11:56:10 GMT+0200 (közép-európai nyári idő),The main experiment item,yes,0,0,C:/Users/rrics/Documents/!!ResearchBMECOGSCI/gnet,0,0,0,prototype1.png,no,mono,no,18,no,black,no,no,768,1215,3.5.6,legacy,xpyriment,osweb,1.3.13,0,space,space,space,,26640,19994,26640,,2,legacy,834,1536,24,864,24,0,0,1536,1649584613257,1024,2,48000,-16,experiment,prototype2.png,1,odd,Win32,169,131968,128958,169,169,295990,297504,290991,133488,290991,169,,,,,,visual_patterns,0,0,0,yes,1366
undefined,undefined,undefined,undefined,white,no,Mozilla,Netscape,"5.0 (Windows NT 10.0; Win64; x64) AppleWebKit/537.36 (KHTML, like Gecko) Chrome/100.0.4896.75 Safari/537.36",xpyriment,legacy,legacy,0,uniform,0,0,0,0,24,24,24,0,0,21,21,21,21,21,0,21,0,,,,,,0,,10-03-22,10-03-22,11:56:10,Sun Apr 10 2022 11:56:10 GMT+0200 (közép-európai nyári idő),The main experiment item,yes,0,0,C:/Users/rrics/Documents/!!ResearchBMECOGSCI/gnet,0,0,0,prototype1.png,no,mono,no,18,no,black,no,no,768,1215,3.5.6,legacy,xpyriment,osweb,1.3.13,0,space,space,space,,26640,19994,26640,,2,legacy,834,1536,24,864,24,0,0,1536,1649584613257,1024,2,48000,-16,experiment,p4sarrcol2.png,1,odd,Win32,169,131968,128958,169,169,302517,304033,297517,133488,297517,169,,,,,,visual_patterns,0,0,0,yes,1366
undefined,undefined,undefined,undefined,white,no,Mozilla,Netscape,"5.0 (Windows NT 10.0; Win64; x64) AppleWebKit/537.36 (KHTML, like Gecko) Chrome/100.0.4896.75 Safari/537.36",xpyriment,legacy,legacy,0,uniform,0,0,0,0,24,24,24,0,0,22,22,22,22,22,0,22,0,,,,,,0,,10-03-22,10-03-22,11:56:10,Sun Apr 10 2022 11:56:10 GMT+0200 (közép-európai nyári idő),The main experiment item,yes,0,0,C:/Users/rrics/Documents/!!ResearchBMECOGSCI/gnet,0,0,0,prototype1.png,no,mono,no,18,no,black,no,no,768,1215,3.5.6,legacy,xpyriment,osweb,1.3.13,0,space,space,space,,26640,19994,26640,,2,legacy,834,1536,24,864,24,0,0,1536,1649584613257,1024,2,48000,-16,experiment,p5sarrshacol1.png,1,odd,Win32,169,131968,128958,169,169,309063,310577,304066,133488,304066,169,,,,,,visual_patterns,0,0,0,yes,1366
undefined,undefined,undefined,undefined,white,no,Mozilla,Netscape,"5.0 (Windows NT 10.0; Win64; x64) AppleWebKit/537.36 (KHTML, like Gecko) Chrome/100.0.4896.75 Safari/537.36",xpyriment,legacy,legacy,0,uniform,0,0,0,0,24,24,24,0,0,23,23,23,23,23,0,23,0,,,,,,0,,10-03-22,10-03-22,11:56:10,Sun Apr 10 2022 11:56:10 GMT+0200 (közép-európai nyári idő),The main experiment item,yes,0,0,C:/Users/rrics/Documents/!!ResearchBMECOGSCI/gnet,0,0,0,prototype1.png,no,mono,no,18,no,black,no,no,768,1215,3.5.6,legacy,xpyriment,osweb,1.3.13,0,space,space,space,,26640,19994,26640,,2,legacy,834,1536,24,864,24,0,0,1536,1649584613257,1024,2,48000,-16,experiment,prototype2.png,1,odd,Win32,169,131968,128958,169,169,315606,317122,310611,133488,310610,169,,,,,,visual_patterns,0,0,0,yes,1366
undefined,undefined,undefined,undefined,white,no,Mozilla,Netscape,"5.0 (Windows NT 10.0; Win64; x64) AppleWebKit/537.36 (KHTML, like Gecko) Chrome/100.0.4896.75 Safari/537.36",xpyriment,legacy,legacy,0,uniform,0,0,0,0,24,24,24,0,0,24,24,24,24,24,0,24,0,,,,,,0,,10-03-22,10-03-22,11:56:10,Sun Apr 10 2022 11:56:10 GMT+0200 (közép-európai nyári idő),The main experiment item,yes,0,0,C:/Users/rrics/Documents/!!ResearchBMECOGSCI/gnet,0,0,0,prototype1.png,no,mono,no,18,no,black,no,no,768,1215,3.5.6,legacy,xpyriment,osweb,1.3.13,0,space,space,space,,26640,19994,26640,,2,legacy,834,1536,24,864,24,0,0,1536,1649584613257,1024,2,48000,-16,experiment,p4sarrsha2.png,1,odd,Win32,169,131968,128958,169,169,322189,323699,317187,133488,317187,169,,,,,,visual_patterns,0,0,0,yes,1366
undefined,undefined,undefined,undefined,white,no,Mozilla,Netscape,"5.0 (Windows NT 10.0; Win64; x64) AppleWebKit/537.36 (KHTML, like Gecko) Chrome/100.0.4896.75 Safari/537.36",xpyriment,legacy,legacy,0,uniform,0,0,0,0,24,24,24,0,0,25,25,25,25,25,0,25,0,,,,,,0,,10-03-22,10-03-22,11:56:10,Sun Apr 10 2022 11:56:10 GMT+0200 (közép-európai nyári idő),The main experiment item,yes,0,0,C:/Users/rrics/Documents/!!ResearchBMECOGSCI/gnet,0,0,0,prototype1.png,no,mono,no,18,no,black,no,no,768,1215,3.5.6,legacy,xpyriment,osweb,1.3.13,0,space,space,space,,26640,19994,26640,,2,legacy,834,1536,24,864,24,0,0,1536,1649584613257,1024,2,48000,-16,experiment,p9sarr1.png,1,odd,Win32,169,131968,128958,169,169,328724,330226,323725,133488,323725,169,,,,,,visual_patterns,0,0,0,yes,1366
undefined,undefined,undefined,undefined,white,no,Mozilla,Netscape,"5.0 (Windows NT 10.0; Win64; x64) AppleWebKit/537.36 (KHTML, like Gecko) Chrome/100.0.4896.75 Safari/537.36",xpyriment,legacy,legacy,0,uniform,0,0,0,0,24,24,24,0,0,26,26,26,26,26,0,26,0,,,,,,0,,10-03-22,10-03-22,11:56:10,Sun Apr 10 2022 11:56:10 GMT+0200 (közép-európai nyári idő),The main experiment item,yes,0,0,C:/Users/rrics/Documents/!!ResearchBMECOGSCI/gnet,0,0,0,prototype1.png,no,mono,no,18,no,black,no,no,768,1215,3.5.6,legacy,xpyriment,osweb,1.3.13,0,space,space,space,,26640,19994,26640,,2,legacy,834,1536,24,864,24,0,0,1536,1649584613257,1024,2,48000,-16,experiment,prototype1.png,1,odd,Win32,169,131968,128958,169,169,335237,336738,330235,133488,330235,169,,,,,,visual_patterns,0,0,0,yes,1366
undefined,undefined,undefined,undefined,white,no,Mozilla,Netscape,"5.0 (Windows NT 10.0; Win64; x64) AppleWebKit/537.36 (KHTML, like Gecko) Chrome/100.0.4896.75 Safari/537.36",xpyriment,legacy,legacy,0,uniform,0,0,0,0,24,24,24,0,0,27,27,27,27,27,0,27,0,,,,,,0,,10-03-22,10-03-22,11:56:10,Sun Apr 10 2022 11:56:10 GMT+0200 (közép-európai nyári idő),The main experiment item,yes,0,0,C:/Users/rrics/Documents/!!ResearchBMECOGSCI/gnet,0,0,0,prototype1.png,no,mono,no,18,no,black,no,no,768,1215,3.5.6,legacy,xpyriment,osweb,1.3.13,0,space,space,space,,26640,19994,26640,,2,legacy,834,1536,24,864,24,0,0,1536,1649584613257,1024,2,48000,-16,experiment,p4sarrcol1.png,1,odd,Win32,169,131968,128958,169,169,341762,343266,336766,133488,336766,169,,,,,,visual_patterns,0,0,0,yes,1366
undefined,undefined,undefined,undefined,white,no,Mozilla,Netscape,"5.0 (Windows NT 10.0; Win64; x64) AppleWebKit/537.36 (KHTML, like Gecko) Chrome/100.0.4896.75 Safari/537.36",xpyriment,legacy,legacy,0,uniform,0,0,0,0,24,24,24,0,0,28,28,28,28,28,0,28,0,,,,,,0,,10-03-22,10-03-22,11:56:10,Sun Apr 10 2022 11:56:10 GMT+0200 (közép-európai nyári idő),The main experiment item,yes,0,0,C:/Users/rrics/Documents/!!ResearchBMECOGSCI/gnet,0,0,0,prototype1.png,no,mono,no,18,no,black,no,no,768,1215,3.5.6,legacy,xpyriment,osweb,1.3.13,0,space,space,space,,26640,19994,26640,,2,legacy,834,1536,24,864,24,0,0,1536,1649584613257,1024,2,48000,-16,experiment,prototype4.png,1,odd,Win32,169,131968,128958,169,169,348288,349793,343288,133488,343288,169,,,,,,visual_patterns,0,0,0,yes,1366
undefined,undefined,undefined,undefined,white,no,Mozilla,Netscape,"5.0 (Windows NT 10.0; Win64; x64) AppleWebKit/537.36 (KHTML, like Gecko) Chrome/100.0.4896.75 Safari/537.36",xpyriment,legacy,legacy,0,uniform,0,0,0,0,24,24,24,0,0,29,29,29,29,29,0,29,0,,,,,,0,,10-03-22,10-03-22,11:56:10,Sun Apr 10 2022 11:56:10 GMT+0200 (közép-európai nyári idő),The main experiment item,yes,0,0,C:/Users/rrics/Documents/!!ResearchBMECOGSCI/gnet,0,0,0,prototype1.png,no,mono,no,18,no,black,no,no,768,1215,3.5.6,legacy,xpyriment,osweb,1.3.13,0,space,space,space,,26640,19994,26640,,2,legacy,834,1536,24,864,24,0,0,1536,1649584613257,1024,2,48000,-16,experiment,prototype5.png,1,odd,Win32,169,131968,128958,169,169,354846,356353,349842,133488,349842,169,,,,,,visual_patterns,0,0,0,yes,1366
undefined,undefined,undefined,undefined,white,no,Mozilla,Netscape,"5.0 (Windows NT 10.0; Win64; x64) AppleWebKit/537.36 (KHTML, like Gecko) Chrome/100.0.4896.75 Safari/537.36",xpyriment,legacy,legacy,0,uniform,0,0,0,0,24,24,24,0,0,30,30,30,30,30,0,30,0,,,,,,0,,10-03-22,10-03-22,11:56:10,Sun Apr 10 2022 11:56:10 GMT+0200 (közép-európai nyári idő),The main experiment item,yes,0,0,C:/Users/rrics/Documents/!!ResearchBMECOGSCI/gnet,0,0,0,prototype1.png,no,mono,no,18,no,black,no,no,768,1215,3.5.6,legacy,xpyriment,osweb,1.3.13,0,space,space,space,,26640,19994,26640,,2,legacy,834,1536,24,864,24,0,0,1536,1649584613257,1024,2,48000,-16,experiment,p5sarrcol2.png,1,odd,Win32,169,131968,128958,169,169,361372,362882,356378,133488,356378,169,,,,,,visual_patterns,0,0,0,yes,1366
undefined,undefined,undefined,undefined,white,no,Mozilla,Netscape,"5.0 (Windows NT 10.0; Win64; x64) AppleWebKit/537.36 (KHTML, like Gecko) Chrome/100.0.4896.75 Safari/537.36",xpyriment,legacy,legacy,0,uniform,0,0,0,0,24,24,24,0,0,31,31,31,31,31,0,31,0,,,,,,0,,10-03-22,10-03-22,11:56:10,Sun Apr 10 2022 11:56:10 GMT+0200 (közép-európai nyári idő),The main experiment item,yes,0,0,C:/Users/rrics/Documents/!!ResearchBMECOGSCI/gnet,0,0,0,prototype1.png,no,mono,no,18,no,black,no,no,768,1215,3.5.6,legacy,xpyriment,osweb,1.3.13,0,space,space,space,,26640,19994,26640,,2,legacy,834,1536,24,864,24,0,0,1536,1649584613257,1024,2,48000,-16,experiment,p2sarrsha2.png,1,odd,Win32,169,131968,128958,169,169,367906,369411,362915,133488,362914,169,,,,,,visual_patterns,0,0,0,yes,1366
undefined,undefined,undefined,undefined,white,no,Mozilla,Netscape,"5.0 (Windows NT 10.0; Win64; x64) AppleWebKit/537.36 (KHTML, like Gecko) Chrome/100.0.4896.75 Safari/537.36",xpyriment,legacy,legacy,0,uniform,0,0,0,0,24,24,24,0,0,32,32,32,32,32,0,32,0,,,,,,0,,10-03-22,10-03-22,11:56:10,Sun Apr 10 2022 11:56:10 GMT+0200 (közép-európai nyári idő),The main experiment item,yes,0,0,C:/Users/rrics/Documents/!!ResearchBMECOGSCI/gnet,0,0,0,prototype1.png,no,mono,no,18,no,black,no,no,768,1215,3.5.6,legacy,xpyriment,osweb,1.3.13,0,space,space,space,,26640,19994,26640,,2,legacy,834,1536,24,864,24,0,0,1536,1649584613257,1024,2,48000,-16,experiment,p5sarr1.png,1,odd,Win32,169,131968,128958,169,169,374433,375937,369436,133488,369436,169,,,,,,visual_patterns,0,0,0,yes,1366
undefined,undefined,undefined,undefined,white,no,Mozilla,Netscape,"5.0 (Windows NT 10.0; Win64; x64) AppleWebKit/537.36 (KHTML, like Gecko) Chrome/100.0.4896.75 Safari/537.36",xpyriment,legacy,legacy,0,uniform,0,0,0,0,24,24,24,0,0,33,33,33,33,33,0,33,0,,,,,,0,,10-03-22,10-03-22,11:56:10,Sun Apr 10 2022 11:56:10 GMT+0200 (közép-európai nyári idő),The main experiment item,yes,0,0,C:/Users/rrics/Documents/!!ResearchBMECOGSCI/gnet,0,0,0,prototype1.png,no,mono,no,18,no,black,no,no,768,1215,3.5.6,legacy,xpyriment,osweb,1.3.13,0,space,space,space,,26640,19994,26640,,2,legacy,834,1536,24,864,24,0,0,1536,1649584613257,1024,2,48000,-16,experiment,p3sarrshacol1.png,1,odd,Win32,169,131968,128958,169,169,380964,382481,375967,133488,375967,169,,,,,,visual_patterns,0,0,0,yes,1366
undefined,undefined,undefined,undefined,white,no,Mozilla,Netscape,"5.0 (Windows NT 10.0; Win64; x64) AppleWebKit/537.36 (KHTML, like Gecko) Chrome/100.0.4896.75 Safari/537.36",xpyriment,legacy,legacy,0,uniform,0,0,0,0,24,24,24,0,0,34,34,34,34,34,0,34,0,,,,,,0,,10-03-22,10-03-22,11:56:10,Sun Apr 10 2022 11:56:10 GMT+0200 (közép-európai nyári idő),The main experiment item,yes,0,0,C:/Users/rrics/Documents/!!ResearchBMECOGSCI/gnet,0,0,0,prototype1.png,no,mono,no,18,no,black,no,no,768,1215,3.5.6,legacy,xpyriment,osweb,1.3.13,0,space,space,space,,26640,19994,26640,,2,legacy,834,1536,24,864,24,0,0,1536,1649584613257,1024,2,48000,-16,experiment,prototype1.png,1,odd,Win32,169,131968,128958,169,169,387510,389025,382512,133488,382512,169,,,,,,visual_patterns,0,0,0,yes,1366
undefined,undefined,undefined,undefined,white,no,Mozilla,Netscape,"5.0 (Windows NT 10.0; Win64; x64) AppleWebKit/537.36 (KHTML, like Gecko) Chrome/100.0.4896.75 Safari/537.36",xpyriment,legacy,legacy,0,uniform,0,0,0,0,24,24,24,0,0,35,35,35,35,35,0,35,0,,,,,,0,,10-03-22,10-03-22,11:56:10,Sun Apr 10 2022 11:56:10 GMT+0200 (közép-európai nyári idő),The main experiment item,yes,0,0,C:/Users/rrics/Documents/!!ResearchBMECOGSCI/gnet,0,0,0,prototype1.png,no,mono,no,18,no,black,no,no,768,1215,3.5.6,legacy,xpyriment,osweb,1.3.13,0,space,space,space,,26640,19994,26640,,2,legacy,834,1536,24,864,24,0,0,1536,1649584613257,1024,2,48000,-16,experiment,p4sarrshacol1.png,1,odd,Win32,169,131968,128958,169,169,394052,395553,389056,133488,389056,169,,,,,,visual_patterns,0,0,0,yes,1366
undefined,undefined,undefined,undefined,white,no,Mozilla,Netscape,"5.0 (Windows NT 10.0; Win64; x64) AppleWebKit/537.36 (KHTML, like Gecko) Chrome/100.0.4896.75 Safari/537.36",xpyriment,legacy,legacy,0,uniform,0,0,0,0,24,24,24,0,0,36,36,36,36,36,0,36,0,,,,,,0,,10-03-22,10-03-22,11:56:10,Sun Apr 10 2022 11:56:10 GMT+0200 (közép-európai nyári idő),The main experiment item,yes,0,0,C:/Users/rrics/Documents/!!ResearchBMECOGSCI/gnet,0,0,0,prototype1.png,no,mono,no,18,no,black,no,no,768,1215,3.5.6,legacy,xpyriment,osweb,1.3.13,0,space,space,space,,26640,19994,26640,,2,legacy,834,1536,24,864,24,0,0,1536,1649584613257,1024,2,48000,-16,experiment,prototype3.png,1,odd,Win32,169,131968,128958,169,169,400562,402064,395563,133488,395563,169,,,,,,visual_patterns,0,0,0,yes,1366
undefined,undefined,undefined,undefined,white,no,Mozilla,Netscape,"5.0 (Windows NT 10.0; Win64; x64) AppleWebKit/537.36 (KHTML, like Gecko) Chrome/100.0.4896.75 Safari/537.36",xpyriment,legacy,legacy,0,uniform,0,0,0,0,24,24,24,0,0,37,37,37,37,37,0,37,0,,,,,,0,,10-03-22,10-03-22,11:56:10,Sun Apr 10 2022 11:56:10 GMT+0200 (közép-európai nyári idő),The main experiment item,yes,0,0,C:/Users/rrics/Documents/!!ResearchBMECOGSCI/gnet,0,0,0,prototype1.png,no,mono,no,18,no,black,no,no,768,1215,3.5.6,legacy,xpyriment,osweb,1.3.13,0,space,space,space,,26640,19994,26640,,2,legacy,834,1536,24,864,24,0,0,1536,1649584613257,1024,2,48000,-16,experiment,prototype3.png,1,odd,Win32,169,131968,128958,169,169,407094,408609,402100,133488,402099,169,,,,,,visual_patterns,0,0,0,yes,1366
undefined,undefined,undefined,undefined,white,no,Mozilla,Netscape,"5.0 (Windows NT 10.0; Win64; x64) AppleWebKit/537.36 (KHTML, like Gecko) Chrome/100.0.4896.75 Safari/537.36",xpyriment,legacy,legacy,0,uniform,0,0,0,0,24,24,24,0,0,38,38,38,38,38,0,38,0,,,,,,0,,10-03-22,10-03-22,11:56:10,Sun Apr 10 2022 11:56:10 GMT+0200 (közép-európai nyári idő),The main experiment item,yes,0,0,C:/Users/rrics/Documents/!!ResearchBMECOGSCI/gnet,0,0,0,prototype1.png,no,mono,no,18,no,black,no,no,768,1215,3.5.6,legacy,xpyriment,osweb,1.3.13,0,space,space,space,,26640,19994,26640,,2,legacy,834,1536,24,864,24,0,0,1536,1649584613257,1024,2,48000,-16,experiment,p7sarr1.png,1,odd,Win32,169,131968,128958,169,169,413635,415136,408646,133488,408646,169,,,,,,visual_patterns,0,0,0,yes,1366
undefined,undefined,undefined,undefined,white,no,Mozilla,Netscape,"5.0 (Windows NT 10.0; Win64; x64) AppleWebKit/537.36 (KHTML, like Gecko) Chrome/100.0.4896.75 Safari/537.36",xpyriment,legacy,legacy,0,uniform,0,0,0,0,24,24,24,0,0,39,39,39,39,39,0,39,0,,,,,,0,,10-03-22,10-03-22,11:56:10,Sun Apr 10 2022 11:56:10 GMT+0200 (közép-európai nyári idő),The main experiment item,yes,0,0,C:/Users/rrics/Documents/!!ResearchBMECOGSCI/gnet,0,0,0,prototype1.png,no,mono,no,18,no,black,no,no,768,1215,3.5.6,legacy,xpyriment,osweb,1.3.13,0,space,space,space,,26640,19994,26640,,2,legacy,834,1536,24,864,24,0,0,1536,1649584613257,1024,2,48000,-16,experiment,p1sarrsha1.png,1,odd,Win32,169,131968,128958,169,169,420201,421713,415202,133488,415201,169,,,,,,visual_patterns,0,0,0,yes,1366
undefined,undefined,undefined,undefined,white,no,Mozilla,Netscape,"5.0 (Windows NT 10.0; Win64; x64) AppleWebKit/537.36 (KHTML, like Gecko) Chrome/100.0.4896.75 Safari/537.36",xpyriment,legacy,legacy,0,uniform,0,0,0,0,24,24,24,0,0,40,40,40,40,40,0,40,0,,,,,,0,,10-03-22,10-03-22,11:56:10,Sun Apr 10 2022 11:56:10 GMT+0200 (közép-európai nyári idő),The main experiment item,yes,0,0,C:/Users/rrics/Documents/!!ResearchBMECOGSCI/gnet,0,0,0,prototype1.png,no,mono,no,18,no,black,no,no,768,1215,3.5.6,legacy,xpyriment,osweb,1.3.13,0,space,space,space,,26640,19994,26640,,2,legacy,834,1536,24,864,24,0,0,1536,1649584613257,1024,2,48000,-16,experiment,prototype5.png,1,odd,Win32,169,131968,128958,169,169,426724,428241,421723,133488,421723,169,,,,,,visual_patterns,0,0,0,yes,1366
undefined,undefined,undefined,undefined,white,no,Mozilla,Netscape,"5.0 (Windows NT 10.0; Win64; x64) AppleWebKit/537.36 (KHTML, like Gecko) Chrome/100.0.4896.75 Safari/537.36",xpyriment,legacy,legacy,0,uniform,0,0,0,0,24,24,24,0,0,41,41,41,41,41,0,41,0,,,,,,0,,10-03-22,10-03-22,11:56:10,Sun Apr 10 2022 11:56:10 GMT+0200 (közép-európai nyári idő),The main experiment item,yes,0,0,C:/Users/rrics/Documents/!!ResearchBMECOGSCI/gnet,0,0,0,prototype1.png,no,mono,no,18,no,black,no,no,768,1215,3.5.6,legacy,xpyriment,osweb,1.3.13,0,space,space,space,,26640,19994,26640,,2,legacy,834,1536,24,864,24,0,0,1536,1649584613257,1024,2,48000,-16,experiment,p3sarrshacol2.png,1,odd,Win32,169,131968,128958,169,169,433249,434752,428251,133488,428251,169,,,,,,visual_patterns,0,0,0,yes,1366
undefined,undefined,undefined,undefined,white,no,Mozilla,Netscape,"5.0 (Windows NT 10.0; Win64; x64) AppleWebKit/537.36 (KHTML, like Gecko) Chrome/100.0.4896.75 Safari/537.36",xpyriment,legacy,legacy,0,uniform,0,0,0,0,24,24,24,0,0,42,42,42,42,42,0,42,0,,,,,,0,,10-03-22,10-03-22,11:56:10,Sun Apr 10 2022 11:56:10 GMT+0200 (közép-európai nyári idő),The main experiment item,yes,0,0,C:/Users/rrics/Documents/!!ResearchBMECOGSCI/gnet,0,0,0,prototype1.png,no,mono,no,18,no,black,no,no,768,1215,3.5.6,legacy,xpyriment,osweb,1.3.13,0,space,space,space,,26640,19994,26640,,2,legacy,834,1536,24,864,24,0,0,1536,1649584613257,1024,2,48000,-16,experiment,p3sarrcol2.png,1,odd,Win32,169,131968,128958,169,169,439774,441280,434779,133488,434779,169,,,,,,visual_patterns,0,0,0,yes,1366
undefined,undefined,undefined,undefined,white,no,Mozilla,Netscape,"5.0 (Windows NT 10.0; Win64; x64) AppleWebKit/537.36 (KHTML, like Gecko) Chrome/100.0.4896.75 Safari/537.36",xpyriment,legacy,legacy,0,uniform,0,0,0,0,24,24,24,0,0,43,43,43,43,43,0,43,0,,,,,,0,,10-03-22,10-03-22,11:56:10,Sun Apr 10 2022 11:56:10 GMT+0200 (közép-európai nyári idő),The main experiment item,yes,0,0,C:/Users/rrics/Documents/!!ResearchBMECOGSCI/gnet,0,0,0,prototype1.png,no,mono,no,18,no,black,no,no,768,1215,3.5.6,legacy,xpyriment,osweb,1.3.13,0,space,space,space,,26640,19994,26640,,2,legacy,834,1536,24,864,24,0,0,1536,1649584613257,1024,2,48000,-16,experiment,p3sarr2.png,1,odd,Win32,169,131968,128958,169,169,446312,447824,441311,133488,441311,169,,,,,,visual_patterns,0,0,0,yes,1366
undefined,undefined,undefined,undefined,white,no,Mozilla,Netscape,"5.0 (Windows NT 10.0; Win64; x64) AppleWebKit/537.36 (KHTML, like Gecko) Chrome/100.0.4896.75 Safari/537.36",xpyriment,legacy,legacy,0,uniform,0,0,0,0,24,24,24,0,0,44,44,44,44,44,0,44,0,,,,,,0,,10-03-22,10-03-22,11:56:10,Sun Apr 10 2022 11:56:10 GMT+0200 (közép-európai nyári idő),The main experiment item,yes,0,0,C:/Users/rrics/Documents/!!ResearchBMECOGSCI/gnet,0,0,0,prototype1.png,no,mono,no,18,no,black,no,no,768,1215,3.5.6,legacy,xpyriment,osweb,1.3.13,0,space,space,space,,26640,19994,26640,,2,legacy,834,1536,24,864,24,0,0,1536,1649584613257,1024,2,48000,-16,experiment,p2sarrsha1.png,1,odd,Win32,169,131968,128958,169,169,452876,454385,447877,133488,447877,169,,,,,,visual_patterns,0,0,0,yes,1366
undefined,undefined,undefined,undefined,white,no,Mozilla,Netscape,"5.0 (Windows NT 10.0; Win64; x64) AppleWebKit/537.36 (KHTML, like Gecko) Chrome/100.0.4896.75 Safari/537.36",xpyriment,legacy,legacy,0,uniform,0,0,0,0,24,24,24,0,0,45,45,45,45,45,0,45,0,,,,,,0,,10-03-22,10-03-22,11:56:10,Sun Apr 10 2022 11:56:10 GMT+0200 (közép-európai nyári idő),The main experiment item,yes,0,0,C:/Users/rrics/Documents/!!ResearchBMECOGSCI/gnet,0,0,0,prototype1.png,no,mono,no,18,no,black,no,no,768,1215,3.5.6,legacy,xpyriment,osweb,1.3.13,0,space,space,space,,26640,19994,26640,,2,legacy,834,1536,24,864,24,0,0,1536,1649584613257,1024,2,48000,-16,experiment,p4sarrsha1.png,1,odd,Win32,169,131968,128958,169,169,459412,460913,454418,133488,454418,169,,,,,,visual_patterns,0,0,0,yes,1366
undefined,undefined,undefined,undefined,white,no,Mozilla,Netscape,"5.0 (Windows NT 10.0; Win64; x64) AppleWebKit/537.36 (KHTML, like Gecko) Chrome/100.0.4896.75 Safari/537.36",xpyriment,legacy,legacy,0,uniform,0,0,0,0,24,24,24,0,0,46,46,46,46,46,0,46,0,,,,,,0,,10-03-22,10-03-22,11:56:10,Sun Apr 10 2022 11:56:10 GMT+0200 (közép-európai nyári idő),The main experiment item,yes,0,0,C:/Users/rrics/Documents/!!ResearchBMECOGSCI/gnet,0,0,0,prototype1.png,no,mono,no,18,no,black,no,no,768,1215,3.5.6,legacy,xpyriment,osweb,1.3.13,0,space,space,space,,26640,19994,26640,,2,legacy,834,1536,24,864,24,0,0,1536,1649584613257,1024,2,48000,-16,experiment,p1sarrcol1.png,1,odd,Win32,169,131968,128958,169,169,465943,467457,460946,133488,460946,169,,,,,,visual_patterns,0,0,0,yes,1366
undefined,undefined,undefined,undefined,white,no,Mozilla,Netscape,"5.0 (Windows NT 10.0; Win64; x64) AppleWebKit/537.36 (KHTML, like Gecko) Chrome/100.0.4896.75 Safari/537.36",xpyriment,legacy,legacy,0,uniform,0,0,0,0,24,24,24,0,0,47,47,47,47,47,0,47,0,,,,,,0,,10-03-22,10-03-22,11:56:10,Sun Apr 10 2022 11:56:10 GMT+0200 (közép-európai nyári idő),The main experiment item,yes,0,0,C:/Users/rrics/Documents/!!ResearchBMECOGSCI/gnet,0,0,0,prototype1.png,no,mono,no,18,no,black,no,no,768,1215,3.5.6,legacy,xpyriment,osweb,1.3.13,0,space,space,space,,26640,19994,26640,,2,legacy,834,1536,24,864,24,0,0,1536,1649584613257,1024,2,48000,-16,experiment,p1sarrsha2.png,1,odd,Win32,169,131968,128958,169,169,472486,474002,467490,133488,467490,169,,,,,,visual_patterns,0,0,0,yes,1366
undefined,undefined,undefined,undefined,white,no,Mozilla,Netscape,"5.0 (Windows NT 10.0; Win64; x64) AppleWebKit/537.36 (KHTML, like Gecko) Chrome/100.0.4896.75 Safari/537.36",xpyriment,legacy,legacy,0,uniform,0,0,0,0,24,24,24,0,0,48,48,48,48,48,0,48,0,,,,,,0,,10-03-22,10-03-22,11:56:10,Sun Apr 10 2022 11:56:10 GMT+0200 (közép-európai nyári idő),The main experiment item,yes,0,0,C:/Users/rrics/Documents/!!ResearchBMECOGSCI/gnet,0,0,0,prototype1.png,no,mono,no,18,no,black,no,no,768,1215,3.5.6,legacy,xpyriment,osweb,1.3.13,0,space,space,space,,26640,19994,26640,,2,legacy,834,1536,24,864,24,0,0,1536,1649584613257,1024,2,48000,-16,experiment,p7sarr2.png,1,odd,Win32,169,131968,128958,169,169,479010,480512,474012,133488,474012,169,,,,,,visual_patterns,0,0,0,yes,1366
undefined,undefined,undefined,undefined,white,no,Mozilla,Netscape,"5.0 (Windows NT 10.0; Win64; x64) AppleWebKit/537.36 (KHTML, like Gecko) Chrome/100.0.4896.75 Safari/537.36",xpyriment,legacy,legacy,0,uniform,0,0,0,0,24,24,24,0,0,49,49,49,49,49,0,49,0,,,,,,0,,10-03-22,10-03-22,11:56:10,Sun Apr 10 2022 11:56:10 GMT+0200 (közép-európai nyári idő),The main experiment item,yes,0,0,C:/Users/rrics/Documents/!!ResearchBMECOGSCI/gnet,0,0,0,prototype1.png,no,mono,no,18,no,black,no,no,768,1215,3.5.6,legacy,xpyriment,osweb,1.3.13,0,space,space,space,,26640,19994,26640,,2,legacy,834,1536,24,864,24,0,0,1536,1649584613257,1024,2,48000,-16,experiment,p4sarr1.png,1,odd,Win32,169,131968,128958,169,169,485568,487074,480569,133488,480569,169,,,,,,visual_patterns,0,0,0,yes,1366
undefined,undefined,undefined,undefined,white,no,Mozilla,Netscape,"5.0 (Windows NT 10.0; Win64; x64) AppleWebKit/537.36 (KHTML, like Gecko) Chrome/100.0.4896.75 Safari/537.36",xpyriment,legacy,legacy,0,uniform,0,0,0,0,24,24,24,0,0,50,50,50,50,50,0,50,0,,,,,,0,,10-03-22,10-03-22,11:56:10,Sun Apr 10 2022 11:56:10 GMT+0200 (közép-európai nyári idő),The main experiment item,yes,0,0,C:/Users/rrics/Documents/!!ResearchBMECOGSCI/gnet,0,0,0,prototype1.png,no,mono,no,18,no,black,no,no,768,1215,3.5.6,legacy,xpyriment,osweb,1.3.13,0,space,space,space,,26640,19994,26640,,2,legacy,834,1536,24,864,24,0,0,1536,1649584613257,1024,2,48000,-16,experiment,p10sarr1.png,1,odd,Win32,169,131968,128958,169,169,492100,493617,487106,133488,487106,169,,,,,,visual_patterns,0,0,0,yes,1366
undefined,undefined,undefined,undefined,white,no,Mozilla,Netscape,"5.0 (Windows NT 10.0; Win64; x64) AppleWebKit/537.36 (KHTML, like Gecko) Chrome/100.0.4896.75 Safari/537.36",xpyriment,legacy,legacy,0,uniform,0,0,0,0,24,24,24,0,0,51,51,51,51,51,0,51,0,,,,,,0,,10-03-22,10-03-22,11:56:10,Sun Apr 10 2022 11:56:10 GMT+0200 (közép-európai nyári idő),The main experiment item,yes,0,0,C:/Users/rrics/Documents/!!ResearchBMECOGSCI/gnet,0,0,0,prototype1.png,no,mono,no,18,no,black,no,no,768,1215,3.5.6,legacy,xpyriment,osweb,1.3.13,0,space,space,space,,26640,19994,26640,,2,legacy,834,1536,24,864,24,0,0,1536,1649584613257,1024,2,48000,-16,experiment,prototype3.png,1,odd,Win32,169,131968,128958,169,169,498624,500129,493624,133488,493624,169,,,,,,visual_patterns,0,0,0,yes,1366
undefined,undefined,undefined,undefined,white,no,Mozilla,Netscape,"5.0 (Windows NT 10.0; Win64; x64) AppleWebKit/537.36 (KHTML, like Gecko) Chrome/100.0.4896.75 Safari/537.36",xpyriment,legacy,legacy,0,uniform,0,0,0,0,24,24,24,0,0,52,52,52,52,52,0,52,0,,,,,,0,,10-03-22,10-03-22,11:56:10,Sun Apr 10 2022 11:56:10 GMT+0200 (közép-európai nyári idő),The main experiment item,yes,0,0,C:/Users/rrics/Documents/!!ResearchBMECOGSCI/gnet,0,0,0,prototype1.png,no,mono,no,18,no,black,no,no,768,1215,3.5.6,legacy,xpyriment,osweb,1.3.13,0,space,space,space,,26640,19994,26640,,2,legacy,834,1536,24,864,24,0,0,1536,1649584613257,1024,2,48000,-16,experiment,p1sarr1.png,1,odd,Win32,169,131968,128958,169,169,505148,506656,500151,133488,500151,169,,,,,,visual_patterns,0,0,0,yes,1366
undefined,undefined,undefined,undefined,white,no,Mozilla,Netscape,"5.0 (Windows NT 10.0; Win64; x64) AppleWebKit/537.36 (KHTML, like Gecko) Chrome/100.0.4896.75 Safari/537.36",xpyriment,legacy,legacy,0,uniform,0,0,0,0,24,24,24,0,0,53,53,53,53,53,0,53,0,,,,,,0,,10-03-22,10-03-22,11:56:10,Sun Apr 10 2022 11:56:10 GMT+0200 (közép-európai nyári idő),The main experiment item,yes,0,0,C:/Users/rrics/Documents/!!ResearchBMECOGSCI/gnet,0,0,0,prototype1.png,no,mono,no,18,no,black,no,no,768,1215,3.5.6,legacy,xpyriment,osweb,1.3.13,0,space,space,space,,26640,19994,26640,,2,legacy,834,1536,24,864,24,0,0,1536,1649584613257,1024,2,48000,-16,experiment,p1sarrcol2.png,1,odd,Win32,169,131968,128958,169,169,511682,513183,506685,133488,506685,169,,,,,,visual_patterns,0,0,0,yes,1366
undefined,undefined,undefined,undefined,white,no,Mozilla,Netscape,"5.0 (Windows NT 10.0; Win64; x64) AppleWebKit/537.36 (KHTML, like Gecko) Chrome/100.0.4896.75 Safari/537.36",xpyriment,legacy,legacy,0,uniform,0,0,0,0,24,24,24,0,0,54,54,54,54,54,0,54,0,,,,,,0,,10-03-22,10-03-22,11:56:10,Sun Apr 10 2022 11:56:10 GMT+0200 (közép-európai nyári idő),The main experiment item,yes,0,0,C:/Users/rrics/Documents/!!ResearchBMECOGSCI/gnet,0,0,0,prototype1.png,no,mono,no,18,no,black,no,no,768,1215,3.5.6,legacy,xpyriment,osweb,1.3.13,0,space,space,space,,26640,19994,26640,,2,legacy,834,1536,24,864,24,0,0,1536,1649584613257,1024,2,48000,-16,experiment,p2sarrcol2.png,1,odd,Win32,169,131968,128958,169,169,518232,519745,513231,133488,513231,169,,,,,,visual_patterns,0,0,0,yes,1366
undefined,undefined,undefined,undefined,white,no,Mozilla,Netscape,"5.0 (Windows NT 10.0; Win64; x64) AppleWebKit/537.36 (KHTML, like Gecko) Chrome/100.0.4896.75 Safari/537.36",xpyriment,legacy,legacy,0,uniform,0,0,0,0,24,24,24,0,0,55,55,55,55,55,0,55,0,,,,,,0,,10-03-22,10-03-22,11:56:10,Sun Apr 10 2022 11:56:10 GMT+0200 (közép-európai nyári idő),The main experiment item,yes,0,0,C:/Users/rrics/Documents/!!ResearchBMECOGSCI/gnet,0,0,0,prototype1.png,no,mono,no,18,no,black,no,no,768,1215,3.5.6,legacy,xpyriment,osweb,1.3.13,0,space,space,space,,26640,19994,26640,,2,legacy,834,1536,24,864,24,0,0,1536,1649584613257,1024,2,48000,-16,experiment,prototype4.png,1,odd,Win32,169,131968,128958,169,169,524770,526273,519767,133488,519767,169,,,,,,visual_patterns,0,0,0,yes,1366
undefined,undefined,undefined,undefined,white,no,Mozilla,Netscape,"5.0 (Windows NT 10.0; Win64; x64) AppleWebKit/537.36 (KHTML, like Gecko) Chrome/100.0.4896.75 Safari/537.36",xpyriment,legacy,legacy,0,uniform,0,0,0,0,24,24,24,0,0,56,56,56,56,56,0,56,0,,,,,,0,,10-03-22,10-03-22,11:56:10,Sun Apr 10 2022 11:56:10 GMT+0200 (közép-európai nyári idő),The main experiment item,yes,0,0,C:/Users/rrics/Documents/!!ResearchBMECOGSCI/gnet,0,0,0,prototype1.png,no,mono,no,18,no,black,no,no,768,1215,3.5.6,legacy,xpyriment,osweb,1.3.13,0,space,space,space,,26640,19994,26640,,2,legacy,834,1536,24,864,24,0,0,1536,1649584613257,1024,2,48000,-16,experiment,p2sarrshacol1.png,1,odd,Win32,169,131968,128958,169,169,531304,532817,526306,133488,526306,169,,,,,,visual_patterns,0,0,0,yes,1366
undefined,undefined,undefined,undefined,white,no,Mozilla,Netscape,"5.0 (Windows NT 10.0; Win64; x64) AppleWebKit/537.36 (KHTML, like Gecko) Chrome/100.0.4896.75 Safari/537.36",xpyriment,legacy,legacy,0,uniform,0,0,0,0,24,24,24,0,0,57,57,57,57,57,0,57,0,,,,,,0,,10-03-22,10-03-22,11:56:10,Sun Apr 10 2022 11:56:10 GMT+0200 (közép-európai nyári idő),The main experiment item,yes,0,0,C:/Users/rrics/Documents/!!ResearchBMECOGSCI/gnet,0,0,0,prototype1.png,no,mono,no,18,no,black,no,no,768,1215,3.5.6,legacy,xpyriment,osweb,1.3.13,0,space,space,space,,26640,19994,26640,,2,legacy,834,1536,24,864,24,0,0,1536,1649584613257,1024,2,48000,-16,experiment,prototype5.png,1,odd,Win32,169,131968,128958,169,169,537846,539361,532845,133488,532845,169,,,,,,visual_patterns,0,0,0,yes,1366
undefined,undefined,undefined,undefined,white,no,Mozilla,Netscape,"5.0 (Windows NT 10.0; Win64; x64) AppleWebKit/537.36 (KHTML, like Gecko) Chrome/100.0.4896.75 Safari/537.36",xpyriment,legacy,legacy,0,uniform,0,0,0,0,24,24,24,0,0,58,58,58,58,58,0,58,0,,,,,,0,,10-03-22,10-03-22,11:56:10,Sun Apr 10 2022 11:56:10 GMT+0200 (közép-európai nyári idő),The main experiment item,yes,0,0,C:/Users/rrics/Documents/!!ResearchBMECOGSCI/gnet,0,0,0,prototype1.png,no,mono,no,18,no,black,no,no,768,1215,3.5.6,legacy,xpyriment,osweb,1.3.13,0,space,space,space,,26640,19994,26640,,2,legacy,834,1536,24,864,24,0,0,1536,1649584613257,1024,2,48000,-16,experiment,prototype2.png,1,odd,Win32,169,131968,128958,169,169,544385,545889,539384,133488,539384,169,,,,,,visual_patterns,0,0,0,yes,1366
undefined,undefined,undefined,undefined,white,no,Mozilla,Netscape,"5.0 (Windows NT 10.0; Win64; x64) AppleWebKit/537.36 (KHTML, like Gecko) Chrome/100.0.4896.75 Safari/537.36",xpyriment,legacy,legacy,0,uniform,0,0,0,0,24,24,24,0,0,59,59,59,59,59,0,59,0,,,,,,0,,10-03-22,10-03-22,11:56:10,Sun Apr 10 2022 11:56:10 GMT+0200 (közép-európai nyári idő),The main experiment item,yes,0,0,C:/Users/rrics/Documents/!!ResearchBMECOGSCI/gnet,0,0,0,prototype1.png,no,mono,no,18,no,black,no,no,768,1215,3.5.6,legacy,xpyriment,osweb,1.3.13,0,space,space,space,,26640,19994,26640,,2,legacy,834,1536,24,864,24,0,0,1536,1649584613257,1024,2,48000,-16,experiment,prototype5.png,1,odd,Win32,169,131968,128958,169,169,550958,552466,545957,133488,545956,169,,,,,,visual_patterns,0,0,0,yes,1366
undefined,undefined,undefined,undefined,white,no,Mozilla,Netscape,"5.0 (Windows NT 10.0; Win64; x64) AppleWebKit/537.36 (KHTML, like Gecko) Chrome/100.0.4896.75 Safari/537.36",xpyriment,legacy,legacy,0,uniform,0,0,0,0,24,24,24,0,0,60,60,60,60,60,0,60,0,,,,,,0,,10-03-22,10-03-22,11:56:10,Sun Apr 10 2022 11:56:10 GMT+0200 (közép-európai nyári idő),The main experiment item,yes,0,0,C:/Users/rrics/Documents/!!ResearchBMECOGSCI/gnet,0,0,0,prototype1.png,no,mono,no,18,no,black,no,no,768,1215,3.5.6,legacy,xpyriment,osweb,1.3.13,0,space,space,space,,26640,19994,26640,,2,legacy,834,1536,24,864,24,0,0,1536,1649584613257,1024,2,48000,-16,experiment,p1sarrshacol2.png,1,odd,Win32,169,131968,128958,169,169,557495,559011,552502,133488,552502,169,,,,,,visual_patterns,0,0,0,yes,1366
undefined,undefined,undefined,undefined,white,no,Mozilla,Netscape,"5.0 (Windows NT 10.0; Win64; x64) AppleWebKit/537.36 (KHTML, like Gecko) Chrome/100.0.4896.75 Safari/537.36",xpyriment,legacy,legacy,0,uniform,0,0,0,0,24,24,24,0,0,61,61,61,61,61,0,61,0,,,,,,0,,10-03-22,10-03-22,11:56:10,Sun Apr 10 2022 11:56:10 GMT+0200 (közép-európai nyári idő),The main experiment item,yes,0,0,C:/Users/rrics/Documents/!!ResearchBMECOGSCI/gnet,0,0,0,prototype1.png,no,mono,no,18,no,black,no,no,768,1215,3.5.6,legacy,xpyriment,osweb,1.3.13,0,space,space,space,,26640,19994,26640,,2,legacy,834,1536,24,864,24,0,0,1536,1649584613257,1024,2,48000,-16,experiment,p2sarrcol1.png,1,odd,Win32,169,131968,128958,169,169,564039,565555,559043,133488,559043,169,,,,,,visual_patterns,0,0,0,yes,1366
undefined,undefined,undefined,undefined,white,no,Mozilla,Netscape,"5.0 (Windows NT 10.0; Win64; x64) AppleWebKit/537.36 (KHTML, like Gecko) Chrome/100.0.4896.75 Safari/537.36",xpyriment,legacy,legacy,0,uniform,0,0,0,0,24,24,24,0,0,62,62,62,62,62,0,62,0,,,,,,0,,10-03-22,10-03-22,11:56:10,Sun Apr 10 2022 11:56:10 GMT+0200 (közép-európai nyári idő),The main experiment item,yes,0,0,C:/Users/rrics/Documents/!!ResearchBMECOGSCI/gnet,0,0,0,prototype1.png,no,mono,no,18,no,black,no,no,768,1215,3.5.6,legacy,xpyriment,osweb,1.3.13,0,space,space,space,,26640,19994,26640,,2,legacy,834,1536,24,864,24,0,0,1536,1649584613257,1024,2,48000,-16,experiment,p5sarr2.png,1,odd,Win32,169,131968,128958,169,169,570579,572083,565583,133488,565583,169,,,,,,visual_patterns,0,0,0,yes,1366
undefined,undefined,undefined,undefined,white,no,Mozilla,Netscape,"5.0 (Windows NT 10.0; Win64; x64) AppleWebKit/537.36 (KHTML, like Gecko) Chrome/100.0.4896.75 Safari/537.36",xpyriment,legacy,legacy,0,uniform,0,0,0,0,24,24,24,0,0,63,63,63,63,63,0,63,0,,,,,,0,,10-03-22,10-03-22,11:56:10,Sun Apr 10 2022 11:56:10 GMT+0200 (közép-európai nyári idő),The main experiment item,yes,0,0,C:/Users/rrics/Documents/!!ResearchBMECOGSCI/gnet,0,0,0,prototype1.png,no,mono,no,18,no,black,no,no,768,1215,3.5.6,legacy,xpyriment,osweb,1.3.13,0,space,space,space,,26640,19994,26640,,2,legacy,834,1536,24,864,24,0,0,1536,1649584613257,1024,2,48000,-16,experiment,p10sarr2.png,1,odd,Win32,169,131968,128958,169,169,577114,578627,572120,133488,572120,169,,,,,,visual_patterns,0,0,0,yes,1366
undefined,undefined,undefined,undefined,white,no,Mozilla,Netscape,"5.0 (Windows NT 10.0; Win64; x64) AppleWebKit/537.36 (KHTML, like Gecko) Chrome/100.0.4896.75 Safari/537.36",xpyriment,legacy,legacy,0,uniform,0,0,0,0,24,24,24,0,0,64,64,64,64,64,0,64,0,,,,,,0,,10-03-22,10-03-22,11:56:10,Sun Apr 10 2022 11:56:10 GMT+0200 (közép-európai nyári idő),The main experiment item,yes,0,0,C:/Users/rrics/Documents/!!ResearchBMECOGSCI/gnet,0,0,0,prototype1.png,no,mono,no,18,no,black,no,no,768,1215,3.5.6,legacy,xpyriment,osweb,1.3.13,0,space,space,space,,26640,19994,26640,,2,legacy,834,1536,24,864,24,0,0,1536,1649584613257,1024,2,48000,-16,experiment,prototype1.png,1,odd,Win32,169,131968,128958,169,169,583678,585188,578676,133488,578676,169,,,,,,visual_patterns,0,0,0,yes,1366
undefined,undefined,undefined,undefined,white,no,Mozilla,Netscape,"5.0 (Windows NT 10.0; Win64; x64) AppleWebKit/537.36 (KHTML, like Gecko) Chrome/100.0.4896.75 Safari/537.36",xpyriment,legacy,legacy,0,uniform,0,0,0,0,24,24,24,0,0,65,65,65,65,65,0,65,0,,,,,,0,,10-03-22,10-03-22,11:56:10,Sun Apr 10 2022 11:56:10 GMT+0200 (közép-európai nyári idő),The main experiment item,yes,0,0,C:/Users/rrics/Documents/!!ResearchBMECOGSCI/gnet,0,0,0,prototype1.png,no,mono,no,18,no,black,no,no,768,1215,3.5.6,legacy,xpyriment,osweb,1.3.13,0,space,space,space,,26640,19994,26640,,2,legacy,834,1536,24,864,24,0,0,1536,1649584613257,1024,2,48000,-16,experiment,prototype4.png,1,odd,Win32,169,131968,128958,169,169,590223,591732,585221,133488,585221,169,,,,,,visual_patterns,0,0,0,yes,1366
undefined,undefined,undefined,undefined,white,no,Mozilla,Netscape,"5.0 (Windows NT 10.0; Win64; x64) AppleWebKit/537.36 (KHTML, like Gecko) Chrome/100.0.4896.75 Safari/537.36",xpyriment,legacy,legacy,0,uniform,0,0,0,0,24,24,24,0,0,66,66,66,66,66,0,66,0,,,,,,0,,10-03-22,10-03-22,11:56:10,Sun Apr 10 2022 11:56:10 GMT+0200 (közép-európai nyári idő),The main experiment item,yes,0,0,C:/Users/rrics/Documents/!!ResearchBMECOGSCI/gnet,0,0,0,prototype1.png,no,mono,no,18,no,black,no,no,768,1215,3.5.6,legacy,xpyriment,osweb,1.3.13,0,space,space,space,,26640,19994,26640,,2,legacy,834,1536,24,864,24,0,0,1536,1649584613257,1024,2,48000,-16,experiment,p2sarrshacol2.png,1,odd,Win32,169,131968,128958,169,169,596756,598260,591768,133488,591767,169,,,,,,visual_patterns,0,0,0,yes,1366
undefined,undefined,undefined,undefined,white,no,Mozilla,Netscape,"5.0 (Windows NT 10.0; Win64; x64) AppleWebKit/537.36 (KHTML, like Gecko) Chrome/100.0.4896.75 Safari/537.36",xpyriment,legacy,legacy,0,uniform,0,0,0,0,24,24,24,0,0,67,67,67,67,67,0,67,0,,,,,,0,,10-03-22,10-03-22,11:56:10,Sun Apr 10 2022 11:56:10 GMT+0200 (közép-európai nyári idő),The main experiment item,yes,0,0,C:/Users/rrics/Documents/!!ResearchBMECOGSCI/gnet,0,0,0,prototype1.png,no,mono,no,18,no,black,no,no,768,1215,3.5.6,legacy,xpyriment,osweb,1.3.13,0,space,space,space,,26640,19994,26640,,2,legacy,834,1536,24,864,24,0,0,1536,1649584613257,1024,2,48000,-16,experiment,p1sarr2.png,1,odd,Win32,169,131968,128958,169,169,603289,604804,598291,133488,598291,169,,,,,,visual_patterns,0,0,0,yes,1366
undefined,undefined,undefined,undefined,white,no,Mozilla,Netscape,"5.0 (Windows NT 10.0; Win64; x64) AppleWebKit/537.36 (KHTML, like Gecko) Chrome/100.0.4896.75 Safari/537.36",xpyriment,legacy,legacy,0,uniform,0,0,0,0,24,24,24,0,0,68,68,68,68,68,0,68,0,,,,,,0,,10-03-22,10-03-22,11:56:10,Sun Apr 10 2022 11:56:10 GMT+0200 (közép-európai nyári idő),The main experiment item,yes,0,0,C:/Users/rrics/Documents/!!ResearchBMECOGSCI/gnet,0,0,0,prototype1.png,no,mono,no,18,no,black,no,no,768,1215,3.5.6,legacy,xpyriment,osweb,1.3.13,0,space,space,space,,26640,19994,26640,,2,legacy,834,1536,24,864,24,0,0,1536,1649584613257,1024,2,48000,-16,experiment,p6sarr2.png,1,odd,Win32,169,131968,128958,169,169,609823,611331,604824,133488,604824,169,,,,,,visual_patterns,0,0,0,yes,1366
undefined,undefined,undefined,undefined,white,no,Mozilla,Netscape,"5.0 (Windows NT 10.0; Win64; x64) AppleWebKit/537.36 (KHTML, like Gecko) Chrome/100.0.4896.75 Safari/537.36",xpyriment,legacy,legacy,0,uniform,0,0,0,0,24,24,24,0,0,69,69,69,69,69,0,69,0,,,,,,0,,10-03-22,10-03-22,11:56:10,Sun Apr 10 2022 11:56:10 GMT+0200 (közép-európai nyári idő),The main experiment item,yes,0,0,C:/Users/rrics/Documents/!!ResearchBMECOGSCI/gnet,0,0,0,prototype1.png,no,mono,no,18,no,black,no,no,768,1215,3.5.6,legacy,xpyriment,osweb,1.3.13,0,space,space,space,,26640,19994,26640,,2,legacy,834,1536,24,864,24,0,0,1536,1649584613257,1024,2,48000,-16,experiment,prototype2.png,1,odd,Win32,169,131968,128958,169,169,616373,617876,611372,133488,611372,169,,,,,,visual_patterns,0,0,0,yes,1366
undefined,undefined,undefined,undefined,white,no,Mozilla,Netscape,"5.0 (Windows NT 10.0; Win64; x64) AppleWebKit/537.36 (KHTML, like Gecko) Chrome/100.0.4896.75 Safari/537.36",xpyriment,legacy,legacy,0,uniform,0,0,0,0,24,24,24,0,0,70,70,70,70,70,0,70,0,,,,,,0,,10-03-22,10-03-22,11:56:10,Sun Apr 10 2022 11:56:10 GMT+0200 (közép-európai nyári idő),The main experiment item,yes,0,0,C:/Users/rrics/Documents/!!ResearchBMECOGSCI/gnet,0,0,0,prototype1.png,no,mono,no,18,no,black,no,no,768,1215,3.5.6,legacy,xpyriment,osweb,1.3.13,0,space,space,space,,26640,19994,26640,,2,legacy,834,1536,24,864,24,0,0,1536,1649584613257,1024,2,48000,-16,experiment,p1sarrshacol1.png,1,odd,Win32,169,131968,128958,169,169,622884,624386,617884,133488,617884,169,,,,,,visual_patterns,0,0,0,yes,1366
undefined,undefined,undefined,undefined,white,no,Mozilla,Netscape,"5.0 (Windows NT 10.0; Win64; x64) AppleWebKit/537.36 (KHTML, like Gecko) Chrome/100.0.4896.75 Safari/537.36",xpyriment,legacy,legacy,0,uniform,0,0,0,0,24,24,24,0,0,71,71,71,71,71,0,71,0,,,,,,0,,10-03-22,10-03-22,11:56:10,Sun Apr 10 2022 11:56:10 GMT+0200 (közép-európai nyári idő),The main experiment item,yes,0,0,C:/Users/rrics/Documents/!!ResearchBMECOGSCI/gnet,0,0,0,prototype1.png,no,mono,no,18,no,black,no,no,768,1215,3.5.6,legacy,xpyriment,osweb,1.3.13,0,space,space,space,,26640,19994,26640,,2,legacy,834,1536,24,864,24,0,0,1536,1649584613257,1024,2,48000,-16,experiment,prototype1.png,1,odd,Win32,169,131968,128958,169,169,629395,630898,624396,133488,624396,169,,,,,,visual_patterns,0,0,0,yes,1366
undefined,undefined,undefined,undefined,white,no,Mozilla,Netscape,"5.0 (Windows NT 10.0; Win64; x64) AppleWebKit/537.36 (KHTML, like Gecko) Chrome/100.0.4896.75 Safari/537.36",xpyriment,legacy,legacy,0,uniform,0,0,0,0,24,24,24,0,0,72,72,72,72,72,0,72,0,,,,,,0,,10-03-22,10-03-22,11:56:10,Sun Apr 10 2022 11:56:10 GMT+0200 (közép-európai nyári idő),The main experiment item,yes,0,0,C:/Users/rrics/Documents/!!ResearchBMECOGSCI/gnet,0,0,0,prototype1.png,no,mono,no,18,no,black,no,no,768,1215,3.5.6,legacy,xpyriment,osweb,1.3.13,0,space,space,space,,26640,19994,26640,,2,legacy,834,1536,24,864,24,0,0,1536,1649584613257,1024,2,48000,-16,experiment,prototype5.png,1,odd,Win32,169,131968,128958,169,169,635928,637442,630927,133488,630927,169,,,,,,visual_patterns,0,0,0,yes,1366
undefined,undefined,undefined,undefined,white,no,Mozilla,Netscape,"5.0 (Windows NT 10.0; Win64; x64) AppleWebKit/537.36 (KHTML, like Gecko) Chrome/100.0.4896.75 Safari/537.36",xpyriment,legacy,legacy,0,uniform,0,0,0,0,24,24,24,0,0,73,73,73,73,73,0,73,0,,,,,,0,,10-03-22,10-03-22,11:56:10,Sun Apr 10 2022 11:56:10 GMT+0200 (közép-európai nyári idő),The main experiment item,yes,0,0,C:/Users/rrics/Documents/!!ResearchBMECOGSCI/gnet,0,0,0,prototype1.png,no,mono,no,18,no,black,no,no,768,1215,3.5.6,legacy,xpyriment,osweb,1.3.13,0,space,space,space,,26640,19994,26640,,2,legacy,834,1536,24,864,24,0,0,1536,1649584613257,1024,2,48000,-16,experiment,prototype3.png,1,odd,Win32,169,131968,128958,169,169,642472,643986,637475,133488,637474,169,,,,,,visual_patterns,0,0,0,yes,1366
undefined,undefined,undefined,undefined,white,no,Mozilla,Netscape,"5.0 (Windows NT 10.0; Win64; x64) AppleWebKit/537.36 (KHTML, like Gecko) Chrome/100.0.4896.75 Safari/537.36",xpyriment,legacy,legacy,0,uniform,0,0,0,0,24,24,24,0,0,74,74,74,74,74,0,74,0,,,,,,0,,10-03-22,10-03-22,11:56:10,Sun Apr 10 2022 11:56:10 GMT+0200 (közép-európai nyári idő),The main experiment item,yes,0,0,C:/Users/rrics/Documents/!!ResearchBMECOGSCI/gnet,0,0,0,prototype1.png,no,mono,no,18,no,black,no,no,768,1215,3.5.6,legacy,xpyriment,osweb,1.3.13,0,space,space,space,,26640,19994,26640,,2,legacy,834,1536,24,864,24,0,0,1536,1649584613257,1024,2,48000,-16,experiment,prototype2.png,1,odd,Win32,169,131968,128958,169,169,649008,650514,644008,133488,644008,169,,,,,,visual_patterns,0,0,0,yes,1366
undefined,undefined,undefined,undefined,white,no,Mozilla,Netscape,"5.0 (Windows NT 10.0; Win64; x64) AppleWebKit/537.36 (KHTML, like Gecko) Chrome/100.0.4896.75 Safari/537.36",xpyriment,legacy,legacy,0,uniform,0,0,0,0,24,24,24,0,0,74,74,74,74,74,0,74,0,0,0,0,0,0,0,0,10-03-22,10-03-22,11:56:10,Sun Apr 10 2022 11:56:10 GMT+0200 (közép-európai nyári idő),The main experiment item,yes,0,0,C:/Users/rrics/Documents/!!ResearchBMECOGSCI/gnet,0,0,0,prototype1.png,no,mono,no,18,no,black,no,no,768,1215,3.5.6,legacy,xpyriment,osweb,1.3.13,0,space,space,space,space,29502,19994,26640,29502,2,legacy,834,1536,24,864,24,0,0,1536,1649584613257,1024,2,48000,-16,experiment,p5sarrsha3.png,1,odd,Win32,169,131968,128958,169,169,649008,650514,644008,133488,644008,169,683089,684602,680091,650527,680091,visual_patterns,0,0,0,yes,1366
undefined,undefined,undefined,undefined,white,no,Mozilla,Netscape,"5.0 (Windows NT 10.0; Win64; x64) AppleWebKit/537.36 (KHTML, like Gecko) Chrome/100.0.4896.75 Safari/537.36",xpyriment,legacy,legacy,0,uniform,0,0,0,0,24,24,24,0,0,74,74,74,74,74,0,74,0,1,1,1,1,1,0,1,10-03-22,10-03-22,11:56:10,Sun Apr 10 2022 11:56:10 GMT+0200 (közép-európai nyári idő),The main experiment item,yes,0,0,C:/Users/rrics/Documents/!!ResearchBMECOGSCI/gnet,0,0,0,prototype1.png,no,mono,no,18,no,black,no,no,768,1215,3.5.6,legacy,xpyriment,osweb,1.3.13,0,space,space,space,space,29502,19994,26640,29502,2,legacy,834,1536,24,864,24,0,0,1536,1649584613257,1024,2,48000,-16,experiment,p2sarrshacol1.png,1,odd,Win32,169,131968,128958,169,169,649008,650514,644008,133488,644008,169,687638,689147,684634,650527,684634,visual_patterns,0,0,0,yes,1366
undefined,undefined,undefined,undefined,white,no,Mozilla,Netscape,"5.0 (Windows NT 10.0; Win64; x64) AppleWebKit/537.36 (KHTML, like Gecko) Chrome/100.0.4896.75 Safari/537.36",xpyriment,legacy,legacy,0,uniform,0,0,0,0,24,24,24,0,0,74,74,74,74,74,0,74,0,2,2,2,2,2,0,2,10-03-22,10-03-22,11:56:10,Sun Apr 10 2022 11:56:10 GMT+0200 (közép-európai nyári idő),The main experiment item,yes,0,0,C:/Users/rrics/Documents/!!ResearchBMECOGSCI/gnet,0,0,0,prototype1.png,no,mono,no,18,no,black,no,no,768,1215,3.5.6,legacy,xpyriment,osweb,1.3.13,0,space,space,space,space,29502,19994,26640,29502,2,legacy,834,1536,24,864,24,0,0,1536,1649584613257,1024,2,48000,-16,experiment,p4sarr4.png,1,odd,Win32,169,131968,128958,169,169,649008,650514,644008,133488,644008,169,692182,693694,689181,650527,689180,visual_patterns,0,0,0,yes,1366
undefined,undefined,undefined,undefined,white,no,Mozilla,Netscape,"5.0 (Windows NT 10.0; Win64; x64) AppleWebKit/537.36 (KHTML, like Gecko) Chrome/100.0.4896.75 Safari/537.36",xpyriment,legacy,legacy,0,uniform,0,0,0,0,24,24,24,0,0,74,74,74,74,74,0,74,0,3,3,3,3,3,0,3,10-03-22,10-03-22,11:56:10,Sun Apr 10 2022 11:56:10 GMT+0200 (közép-európai nyári idő),The main experiment item,yes,0,0,C:/Users/rrics/Documents/!!ResearchBMECOGSCI/gnet,0,0,0,prototype1.png,no,mono,no,18,no,black,no,no,768,1215,3.5.6,legacy,xpyriment,osweb,1.3.13,0,space,space,space,space,29502,19994,26640,29502,2,legacy,834,1536,24,864,24,0,0,1536,1649584613257,1024,2,48000,-16,experiment,p5sarrsha2.png,1,odd,Win32,169,131968,128958,169,169,649008,650514,644008,133488,644008,169,696726,698239,693727,650527,693727,visual_patterns,0,0,0,yes,1366
undefined,undefined,undefined,undefined,white,no,Mozilla,Netscape,"5.0 (Windows NT 10.0; Win64; x64) AppleWebKit/537.36 (KHTML, like Gecko) Chrome/100.0.4896.75 Safari/537.36",xpyriment,legacy,legacy,0,uniform,0,0,0,0,24,24,24,0,0,74,74,74,74,74,0,74,0,4,4,4,4,4,0,4,10-03-22,10-03-22,11:56:10,Sun Apr 10 2022 11:56:10 GMT+0200 (közép-európai nyári idő),The main experiment item,yes,0,0,C:/Users/rrics/Documents/!!ResearchBMECOGSCI/gnet,0,0,0,prototype1.png,no,mono,no,18,no,black,no,no,768,1215,3.5.6,legacy,xpyriment,osweb,1.3.13,0,space,space,space,space,29502,19994,26640,29502,2,legacy,834,1536,24,864,24,0,0,1536,1649584613257,1024,2,48000,-16,experiment,p7sarr2.png,1,odd,Win32,169,131968,128958,169,169,649008,650514,644008,133488,644008,169,701282,702785,698280,650527,698280,visual_patterns,0,0,0,yes,1366
undefined,undefined,undefined,undefined,white,no,Mozilla,Netscape,"5.0 (Windows NT 10.0; Win64; x64) AppleWebKit/537.36 (KHTML, like Gecko) Chrome/100.0.4896.75 Safari/537.36",xpyriment,legacy,legacy,0,uniform,0,0,0,0,24,24,24,0,0,74,74,74,74,74,0,74,0,5,5,5,5,5,0,5,10-03-22,10-03-22,11:56:10,Sun Apr 10 2022 11:56:10 GMT+0200 (közép-európai nyári idő),The main experiment item,yes,0,0,C:/Users/rrics/Documents/!!ResearchBMECOGSCI/gnet,0,0,0,prototype1.png,no,mono,no,18,no,black,no,no,768,1215,3.5.6,legacy,xpyriment,osweb,1.3.13,0,space,space,space,space,29502,19994,26640,29502,2,legacy,834,1536,24,864,24,0,0,1536,1649584613257,1024,2,48000,-16,experiment,p1sarrsha4.png,1,odd,Win32,169,131968,128958,169,169,649008,650514,644008,133488,644008,169,705818,707331,702821,650527,702821,visual_patterns,0,0,0,yes,1366
undefined,undefined,undefined,undefined,white,no,Mozilla,Netscape,"5.0 (Windows NT 10.0; Win64; x64) AppleWebKit/537.36 (KHTML, like Gecko) Chrome/100.0.4896.75 Safari/537.36",xpyriment,legacy,legacy,0,uniform,0,0,0,0,24,24,24,0,0,74,74,74,74,74,0,74,0,6,6,6,6,6,0,6,10-03-22,10-03-22,11:56:10,Sun Apr 10 2022 11:56:10 GMT+0200 (közép-európai nyári idő),The main experiment item,yes,0,0,C:/Users/rrics/Documents/!!ResearchBMECOGSCI/gnet,0,0,0,prototype1.png,no,mono,no,18,no,black,no,no,768,1215,3.5.6,legacy,xpyriment,osweb,1.3.13,0,space,space,space,space,29502,19994,26640,29502,2,legacy,834,1536,24,864,24,0,0,1536,1649584613257,1024,2,48000,-16,experiment,p3sarrcol2.png,1,odd,Win32,169,131968,128958,169,169,649008,650514,644008,133488,644008,169,710362,711877,707363,650527,707363,visual_patterns,0,0,0,yes,1366
undefined,undefined,undefined,undefined,white,no,Mozilla,Netscape,"5.0 (Windows NT 10.0; Win64; x64) AppleWebKit/537.36 (KHTML, like Gecko) Chrome/100.0.4896.75 Safari/537.36",xpyriment,legacy,legacy,0,uniform,0,0,0,0,24,24,24,0,0,74,74,74,74,74,0,74,0,7,7,7,7,7,0,7,10-03-22,10-03-22,11:56:10,Sun Apr 10 2022 11:56:10 GMT+0200 (közép-európai nyári idő),The main experiment item,yes,0,0,C:/Users/rrics/Documents/!!ResearchBMECOGSCI/gnet,0,0,0,prototype1.png,no,mono,no,18,no,black,no,no,768,1215,3.5.6,legacy,xpyriment,osweb,1.3.13,0,space,space,space,space,29502,19994,26640,29502,2,legacy,834,1536,24,864,24,0,0,1536,1649584613257,1024,2,48000,-16,experiment,p3sarrcol3.png,1,odd,Win32,169,131968,128958,169,169,649008,650514,644008,133488,644008,169,714909,716423,711911,650527,711911,visual_patterns,0,0,0,yes,1366
undefined,undefined,undefined,undefined,white,no,Mozilla,Netscape,"5.0 (Windows NT 10.0; Win64; x64) AppleWebKit/537.36 (KHTML, like Gecko) Chrome/100.0.4896.75 Safari/537.36",xpyriment,legacy,legacy,0,uniform,0,0,0,0,24,24,24,0,0,74,74,74,74,74,0,74,0,8,8,8,8,8,0,8,10-03-22,10-03-22,11:56:10,Sun Apr 10 2022 11:56:10 GMT+0200 (közép-európai nyári idő),The main experiment item,yes,0,0,C:/Users/rrics/Documents/!!ResearchBMECOGSCI/gnet,0,0,0,prototype1.png,no,mono,no,18,no,black,no,no,768,1215,3.5.6,legacy,xpyriment,osweb,1.3.13,0,space,space,space,space,29502,19994,26640,29502,2,legacy,834,1536,24,864,24,0,0,1536,1649584613257,1024,2,48000,-16,experiment,p1sarrsha1.png,1,odd,Win32,169,131968,128958,169,169,649008,650514,644008,133488,644008,169,719436,720953,716437,650527,716437,visual_patterns,0,0,0,yes,1366
undefined,undefined,undefined,undefined,white,no,Mozilla,Netscape,"5.0 (Windows NT 10.0; Win64; x64) AppleWebKit/537.36 (KHTML, like Gecko) Chrome/100.0.4896.75 Safari/537.36",xpyriment,legacy,legacy,0,uniform,0,0,0,0,24,24,24,0,0,74,74,74,74,74,0,74,0,9,9,9,9,9,0,9,10-03-22,10-03-22,11:56:10,Sun Apr 10 2022 11:56:10 GMT+0200 (közép-európai nyári idő),The main experiment item,yes,0,0,C:/Users/rrics/Documents/!!ResearchBMECOGSCI/gnet,0,0,0,prototype1.png,no,mono,no,18,no,black,no,no,768,1215,3.5.6,legacy,xpyriment,osweb,1.3.13,0,space,space,space,space,29502,19994,26640,29502,2,legacy,834,1536,24,864,24,0,0,1536,1649584613257,1024,2,48000,-16,experiment,p4sarr1.png,1,odd,Win32,169,131968,128958,169,169,649008,650514,644008,133488,644008,169,724034,725548,721031,650527,721031,visual_patterns,0,0,0,yes,1366
undefined,undefined,undefined,undefined,white,no,Mozilla,Netscape,"5.0 (Windows NT 10.0; Win64; x64) AppleWebKit/537.36 (KHTML, like Gecko) Chrome/100.0.4896.75 Safari/537.36",xpyriment,legacy,legacy,0,uniform,0,0,0,0,24,24,24,0,0,74,74,74,74,74,0,74,0,10,10,10,10,10,0,10,10-03-22,10-03-22,11:56:10,Sun Apr 10 2022 11:56:10 GMT+0200 (közép-európai nyári idő),The main experiment item,yes,0,0,C:/Users/rrics/Documents/!!ResearchBMECOGSCI/gnet,0,0,0,prototype1.png,no,mono,no,18,no,black,no,no,768,1215,3.5.6,legacy,xpyriment,osweb,1.3.13,0,space,space,space,space,29502,19994,26640,29502,2,legacy,834,1536,24,864,24,0,0,1536,1649584613257,1024,2,48000,-16,experiment,p9sarr2.png,1,odd,Win32,169,131968,128958,169,169,649008,650514,644008,133488,644008,169,728558,730062,725557,650527,725557,visual_patterns,0,0,0,yes,1366
undefined,undefined,undefined,undefined,white,no,Mozilla,Netscape,"5.0 (Windows NT 10.0; Win64; x64) AppleWebKit/537.36 (KHTML, like Gecko) Chrome/100.0.4896.75 Safari/537.36",xpyriment,legacy,legacy,0,uniform,0,0,0,0,24,24,24,0,0,74,74,74,74,74,0,74,0,11,11,11,11,11,0,11,10-03-22,10-03-22,11:56:10,Sun Apr 10 2022 11:56:10 GMT+0200 (közép-európai nyári idő),The main experiment item,yes,0,0,C:/Users/rrics/Documents/!!ResearchBMECOGSCI/gnet,0,0,0,prototype1.png,no,mono,no,18,no,black,no,no,768,1215,3.5.6,legacy,xpyriment,osweb,1.3.13,0,space,space,space,space,29502,19994,26640,29502,2,legacy,834,1536,24,864,24,0,0,1536,1649584613257,1024,2,48000,-16,experiment,p1sarr2.png,1,odd,Win32,169,131968,128958,169,169,649008,650514,644008,133488,644008,169,733095,734608,730091,650527,730091,visual_patterns,0,0,0,yes,1366
undefined,undefined,undefined,undefined,white,no,Mozilla,Netscape,"5.0 (Windows NT 10.0; Win64; x64) AppleWebKit/537.36 (KHTML, like Gecko) Chrome/100.0.4896.75 Safari/537.36",xpyriment,legacy,legacy,0,uniform,0,0,0,0,24,24,24,0,0,74,74,74,74,74,0,74,0,12,12,12,12,12,0,12,10-03-22,10-03-22,11:56:10,Sun Apr 10 2022 11:56:10 GMT+0200 (közép-európai nyári idő),The main experiment item,yes,0,0,C:/Users/rrics/Documents/!!ResearchBMECOGSCI/gnet,0,0,0,prototype1.png,no,mono,no,18,no,black,no,no,768,1215,3.5.6,legacy,xpyriment,osweb,1.3.13,0,space,space,space,space,29502,19994,26640,29502,2,legacy,834,1536,24,864,24,0,0,1536,1649584613257,1024,2,48000,-16,experiment,p3sarrcol4.png,1,odd,Win32,169,131968,128958,169,169,649008,650514,644008,133488,644008,169,737645,739153,734645,650527,734645,visual_patterns,0,0,0,yes,1366
undefined,undefined,undefined,undefined,white,no,Mozilla,Netscape,"5.0 (Windows NT 10.0; Win64; x64) AppleWebKit/537.36 (KHTML, like Gecko) Chrome/100.0.4896.75 Safari/537.36",xpyriment,legacy,legacy,0,uniform,0,0,0,0,24,24,24,0,0,74,74,74,74,74,0,74,0,13,13,13,13,13,0,13,10-03-22,10-03-22,11:56:10,Sun Apr 10 2022 11:56:10 GMT+0200 (közép-európai nyári idő),The main experiment item,yes,0,0,C:/Users/rrics/Documents/!!ResearchBMECOGSCI/gnet,0,0,0,prototype1.png,no,mono,no,18,no,black,no,no,768,1215,3.5.6,legacy,xpyriment,osweb,1.3.13,0,space,space,space,space,29502,19994,26640,29502,2,legacy,834,1536,24,864,24,0,0,1536,1649584613257,1024,2,48000,-16,experiment,p2sarrshacol2.png,1,odd,Win32,169,131968,128958,169,169,649008,650514,644008,133488,644008,169,742163,743666,739162,650527,739162,visual_patterns,0,0,0,yes,1366
undefined,undefined,undefined,undefined,white,no,Mozilla,Netscape,"5.0 (Windows NT 10.0; Win64; x64) AppleWebKit/537.36 (KHTML, like Gecko) Chrome/100.0.4896.75 Safari/537.36",xpyriment,legacy,legacy,0,uniform,0,0,0,0,24,24,24,0,0,74,74,74,74,74,0,74,0,14,14,14,14,14,0,14,10-03-22,10-03-22,11:56:10,Sun Apr 10 2022 11:56:10 GMT+0200 (közép-európai nyári idő),The main experiment item,yes,0,0,C:/Users/rrics/Documents/!!ResearchBMECOGSCI/gnet,0,0,0,prototype1.png,no,mono,no,18,no,black,no,no,768,1215,3.5.6,legacy,xpyriment,osweb,1.3.13,0,space,space,space,space,29502,19994,26640,29502,2,legacy,834,1536,24,864,24,0,0,1536,1649584613257,1024,2,48000,-16,experiment,p6sarr1.png,1,odd,Win32,169,131968,128958,169,169,649008,650514,644008,133488,644008,169,746740,748246,743740,650527,743740,visual_patterns,0,0,0,yes,1366
undefined,undefined,undefined,undefined,white,no,Mozilla,Netscape,"5.0 (Windows NT 10.0; Win64; x64) AppleWebKit/537.36 (KHTML, like Gecko) Chrome/100.0.4896.75 Safari/537.36",xpyriment,legacy,legacy,0,uniform,0,0,0,0,24,24,24,0,0,74,74,74,74,74,0,74,0,15,15,15,15,15,0,15,10-03-22,10-03-22,11:56:10,Sun Apr 10 2022 11:56:10 GMT+0200 (közép-európai nyári idő),The main experiment item,yes,0,0,C:/Users/rrics/Documents/!!ResearchBMECOGSCI/gnet,0,0,0,prototype1.png,no,mono,no,18,no,black,no,no,768,1215,3.5.6,legacy,xpyriment,osweb,1.3.13,0,space,space,space,space,29502,19994,26640,29502,2,legacy,834,1536,24,864,24,0,0,1536,1649584613257,1024,2,48000,-16,experiment,p4sarrshacol3.png,1,odd,Win32,169,131968,128958,169,169,649008,650514,644008,133488,644008,169,751283,752792,748287,650527,748287,visual_patterns,0,0,0,yes,1366
undefined,undefined,undefined,undefined,white,no,Mozilla,Netscape,"5.0 (Windows NT 10.0; Win64; x64) AppleWebKit/537.36 (KHTML, like Gecko) Chrome/100.0.4896.75 Safari/537.36",xpyriment,legacy,legacy,0,uniform,0,0,0,0,24,24,24,0,0,74,74,74,74,74,0,74,0,16,16,16,16,16,0,16,10-03-22,10-03-22,11:56:10,Sun Apr 10 2022 11:56:10 GMT+0200 (közép-európai nyári idő),The main experiment item,yes,0,0,C:/Users/rrics/Documents/!!ResearchBMECOGSCI/gnet,0,0,0,prototype1.png,no,mono,no,18,no,black,no,no,768,1215,3.5.6,legacy,xpyriment,osweb,1.3.13,0,space,space,space,space,29502,19994,26640,29502,2,legacy,834,1536,24,864,24,0,0,1536,1649584613257,1024,2,48000,-16,experiment,p4sarrshacol4.png,1,odd,Win32,169,131968,128958,169,169,649008,650514,644008,133488,644008,169,755817,757321,752820,650527,752820,visual_patterns,0,0,0,yes,1366
undefined,undefined,undefined,undefined,white,no,Mozilla,Netscape,"5.0 (Windows NT 10.0; Win64; x64) AppleWebKit/537.36 (KHTML, like Gecko) Chrome/100.0.4896.75 Safari/537.36",xpyriment,legacy,legacy,0,uniform,0,0,0,0,24,24,24,0,0,74,74,74,74,74,0,74,0,17,17,17,17,17,0,17,10-03-22,10-03-22,11:56:10,Sun Apr 10 2022 11:56:10 GMT+0200 (közép-európai nyári idő),The main experiment item,yes,0,0,C:/Users/rrics/Documents/!!ResearchBMECOGSCI/gnet,0,0,0,prototype1.png,no,mono,no,18,no,black,no,no,768,1215,3.5.6,legacy,xpyriment,osweb,1.3.13,0,space,space,space,space,29502,19994,26640,29502,2,legacy,834,1536,24,864,24,0,0,1536,1649584613257,1024,2,48000,-16,experiment,p2sarrcol1.png,1,odd,Win32,169,131968,128958,169,169,649008,650514,644008,133488,644008,169,760355,761867,757354,650527,757354,visual_patterns,0,0,0,yes,1366
undefined,undefined,undefined,undefined,white,no,Mozilla,Netscape,"5.0 (Windows NT 10.0; Win64; x64) AppleWebKit/537.36 (KHTML, like Gecko) Chrome/100.0.4896.75 Safari/537.36",xpyriment,legacy,legacy,0,uniform,0,0,0,0,24,24,24,0,0,74,74,74,74,74,0,74,0,18,18,18,18,18,0,18,10-03-22,10-03-22,11:56:10,Sun Apr 10 2022 11:56:10 GMT+0200 (közép-európai nyári idő),The main experiment item,yes,0,0,C:/Users/rrics/Documents/!!ResearchBMECOGSCI/gnet,0,0,0,prototype1.png,no,mono,no,18,no,black,no,no,768,1215,3.5.6,legacy,xpyriment,osweb,1.3.13,0,space,space,space,space,29502,19994,26640,29502,2,legacy,834,1536,24,864,24,0,0,1536,1649584613257,1024,2,48000,-16,experiment,p1sarr4.png,1,odd,Win32,169,131968,128958,169,169,649008,650514,644008,133488,644008,169,764880,766397,761880,650527,761880,visual_patterns,0,0,0,yes,1366
undefined,undefined,undefined,undefined,white,no,Mozilla,Netscape,"5.0 (Windows NT 10.0; Win64; x64) AppleWebKit/537.36 (KHTML, like Gecko) Chrome/100.0.4896.75 Safari/537.36",xpyriment,legacy,legacy,0,uniform,0,0,0,0,24,24,24,0,0,74,74,74,74,74,0,74,0,19,19,19,19,19,0,19,10-03-22,10-03-22,11:56:10,Sun Apr 10 2022 11:56:10 GMT+0200 (közép-európai nyári idő),The main experiment item,yes,0,0,C:/Users/rrics/Documents/!!ResearchBMECOGSCI/gnet,0,0,0,prototype1.png,no,mono,no,18,no,black,no,no,768,1215,3.5.6,legacy,xpyriment,osweb,1.3.13,0,space,space,space,space,29502,19994,26640,29502,2,legacy,834,1536,24,864,24,0,0,1536,1649584613257,1024,2,48000,-16,experiment,p10sarr1.png,1,odd,Win32,169,131968,128958,169,169,649008,650514,644008,133488,644008,169,769451,770959,766449,650527,766449,visual_patterns,0,0,0,yes,1366
undefined,undefined,undefined,undefined,white,no,Mozilla,Netscape,"5.0 (Windows NT 10.0; Win64; x64) AppleWebKit/537.36 (KHTML, like Gecko) Chrome/100.0.4896.75 Safari/537.36",xpyriment,legacy,legacy,0,uniform,0,0,0,0,24,24,24,0,0,74,74,74,74,74,0,74,0,20,20,20,20,20,0,20,10-03-22,10-03-22,11:56:10,Sun Apr 10 2022 11:56:10 GMT+0200 (közép-európai nyári idő),The main experiment item,yes,0,0,C:/Users/rrics/Documents/!!ResearchBMECOGSCI/gnet,0,0,0,prototype1.png,no,mono,no,18,no,black,no,no,768,1215,3.5.6,legacy,xpyriment,osweb,1.3.13,0,space,space,space,space,29502,19994,26640,29502,2,legacy,834,1536,24,864,24,0,0,1536,1649584613257,1024,2,48000,-16,experiment,p8sarr3.png,1,odd,Win32,169,131968,128958,169,169,649008,650514,644008,133488,644008,169,773999,775505,770999,650527,770999,visual_patterns,0,0,0,yes,1366
undefined,undefined,undefined,undefined,white,no,Mozilla,Netscape,"5.0 (Windows NT 10.0; Win64; x64) AppleWebKit/537.36 (KHTML, like Gecko) Chrome/100.0.4896.75 Safari/537.36",xpyriment,legacy,legacy,0,uniform,0,0,0,0,24,24,24,0,0,74,74,74,74,74,0,74,0,21,21,21,21,21,0,21,10-03-22,10-03-22,11:56:10,Sun Apr 10 2022 11:56:10 GMT+0200 (közép-európai nyári idő),The main experiment item,yes,0,0,C:/Users/rrics/Documents/!!ResearchBMECOGSCI/gnet,0,0,0,prototype1.png,no,mono,no,18,no,black,no,no,768,1215,3.5.6,legacy,xpyriment,osweb,1.3.13,0,space,space,space,space,29502,19994,26640,29502,2,legacy,834,1536,24,864,24,0,0,1536,1649584613257,1024,2,48000,-16,experiment,p9sarr4.png,1,odd,Win32,169,131968,128958,169,169,649008,650514,644008,133488,644008,169,778536,780051,775538,650527,775538,visual_patterns,0,0,0,yes,1366
undefined,undefined,undefined,undefined,white,no,Mozilla,Netscape,"5.0 (Windows NT 10.0; Win64; x64) AppleWebKit/537.36 (KHTML, like Gecko) Chrome/100.0.4896.75 Safari/537.36",xpyriment,legacy,legacy,0,uniform,0,0,0,0,24,24,24,0,0,74,74,74,74,74,0,74,0,22,22,22,22,22,0,22,10-03-22,10-03-22,11:56:10,Sun Apr 10 2022 11:56:10 GMT+0200 (közép-európai nyári idő),The main experiment item,yes,0,0,C:/Users/rrics/Documents/!!ResearchBMECOGSCI/gnet,0,0,0,prototype1.png,no,mono,no,18,no,black,no,no,768,1215,3.5.6,legacy,xpyriment,osweb,1.3.13,0,space,space,space,space,29502,19994,26640,29502,2,legacy,834,1536,24,864,24,0,0,1536,1649584613257,1024,2,48000,-16,experiment,p5sarrcol2.png,1,odd,Win32,169,131968,128958,169,169,649008,650514,644008,133488,644008,169,783083,784597,780086,650527,780086,visual_patterns,0,0,0,yes,1366
undefined,undefined,undefined,undefined,white,no,Mozilla,Netscape,"5.0 (Windows NT 10.0; Win64; x64) AppleWebKit/537.36 (KHTML, like Gecko) Chrome/100.0.4896.75 Safari/537.36",xpyriment,legacy,legacy,0,uniform,0,0,0,0,24,24,24,0,0,74,74,74,74,74,0,74,0,23,23,23,23,23,0,23,10-03-22,10-03-22,11:56:10,Sun Apr 10 2022 11:56:10 GMT+0200 (közép-európai nyári idő),The main experiment item,yes,0,0,C:/Users/rrics/Documents/!!ResearchBMECOGSCI/gnet,0,0,0,prototype1.png,no,mono,no,18,no,black,no,no,768,1215,3.5.6,legacy,xpyriment,osweb,1.3.13,0,space,space,space,space,29502,19994,26640,29502,2,legacy,834,1536,24,864,24,0,0,1536,1649584613257,1024,2,48000,-16,experiment,p7sarr4.png,1,odd,Win32,169,131968,128958,169,169,649008,650514,644008,133488,644008,169,787627,789142,784627,650527,784627,visual_patterns,0,0,0,yes,1366
undefined,undefined,undefined,undefined,white,no,Mozilla,Netscape,"5.0 (Windows NT 10.0; Win64; x64) AppleWebKit/537.36 (KHTML, like Gecko) Chrome/100.0.4896.75 Safari/537.36",xpyriment,legacy,legacy,0,uniform,0,0,0,0,24,24,24,0,0,74,74,74,74,74,0,74,0,24,24,24,24,24,0,24,10-03-22,10-03-22,11:56:10,Sun Apr 10 2022 11:56:10 GMT+0200 (közép-európai nyári idő),The main experiment item,yes,0,0,C:/Users/rrics/Documents/!!ResearchBMECOGSCI/gnet,0,0,0,prototype1.png,no,mono,no,18,no,black,no,no,768,1215,3.5.6,legacy,xpyriment,osweb,1.3.13,0,space,space,space,space,29502,19994,26640,29502,2,legacy,834,1536,24,864,24,0,0,1536,1649584613257,1024,2,48000,-16,experiment,p3sarrsha3.png,1,odd,Win32,169,131968,128958,169,169,649008,650514,644008,133488,644008,169,792168,793673,789167,650527,789167,visual_patterns,0,0,0,yes,1366
undefined,undefined,undefined,undefined,white,no,Mozilla,Netscape,"5.0 (Windows NT 10.0; Win64; x64) AppleWebKit/537.36 (KHTML, like Gecko) Chrome/100.0.4896.75 Safari/537.36",xpyriment,legacy,legacy,0,uniform,0,0,0,0,24,24,24,0,0,74,74,74,74,74,0,74,0,25,25,25,25,25,0,25,10-03-22,10-03-22,11:56:10,Sun Apr 10 2022 11:56:10 GMT+0200 (közép-európai nyári idő),The main experiment item,yes,0,0,C:/Users/rrics/Documents/!!ResearchBMECOGSCI/gnet,0,0,0,prototype1.png,no,mono,no,18,no,black,no,no,768,1215,3.5.6,legacy,xpyriment,osweb,1.3.13,0,space,space,space,space,29502,19994,26640,29502,2,legacy,834,1536,24,864,24,0,0,1536,1649584613257,1024,2,48000,-16,experiment,p8sarr4.png,1,odd,Win32,169,131968,128958,169,169,649008,650514,644008,133488,644008,169,796703,798219,793706,650527,793705,visual_patterns,0,0,0,yes,1366
undefined,undefined,undefined,undefined,white,no,Mozilla,Netscape,"5.0 (Windows NT 10.0; Win64; x64) AppleWebKit/537.36 (KHTML, like Gecko) Chrome/100.0.4896.75 Safari/537.36",xpyriment,legacy,legacy,0,uniform,0,0,0,0,24,24,24,0,0,74,74,74,74,74,0,74,0,26,26,26,26,26,0,26,10-03-22,10-03-22,11:56:10,Sun Apr 10 2022 11:56:10 GMT+0200 (közép-európai nyári idő),The main experiment item,yes,0,0,C:/Users/rrics/Documents/!!ResearchBMECOGSCI/gnet,0,0,0,prototype1.png,no,mono,no,18,no,black,no,no,768,1215,3.5.6,legacy,xpyriment,osweb,1.3.13,0,space,space,space,space,29502,19994,26640,29502,2,legacy,834,1536,24,864,24,0,0,1536,1649584613257,1024,2,48000,-16,experiment,p2sarrshacol4.png,1,odd,Win32,169,131968,128958,169,169,649008,650514,644008,133488,644008,169,801254,802764,798257,650527,798257,visual_patterns,0,0,0,yes,1366
undefined,undefined,undefined,undefined,white,no,Mozilla,Netscape,"5.0 (Windows NT 10.0; Win64; x64) AppleWebKit/537.36 (KHTML, like Gecko) Chrome/100.0.4896.75 Safari/537.36",xpyriment,legacy,legacy,0,uniform,0,0,0,0,24,24,24,0,0,74,74,74,74,74,0,74,0,27,27,27,27,27,0,27,10-03-22,10-03-22,11:56:10,Sun Apr 10 2022 11:56:10 GMT+0200 (közép-európai nyári idő),The main experiment item,yes,0,0,C:/Users/rrics/Documents/!!ResearchBMECOGSCI/gnet,0,0,0,prototype1.png,no,mono,no,18,no,black,no,no,768,1215,3.5.6,legacy,xpyriment,osweb,1.3.13,0,space,space,space,space,29502,19994,26640,29502,2,legacy,834,1536,24,864,24,0,0,1536,1649584613257,1024,2,48000,-16,experiment,p4sarrshacol1.png,1,odd,Win32,169,131968,128958,169,169,649008,650514,644008,133488,644008,169,805795,807310,802795,650527,802795,visual_patterns,0,0,0,yes,1366
undefined,undefined,undefined,undefined,white,no,Mozilla,Netscape,"5.0 (Windows NT 10.0; Win64; x64) AppleWebKit/537.36 (KHTML, like Gecko) Chrome/100.0.4896.75 Safari/537.36",xpyriment,legacy,legacy,0,uniform,0,0,0,0,24,24,24,0,0,74,74,74,74,74,0,74,0,28,28,28,28,28,0,28,10-03-22,10-03-22,11:56:10,Sun Apr 10 2022 11:56:10 GMT+0200 (közép-európai nyári idő),The main experiment item,yes,0,0,C:/Users/rrics/Documents/!!ResearchBMECOGSCI/gnet,0,0,0,prototype1.png,no,mono,no,18,no,black,no,no,768,1215,3.5.6,legacy,xpyriment,osweb,1.3.13,0,space,space,space,space,29502,19994,26640,29502,2,legacy,834,1536,24,864,24,0,0,1536,1649584613257,1024,2,48000,-16,experiment,p1sarrshacol3.png,1,odd,Win32,169,131968,128958,169,169,649008,650514,644008,133488,644008,169,810321,811823,807322,650527,807322,visual_patterns,0,0,0,yes,1366
undefined,undefined,undefined,undefined,white,no,Mozilla,Netscape,"5.0 (Windows NT 10.0; Win64; x64) AppleWebKit/537.36 (KHTML, like Gecko) Chrome/100.0.4896.75 Safari/537.36",xpyriment,legacy,legacy,0,uniform,0,0,0,0,24,24,24,0,0,74,74,74,74,74,0,74,0,29,29,29,29,29,0,29,10-03-22,10-03-22,11:56:10,Sun Apr 10 2022 11:56:10 GMT+0200 (közép-európai nyári idő),The main experiment item,yes,0,0,C:/Users/rrics/Documents/!!ResearchBMECOGSCI/gnet,0,0,0,prototype1.png,no,mono,no,18,no,black,no,no,768,1215,3.5.6,legacy,xpyriment,osweb,1.3.13,0,space,space,space,space,29502,19994,26640,29502,2,legacy,834,1536,24,864,24,0,0,1536,1649584613257,1024,2,48000,-16,experiment,p2sarrsha1.png,1,odd,Win32,169,131968,128958,169,169,649008,650514,644008,133488,644008,169,814864,816369,811865,650527,811865,visual_patterns,0,0,0,yes,1366
undefined,undefined,undefined,undefined,white,no,Mozilla,Netscape,"5.0 (Windows NT 10.0; Win64; x64) AppleWebKit/537.36 (KHTML, like Gecko) Chrome/100.0.4896.75 Safari/537.36",xpyriment,legacy,legacy,0,uniform,0,0,0,0,24,24,24,0,0,74,74,74,74,74,0,74,0,30,30,30,30,30,0,30,10-03-22,10-03-22,11:56:10,Sun Apr 10 2022 11:56:10 GMT+0200 (közép-európai nyári idő),The main experiment item,yes,0,0,C:/Users/rrics/Documents/!!ResearchBMECOGSCI/gnet,0,0,0,prototype1.png,no,mono,no,18,no,black,no,no,768,1215,3.5.6,legacy,xpyriment,osweb,1.3.13,0,space,space,space,space,29502,19994,26640,29502,2,legacy,834,1536,24,864,24,0,0,1536,1649584613257,1024,2,48000,-16,experiment,p3sarr2.png,1,odd,Win32,169,131968,128958,169,169,649008,650514,644008,133488,644008,169,819405,820916,816404,650527,816404,visual_patterns,0,0,0,yes,1366
undefined,undefined,undefined,undefined,white,no,Mozilla,Netscape,"5.0 (Windows NT 10.0; Win64; x64) AppleWebKit/537.36 (KHTML, like Gecko) Chrome/100.0.4896.75 Safari/537.36",xpyriment,legacy,legacy,0,uniform,0,0,0,0,24,24,24,0,0,74,74,74,74,74,0,74,0,31,31,31,31,31,0,31,10-03-22,10-03-22,11:56:10,Sun Apr 10 2022 11:56:10 GMT+0200 (közép-európai nyári idő),The main experiment item,yes,0,0,C:/Users/rrics/Documents/!!ResearchBMECOGSCI/gnet,0,0,0,prototype1.png,no,mono,no,18,no,black,no,no,768,1215,3.5.6,legacy,xpyriment,osweb,1.3.13,0,space,space,space,space,29502,19994,26640,29502,2,legacy,834,1536,24,864,24,0,0,1536,1649584613257,1024,2,48000,-16,experiment,p3sarrshacol3.png,1,odd,Win32,169,131968,128958,169,169,649008,650514,644008,133488,644008,169,823947,825462,820950,650527,820950,visual_patterns,0,0,0,yes,1366
undefined,undefined,undefined,undefined,white,no,Mozilla,Netscape,"5.0 (Windows NT 10.0; Win64; x64) AppleWebKit/537.36 (KHTML, like Gecko) Chrome/100.0.4896.75 Safari/537.36",xpyriment,legacy,legacy,0,uniform,0,0,0,0,24,24,24,0,0,74,74,74,74,74,0,74,0,32,32,32,32,32,0,32,10-03-22,10-03-22,11:56:10,Sun Apr 10 2022 11:56:10 GMT+0200 (közép-európai nyári idő),The main experiment item,yes,0,0,C:/Users/rrics/Documents/!!ResearchBMECOGSCI/gnet,0,0,0,prototype1.png,no,mono,no,18,no,black,no,no,768,1215,3.5.6,legacy,xpyriment,osweb,1.3.13,0,space,space,space,space,29502,19994,26640,29502,2,legacy,834,1536,24,864,24,0,0,1536,1649584613257,1024,2,48000,-16,experiment,p2sarrcol4.png,1,odd,Win32,169,131968,128958,169,169,649008,650514,644008,133488,644008,169,828491,829992,825491,650527,825491,visual_patterns,0,0,0,yes,1366
undefined,undefined,undefined,undefined,white,no,Mozilla,Netscape,"5.0 (Windows NT 10.0; Win64; x64) AppleWebKit/537.36 (KHTML, like Gecko) Chrome/100.0.4896.75 Safari/537.36",xpyriment,legacy,legacy,0,uniform,0,0,0,0,24,24,24,0,0,74,74,74,74,74,0,74,0,33,33,33,33,33,0,33,10-03-22,10-03-22,11:56:10,Sun Apr 10 2022 11:56:10 GMT+0200 (közép-európai nyári idő),The main experiment item,yes,0,0,C:/Users/rrics/Documents/!!ResearchBMECOGSCI/gnet,0,0,0,prototype1.png,no,mono,no,18,no,black,no,no,768,1215,3.5.6,legacy,xpyriment,osweb,1.3.13,0,space,space,space,space,29502,19994,26640,29502,2,legacy,834,1536,24,864,24,0,0,1536,1649584613257,1024,2,48000,-16,experiment,p5sarrcol1.png,1,odd,Win32,169,131968,128958,169,169,649008,650514,644008,133488,644008,169,833004,834520,830002,650527,830002,visual_patterns,0,0,0,yes,1366
undefined,undefined,undefined,undefined,white,no,Mozilla,Netscape,"5.0 (Windows NT 10.0; Win64; x64) AppleWebKit/537.36 (KHTML, like Gecko) Chrome/100.0.4896.75 Safari/537.36",xpyriment,legacy,legacy,0,uniform,0,0,0,0,24,24,24,0,0,74,74,74,74,74,0,74,0,34,34,34,34,34,0,34,10-03-22,10-03-22,11:56:10,Sun Apr 10 2022 11:56:10 GMT+0200 (közép-európai nyári idő),The main experiment item,yes,0,0,C:/Users/rrics/Documents/!!ResearchBMECOGSCI/gnet,0,0,0,prototype1.png,no,mono,no,18,no,black,no,no,768,1215,3.5.6,legacy,xpyriment,osweb,1.3.13,0,space,space,space,space,29502,19994,26640,29502,2,legacy,834,1536,24,864,24,0,0,1536,1649584613257,1024,2,48000,-16,experiment,p8sarr2.png,1,odd,Win32,169,131968,128958,169,169,649008,650514,644008,133488,644008,169,837576,839083,834575,650527,834575,visual_patterns,0,0,0,yes,1366
undefined,undefined,undefined,undefined,white,no,Mozilla,Netscape,"5.0 (Windows NT 10.0; Win64; x64) AppleWebKit/537.36 (KHTML, like Gecko) Chrome/100.0.4896.75 Safari/537.36",xpyriment,legacy,legacy,0,uniform,0,0,0,0,24,24,24,0,0,74,74,74,74,74,0,74,0,35,35,35,35,35,0,35,10-03-22,10-03-22,11:56:10,Sun Apr 10 2022 11:56:10 GMT+0200 (közép-európai nyári idő),The main experiment item,yes,0,0,C:/Users/rrics/Documents/!!ResearchBMECOGSCI/gnet,0,0,0,prototype1.png,no,mono,no,18,no,black,no,no,768,1215,3.5.6,legacy,xpyriment,osweb,1.3.13,0,space,space,space,space,29502,19994,26640,29502,2,legacy,834,1536,24,864,24,0,0,1536,1649584613257,1024,2,48000,-16,experiment,p5sarr3.png,1,odd,Win32,169,131968,128958,169,169,649008,650514,644008,133488,644008,169,842121,843629,839125,650527,839125,visual_patterns,0,0,0,yes,1366
undefined,undefined,undefined,undefined,white,no,Mozilla,Netscape,"5.0 (Windows NT 10.0; Win64; x64) AppleWebKit/537.36 (KHTML, like Gecko) Chrome/100.0.4896.75 Safari/537.36",xpyriment,legacy,legacy,0,uniform,0,0,0,0,24,24,24,0,0,74,74,74,74,74,0,74,0,36,36,36,36,36,0,36,10-03-22,10-03-22,11:56:10,Sun Apr 10 2022 11:56:10 GMT+0200 (közép-európai nyári idő),The main experiment item,yes,0,0,C:/Users/rrics/Documents/!!ResearchBMECOGSCI/gnet,0,0,0,prototype1.png,no,mono,no,18,no,black,no,no,768,1215,3.5.6,legacy,xpyriment,osweb,1.3.13,0,space,space,space,space,29502,19994,26640,29502,2,legacy,834,1536,24,864,24,0,0,1536,1649584613257,1024,2,48000,-16,experiment,p7sarr1.png,1,odd,Win32,169,131968,128958,169,169,649008,650514,644008,133488,644008,169,846665,848174,843665,650527,843665,visual_patterns,0,0,0,yes,1366
undefined,undefined,undefined,undefined,white,no,Mozilla,Netscape,"5.0 (Windows NT 10.0; Win64; x64) AppleWebKit/537.36 (KHTML, like Gecko) Chrome/100.0.4896.75 Safari/537.36",xpyriment,legacy,legacy,0,uniform,0,0,0,0,24,24,24,0,0,74,74,74,74,74,0,74,0,37,37,37,37,37,0,37,10-03-22,10-03-22,11:56:10,Sun Apr 10 2022 11:56:10 GMT+0200 (közép-európai nyári idő),The main experiment item,yes,0,0,C:/Users/rrics/Documents/!!ResearchBMECOGSCI/gnet,0,0,0,prototype1.png,no,mono,no,18,no,black,no,no,768,1215,3.5.6,legacy,xpyriment,osweb,1.3.13,0,space,space,space,space,29502,19994,26640,29502,2,legacy,834,1536,24,864,24,0,0,1536,1649584613257,1024,2,48000,-16,experiment,p1sarrcol4.png,1,odd,Win32,169,131968,128958,169,169,649008,650514,644008,133488,644008,169,851186,852688,848185,650527,848185,visual_patterns,0,0,0,yes,1366
undefined,undefined,undefined,undefined,white,no,Mozilla,Netscape,"5.0 (Windows NT 10.0; Win64; x64) AppleWebKit/537.36 (KHTML, like Gecko) Chrome/100.0.4896.75 Safari/537.36",xpyriment,legacy,legacy,0,uniform,0,0,0,0,24,24,24,0,0,74,74,74,74,74,0,74,0,38,38,38,38,38,0,38,10-03-22,10-03-22,11:56:10,Sun Apr 10 2022 11:56:10 GMT+0200 (közép-európai nyári idő),The main experiment item,yes,0,0,C:/Users/rrics/Documents/!!ResearchBMECOGSCI/gnet,0,0,0,prototype1.png,no,mono,no,18,no,black,no,no,768,1215,3.5.6,legacy,xpyriment,osweb,1.3.13,0,space,space,space,space,29502,19994,26640,29502,2,legacy,834,1536,24,864,24,0,0,1536,1649584613257,1024,2,48000,-16,experiment,p3sarrsha4.png,1,odd,Win32,169,131968,128958,169,169,649008,650514,644008,133488,644008,169,855727,857234,852728,650527,852728,visual_patterns,0,0,0,yes,1366
undefined,undefined,undefined,undefined,white,no,Mozilla,Netscape,"5.0 (Windows NT 10.0; Win64; x64) AppleWebKit/537.36 (KHTML, like Gecko) Chrome/100.0.4896.75 Safari/537.36",xpyriment,legacy,legacy,0,uniform,0,0,0,0,24,24,24,0,0,74,74,74,74,74,0,74,0,39,39,39,39,39,0,39,10-03-22,10-03-22,11:56:10,Sun Apr 10 2022 11:56:10 GMT+0200 (közép-európai nyári idő),The main experiment item,yes,0,0,C:/Users/rrics/Documents/!!ResearchBMECOGSCI/gnet,0,0,0,prototype1.png,no,mono,no,18,no,black,no,no,768,1215,3.5.6,legacy,xpyriment,osweb,1.3.13,0,space,space,space,space,29502,19994,26640,29502,2,legacy,834,1536,24,864,24,0,0,1536,1649584613257,1024,2,48000,-16,experiment,p3sarr1.png,1,odd,Win32,169,131968,128958,169,169,649008,650514,644008,133488,644008,169,860286,861797,857286,650527,857286,visual_patterns,0,0,0,yes,1366
undefined,undefined,undefined,undefined,white,no,Mozilla,Netscape,"5.0 (Windows NT 10.0; Win64; x64) AppleWebKit/537.36 (KHTML, like Gecko) Chrome/100.0.4896.75 Safari/537.36",xpyriment,legacy,legacy,0,uniform,0,0,0,0,24,24,24,0,0,74,74,74,74,74,0,74,0,40,40,40,40,40,0,40,10-03-22,10-03-22,11:56:10,Sun Apr 10 2022 11:56:10 GMT+0200 (közép-európai nyári idő),The main experiment item,yes,0,0,C:/Users/rrics/Documents/!!ResearchBMECOGSCI/gnet,0,0,0,prototype1.png,no,mono,no,18,no,black,no,no,768,1215,3.5.6,legacy,xpyriment,osweb,1.3.13,0,space,space,space,space,29502,19994,26640,29502,2,legacy,834,1536,24,864,24,0,0,1536,1649584613257,1024,2,48000,-16,experiment,p2sarrsha3.png,1,odd,Win32,169,131968,128958,169,169,649008,650514,644008,133488,644008,169,864836,866343,861835,650527,861835,visual_patterns,0,0,0,yes,1366
undefined,undefined,undefined,undefined,white,no,Mozilla,Netscape,"5.0 (Windows NT 10.0; Win64; x64) AppleWebKit/537.36 (KHTML, like Gecko) Chrome/100.0.4896.75 Safari/537.36",xpyriment,legacy,legacy,0,uniform,0,0,0,0,24,24,24,0,0,74,74,74,74,74,0,74,0,41,41,41,41,41,0,41,10-03-22,10-03-22,11:56:10,Sun Apr 10 2022 11:56:10 GMT+0200 (közép-európai nyári idő),The main experiment item,yes,0,0,C:/Users/rrics/Documents/!!ResearchBMECOGSCI/gnet,0,0,0,prototype1.png,no,mono,no,18,no,black,no,no,768,1215,3.5.6,legacy,xpyriment,osweb,1.3.13,0,space,space,space,space,29502,19994,26640,29502,2,legacy,834,1536,24,864,24,0,0,1536,1649584613257,1024,2,48000,-16,experiment,p9sarr3.png,1,odd,Win32,169,131968,128958,169,169,649008,650514,644008,133488,644008,169,869374,870889,866375,650527,866375,visual_patterns,0,0,0,yes,1366
undefined,undefined,undefined,undefined,white,no,Mozilla,Netscape,"5.0 (Windows NT 10.0; Win64; x64) AppleWebKit/537.36 (KHTML, like Gecko) Chrome/100.0.4896.75 Safari/537.36",xpyriment,legacy,legacy,0,uniform,0,0,0,0,24,24,24,0,0,74,74,74,74,74,0,74,0,42,42,42,42,42,0,42,10-03-22,10-03-22,11:56:10,Sun Apr 10 2022 11:56:10 GMT+0200 (közép-európai nyári idő),The main experiment item,yes,0,0,C:/Users/rrics/Documents/!!ResearchBMECOGSCI/gnet,0,0,0,prototype1.png,no,mono,no,18,no,black,no,no,768,1215,3.5.6,legacy,xpyriment,osweb,1.3.13,0,space,space,space,space,29502,19994,26640,29502,2,legacy,834,1536,24,864,24,0,0,1536,1649584613257,1024,2,48000,-16,experiment,p10sarr4.png,1,odd,Win32,169,131968,128958,169,169,649008,650514,644008,133488,644008,169,873925,875435,870924,650527,870924,visual_patterns,0,0,0,yes,1366
undefined,undefined,undefined,undefined,white,no,Mozilla,Netscape,"5.0 (Windows NT 10.0; Win64; x64) AppleWebKit/537.36 (KHTML, like Gecko) Chrome/100.0.4896.75 Safari/537.36",xpyriment,legacy,legacy,0,uniform,0,0,0,0,24,24,24,0,0,74,74,74,74,74,0,74,0,43,43,43,43,43,0,43,10-03-22,10-03-22,11:56:10,Sun Apr 10 2022 11:56:10 GMT+0200 (közép-európai nyári idő),The main experiment item,yes,0,0,C:/Users/rrics/Documents/!!ResearchBMECOGSCI/gnet,0,0,0,prototype1.png,no,mono,no,18,no,black,no,no,768,1215,3.5.6,legacy,xpyriment,osweb,1.3.13,0,space,space,space,space,29502,19994,26640,29502,2,legacy,834,1536,24,864,24,0,0,1536,1649584613257,1024,2,48000,-16,experiment,p4sarrcol1.png,1,odd,Win32,169,131968,128958,169,169,649008,650514,644008,133488,644008,169,878467,879981,875468,650527,875468,visual_patterns,0,0,0,yes,1366
undefined,undefined,undefined,undefined,white,no,Mozilla,Netscape,"5.0 (Windows NT 10.0; Win64; x64) AppleWebKit/537.36 (KHTML, like Gecko) Chrome/100.0.4896.75 Safari/537.36",xpyriment,legacy,legacy,0,uniform,0,0,0,0,24,24,24,0,0,74,74,74,74,74,0,74,0,44,44,44,44,44,0,44,10-03-22,10-03-22,11:56:10,Sun Apr 10 2022 11:56:10 GMT+0200 (közép-európai nyári idő),The main experiment item,yes,0,0,C:/Users/rrics/Documents/!!ResearchBMECOGSCI/gnet,0,0,0,prototype1.png,no,mono,no,18,no,black,no,no,768,1215,3.5.6,legacy,xpyriment,osweb,1.3.13,0,space,space,space,space,29502,19994,26640,29502,2,legacy,834,1536,24,864,24,0,0,1536,1649584613257,1024,2,48000,-16,experiment,p5sarrshacol4.png,1,odd,Win32,169,131968,128958,169,169,649008,650514,644008,133488,644008,169,883036,884543,880037,650527,880037,visual_patterns,0,0,0,yes,1366
undefined,undefined,undefined,undefined,white,no,Mozilla,Netscape,"5.0 (Windows NT 10.0; Win64; x64) AppleWebKit/537.36 (KHTML, like Gecko) Chrome/100.0.4896.75 Safari/537.36",xpyriment,legacy,legacy,0,uniform,0,0,0,0,24,24,24,0,0,74,74,74,74,74,0,74,0,45,45,45,45,45,0,45,10-03-22,10-03-22,11:56:10,Sun Apr 10 2022 11:56:10 GMT+0200 (közép-európai nyári idő),The main experiment item,yes,0,0,C:/Users/rrics/Documents/!!ResearchBMECOGSCI/gnet,0,0,0,prototype1.png,no,mono,no,18,no,black,no,no,768,1215,3.5.6,legacy,xpyriment,osweb,1.3.13,0,space,space,space,space,29502,19994,26640,29502,2,legacy,834,1536,24,864,24,0,0,1536,1649584613257,1024,2,48000,-16,experiment,p3sarr3.png,1,odd,Win32,169,131968,128958,169,169,649008,650514,644008,133488,644008,169,887574,889090,884583,650527,884583,visual_patterns,0,0,0,yes,1366
undefined,undefined,undefined,undefined,white,no,Mozilla,Netscape,"5.0 (Windows NT 10.0; Win64; x64) AppleWebKit/537.36 (KHTML, like Gecko) Chrome/100.0.4896.75 Safari/537.36",xpyriment,legacy,legacy,0,uniform,0,0,0,0,24,24,24,0,0,74,74,74,74,74,0,74,0,46,46,46,46,46,0,46,10-03-22,10-03-22,11:56:10,Sun Apr 10 2022 11:56:10 GMT+0200 (közép-európai nyári idő),The main experiment item,yes,0,0,C:/Users/rrics/Documents/!!ResearchBMECOGSCI/gnet,0,0,0,prototype1.png,no,mono,no,18,no,black,no,no,768,1215,3.5.6,legacy,xpyriment,osweb,1.3.13,0,space,space,space,space,29502,19994,26640,29502,2,legacy,834,1536,24,864,24,0,0,1536,1649584613257,1024,2,48000,-16,experiment,p2sarr3.png,1,odd,Win32,169,131968,128958,169,169,649008,650514,644008,133488,644008,169,892117,893619,889117,650527,889117,visual_patterns,0,0,0,yes,1366
undefined,undefined,undefined,undefined,white,no,Mozilla,Netscape,"5.0 (Windows NT 10.0; Win64; x64) AppleWebKit/537.36 (KHTML, like Gecko) Chrome/100.0.4896.75 Safari/537.36",xpyriment,legacy,legacy,0,uniform,0,0,0,0,24,24,24,0,0,74,74,74,74,74,0,74,0,47,47,47,47,47,0,47,10-03-22,10-03-22,11:56:10,Sun Apr 10 2022 11:56:10 GMT+0200 (közép-európai nyári idő),The main experiment item,yes,0,0,C:/Users/rrics/Documents/!!ResearchBMECOGSCI/gnet,0,0,0,prototype1.png,no,mono,no,18,no,black,no,no,768,1215,3.5.6,legacy,xpyriment,osweb,1.3.13,0,space,space,space,space,29502,19994,26640,29502,2,legacy,834,1536,24,864,24,0,0,1536,1649584613257,1024,2,48000,-16,experiment,p4sarr2.png,1,odd,Win32,169,131968,128958,169,169,649008,650514,644008,133488,644008,169,896654,898165,893653,650527,893653,visual_patterns,0,0,0,yes,1366
