acc,accuracy,average_response_time,avg_rt,background,bidi,browser_codename,browser_name,browser_version,canvas_backend,clock_backend,color_backend,compensation,coordinates,count_end,count_experiment,count_osweb,count_prestudy,count_prestudy_isi,count_prestudy_sequence,count_prestudy_stimpres,count_start,count_study,count_study_coroutines,count_study_isi,count_study_logger,count_study_response,count_study_sequence,count_study_start,count_study_stimpres,count_test,count_test_coroutines,count_test_isi,count_test_logger,count_test_response,count_test_sequence,count_test_start,count_test_stimpres,date_startdate,date_startdateUTC,date_starttime,datetime,description,disable_garbage_collection,experiment_debug,experiment_parameters,experiment_path,experiment_pilot,experiment_taskname,experiment_taskversion,fampict,font_bold,font_family,font_italic,font_size,font_underline,foreground,form_clicks,fullscreen,height,jatosStudyResultId,jatosVersion,keyboard_backend,mouse_backend,opensesame_codename,opensesame_version,repeat_cycle,response,response_start,response_study_start,response_test_start,response_time,response_time_start,response_time_study_start,response_time_test_start,round_decimals,sampler_backend,screen_availableHeight,screen_availableWidth,screen_colorDepth,screen_height,screen_pixelDepth,screen_screenX,screen_screenY,screen_width,sessionid,sound_buf_size,sound_channels,sound_freq,sound_sample_size,start,stim,subject_nr,subject_parity,system_os,time_prestudy,time_prestudy_isi,time_prestudy_stimpres,time_start,time_study,time_study_isi,time_study_logger,time_study_response,time_study_start,time_study_stimpres,time_test,time_test_isi,time_test_logger,time_test_response,time_test_start,time_test_stimpres,title,total_correct,total_response_time,total_responses,uniform_coordinates,width
undefined,undefined,undefined,undefined,white,no,Mozilla,Netscape,"5.0 (Windows NT 10.0; Win64; x64) AppleWebKit/537.36 (KHTML, like Gecko) Chrome/100.0.4896.88 Safari/537.36",xpyriment,legacy,legacy,0,uniform,0,0,0,0,24,24,24,0,0,0,0,0,0,0,0,0,0,,,,,,0,,14-03-22,14-03-22,21:07:07,Thu Apr 14 2022 21:07:07 GMT+0200 (közép-európai nyári idő),The main experiment item,yes,0,0,C:/Users/rrics/Documents/!!ResearchBMECOGSCI/gnet,0,0,0,prototype4.png,no,mono,no,18,no,black,no,no,768,1218,3.5.6,legacy,xpyriment,osweb,1.3.13,0,right,space,right,,24701,28021,24701,,2,legacy,824,1536,24,864,24,0,0,1536,1649963319353,1024,2,48000,-16,experiment,p6sarr1.png,0,even,Win32,98,139904,136889,98,98,171140,172650,166138,141422,166138,98,,,,,,visual_patterns,0,0,0,yes,1366
undefined,undefined,undefined,undefined,white,no,Mozilla,Netscape,"5.0 (Windows NT 10.0; Win64; x64) AppleWebKit/537.36 (KHTML, like Gecko) Chrome/100.0.4896.88 Safari/537.36",xpyriment,legacy,legacy,0,uniform,0,0,0,0,24,24,24,0,0,1,1,1,1,1,0,1,0,,,,,,0,,14-03-22,14-03-22,21:07:07,Thu Apr 14 2022 21:07:07 GMT+0200 (közép-európai nyári idő),The main experiment item,yes,0,0,C:/Users/rrics/Documents/!!ResearchBMECOGSCI/gnet,0,0,0,prototype4.png,no,mono,no,18,no,black,no,no,768,1218,3.5.6,legacy,xpyriment,osweb,1.3.13,0,right,space,right,,24701,28021,24701,,2,legacy,824,1536,24,864,24,0,0,1536,1649963319353,1024,2,48000,-16,experiment,prototype3.png,0,even,Win32,98,139904,136889,98,98,177658,179164,172657,141422,172657,98,,,,,,visual_patterns,0,0,0,yes,1366
undefined,undefined,undefined,undefined,white,no,Mozilla,Netscape,"5.0 (Windows NT 10.0; Win64; x64) AppleWebKit/537.36 (KHTML, like Gecko) Chrome/100.0.4896.88 Safari/537.36",xpyriment,legacy,legacy,0,uniform,0,0,0,0,24,24,24,0,0,2,2,2,2,2,0,2,0,,,,,,0,,14-03-22,14-03-22,21:07:07,Thu Apr 14 2022 21:07:07 GMT+0200 (közép-európai nyári idő),The main experiment item,yes,0,0,C:/Users/rrics/Documents/!!ResearchBMECOGSCI/gnet,0,0,0,prototype4.png,no,mono,no,18,no,black,no,no,768,1218,3.5.6,legacy,xpyriment,osweb,1.3.13,0,right,space,right,,24701,28021,24701,,2,legacy,824,1536,24,864,24,0,0,1536,1649963319353,1024,2,48000,-16,experiment,p3sarr1.png,0,even,Win32,98,139904,136889,98,98,184175,185680,179173,141422,179173,98,,,,,,visual_patterns,0,0,0,yes,1366
undefined,undefined,undefined,undefined,white,no,Mozilla,Netscape,"5.0 (Windows NT 10.0; Win64; x64) AppleWebKit/537.36 (KHTML, like Gecko) Chrome/100.0.4896.88 Safari/537.36",xpyriment,legacy,legacy,0,uniform,0,0,0,0,24,24,24,0,0,3,3,3,3,3,0,3,0,,,,,,0,,14-03-22,14-03-22,21:07:07,Thu Apr 14 2022 21:07:07 GMT+0200 (közép-európai nyári idő),The main experiment item,yes,0,0,C:/Users/rrics/Documents/!!ResearchBMECOGSCI/gnet,0,0,0,prototype4.png,no,mono,no,18,no,black,no,no,768,1218,3.5.6,legacy,xpyriment,osweb,1.3.13,0,right,space,right,,24701,28021,24701,,2,legacy,824,1536,24,864,24,0,0,1536,1649963319353,1024,2,48000,-16,experiment,p9sarr2.png,0,even,Win32,98,139904,136889,98,98,190693,192196,185690,141422,185690,98,,,,,,visual_patterns,0,0,0,yes,1366
undefined,undefined,undefined,undefined,white,no,Mozilla,Netscape,"5.0 (Windows NT 10.0; Win64; x64) AppleWebKit/537.36 (KHTML, like Gecko) Chrome/100.0.4896.88 Safari/537.36",xpyriment,legacy,legacy,0,uniform,0,0,0,0,24,24,24,0,0,4,4,4,4,4,0,4,0,,,,,,0,,14-03-22,14-03-22,21:07:07,Thu Apr 14 2022 21:07:07 GMT+0200 (közép-európai nyári idő),The main experiment item,yes,0,0,C:/Users/rrics/Documents/!!ResearchBMECOGSCI/gnet,0,0,0,prototype4.png,no,mono,no,18,no,black,no,no,768,1218,3.5.6,legacy,xpyriment,osweb,1.3.13,0,right,space,right,,24701,28021,24701,,2,legacy,824,1536,24,864,24,0,0,1536,1649963319353,1024,2,48000,-16,experiment,p4sarr2.png,0,even,Win32,98,139904,136889,98,98,197211,198712,192205,141422,192205,98,,,,,,visual_patterns,0,0,0,yes,1366
undefined,undefined,undefined,undefined,white,no,Mozilla,Netscape,"5.0 (Windows NT 10.0; Win64; x64) AppleWebKit/537.36 (KHTML, like Gecko) Chrome/100.0.4896.88 Safari/537.36",xpyriment,legacy,legacy,0,uniform,0,0,0,0,24,24,24,0,0,5,5,5,5,5,0,5,0,,,,,,0,,14-03-22,14-03-22,21:07:07,Thu Apr 14 2022 21:07:07 GMT+0200 (közép-európai nyári idő),The main experiment item,yes,0,0,C:/Users/rrics/Documents/!!ResearchBMECOGSCI/gnet,0,0,0,prototype4.png,no,mono,no,18,no,black,no,no,768,1218,3.5.6,legacy,xpyriment,osweb,1.3.13,0,right,space,right,,24701,28021,24701,,2,legacy,824,1536,24,864,24,0,0,1536,1649963319353,1024,2,48000,-16,experiment,p4sarrshacol2.png,0,even,Win32,98,139904,136889,98,98,203722,205228,198721,141422,198721,98,,,,,,visual_patterns,0,0,0,yes,1366
undefined,undefined,undefined,undefined,white,no,Mozilla,Netscape,"5.0 (Windows NT 10.0; Win64; x64) AppleWebKit/537.36 (KHTML, like Gecko) Chrome/100.0.4896.88 Safari/537.36",xpyriment,legacy,legacy,0,uniform,0,0,0,0,24,24,24,0,0,6,6,6,6,6,0,6,0,,,,,,0,,14-03-22,14-03-22,21:07:07,Thu Apr 14 2022 21:07:07 GMT+0200 (közép-európai nyári idő),The main experiment item,yes,0,0,C:/Users/rrics/Documents/!!ResearchBMECOGSCI/gnet,0,0,0,prototype4.png,no,mono,no,18,no,black,no,no,768,1218,3.5.6,legacy,xpyriment,osweb,1.3.13,0,right,space,right,,24701,28021,24701,,2,legacy,824,1536,24,864,24,0,0,1536,1649963319353,1024,2,48000,-16,experiment,p5sarrsha2.png,0,even,Win32,98,139904,136889,98,98,210240,211744,205237,141422,205237,98,,,,,,visual_patterns,0,0,0,yes,1366
undefined,undefined,undefined,undefined,white,no,Mozilla,Netscape,"5.0 (Windows NT 10.0; Win64; x64) AppleWebKit/537.36 (KHTML, like Gecko) Chrome/100.0.4896.88 Safari/537.36",xpyriment,legacy,legacy,0,uniform,0,0,0,0,24,24,24,0,0,7,7,7,7,7,0,7,0,,,,,,0,,14-03-22,14-03-22,21:07:07,Thu Apr 14 2022 21:07:07 GMT+0200 (közép-európai nyári idő),The main experiment item,yes,0,0,C:/Users/rrics/Documents/!!ResearchBMECOGSCI/gnet,0,0,0,prototype4.png,no,mono,no,18,no,black,no,no,768,1218,3.5.6,legacy,xpyriment,osweb,1.3.13,0,right,space,right,,24701,28021,24701,,2,legacy,824,1536,24,864,24,0,0,1536,1649963319353,1024,2,48000,-16,experiment,p2sarr1.png,0,even,Win32,98,139904,136889,98,98,216752,218260,211752,141422,211752,98,,,,,,visual_patterns,0,0,0,yes,1366
undefined,undefined,undefined,undefined,white,no,Mozilla,Netscape,"5.0 (Windows NT 10.0; Win64; x64) AppleWebKit/537.36 (KHTML, like Gecko) Chrome/100.0.4896.88 Safari/537.36",xpyriment,legacy,legacy,0,uniform,0,0,0,0,24,24,24,0,0,8,8,8,8,8,0,8,0,,,,,,0,,14-03-22,14-03-22,21:07:07,Thu Apr 14 2022 21:07:07 GMT+0200 (közép-európai nyári idő),The main experiment item,yes,0,0,C:/Users/rrics/Documents/!!ResearchBMECOGSCI/gnet,0,0,0,prototype4.png,no,mono,no,18,no,black,no,no,768,1218,3.5.6,legacy,xpyriment,osweb,1.3.13,0,right,space,right,,24701,28021,24701,,2,legacy,824,1536,24,864,24,0,0,1536,1649963319353,1024,2,48000,-16,experiment,prototype4.png,0,even,Win32,98,139904,136889,98,98,223287,224792,218276,141422,218276,98,,,,,,visual_patterns,0,0,0,yes,1366
undefined,undefined,undefined,undefined,white,no,Mozilla,Netscape,"5.0 (Windows NT 10.0; Win64; x64) AppleWebKit/537.36 (KHTML, like Gecko) Chrome/100.0.4896.88 Safari/537.36",xpyriment,legacy,legacy,0,uniform,0,0,0,0,24,24,24,0,0,9,9,9,9,9,0,9,0,,,,,,0,,14-03-22,14-03-22,21:07:07,Thu Apr 14 2022 21:07:07 GMT+0200 (közép-európai nyári idő),The main experiment item,yes,0,0,C:/Users/rrics/Documents/!!ResearchBMECOGSCI/gnet,0,0,0,prototype4.png,no,mono,no,18,no,black,no,no,768,1218,3.5.6,legacy,xpyriment,osweb,1.3.13,0,right,space,right,,24701,28021,24701,,2,legacy,824,1536,24,864,24,0,0,1536,1649963319353,1024,2,48000,-16,experiment,p5sarrsha1.png,0,even,Win32,98,139904,136889,98,98,229801,231308,224802,141422,224802,98,,,,,,visual_patterns,0,0,0,yes,1366
undefined,undefined,undefined,undefined,white,no,Mozilla,Netscape,"5.0 (Windows NT 10.0; Win64; x64) AppleWebKit/537.36 (KHTML, like Gecko) Chrome/100.0.4896.88 Safari/537.36",xpyriment,legacy,legacy,0,uniform,0,0,0,0,24,24,24,0,0,10,10,10,10,10,0,10,0,,,,,,0,,14-03-22,14-03-22,21:07:07,Thu Apr 14 2022 21:07:07 GMT+0200 (közép-európai nyári idő),The main experiment item,yes,0,0,C:/Users/rrics/Documents/!!ResearchBMECOGSCI/gnet,0,0,0,prototype4.png,no,mono,no,18,no,black,no,no,768,1218,3.5.6,legacy,xpyriment,osweb,1.3.13,0,right,space,right,,24701,28021,24701,,2,legacy,824,1536,24,864,24,0,0,1536,1649963319353,1024,2,48000,-16,experiment,p5sarrcol1.png,0,even,Win32,98,139904,136889,98,98,236323,237824,231316,141422,231316,98,,,,,,visual_patterns,0,0,0,yes,1366
undefined,undefined,undefined,undefined,white,no,Mozilla,Netscape,"5.0 (Windows NT 10.0; Win64; x64) AppleWebKit/537.36 (KHTML, like Gecko) Chrome/100.0.4896.88 Safari/537.36",xpyriment,legacy,legacy,0,uniform,0,0,0,0,24,24,24,0,0,11,11,11,11,11,0,11,0,,,,,,0,,14-03-22,14-03-22,21:07:07,Thu Apr 14 2022 21:07:07 GMT+0200 (közép-európai nyári idő),The main experiment item,yes,0,0,C:/Users/rrics/Documents/!!ResearchBMECOGSCI/gnet,0,0,0,prototype4.png,no,mono,no,18,no,black,no,no,768,1218,3.5.6,legacy,xpyriment,osweb,1.3.13,0,right,space,right,,24701,28021,24701,,2,legacy,824,1536,24,864,24,0,0,1536,1649963319353,1024,2,48000,-16,experiment,p8sarr2.png,0,even,Win32,98,139904,136889,98,98,242835,244340,237832,141422,237832,98,,,,,,visual_patterns,0,0,0,yes,1366
undefined,undefined,undefined,undefined,white,no,Mozilla,Netscape,"5.0 (Windows NT 10.0; Win64; x64) AppleWebKit/537.36 (KHTML, like Gecko) Chrome/100.0.4896.88 Safari/537.36",xpyriment,legacy,legacy,0,uniform,0,0,0,0,24,24,24,0,0,12,12,12,12,12,0,12,0,,,,,,0,,14-03-22,14-03-22,21:07:07,Thu Apr 14 2022 21:07:07 GMT+0200 (közép-európai nyári idő),The main experiment item,yes,0,0,C:/Users/rrics/Documents/!!ResearchBMECOGSCI/gnet,0,0,0,prototype4.png,no,mono,no,18,no,black,no,no,768,1218,3.5.6,legacy,xpyriment,osweb,1.3.13,0,right,space,right,,24701,28021,24701,,2,legacy,824,1536,24,864,24,0,0,1536,1649963319353,1024,2,48000,-16,experiment,p5sarrshacol2.png,0,even,Win32,98,139904,136889,98,98,249351,250856,244348,141422,244348,98,,,,,,visual_patterns,0,0,0,yes,1366
undefined,undefined,undefined,undefined,white,no,Mozilla,Netscape,"5.0 (Windows NT 10.0; Win64; x64) AppleWebKit/537.36 (KHTML, like Gecko) Chrome/100.0.4896.88 Safari/537.36",xpyriment,legacy,legacy,0,uniform,0,0,0,0,24,24,24,0,0,13,13,13,13,13,0,13,0,,,,,,0,,14-03-22,14-03-22,21:07:07,Thu Apr 14 2022 21:07:07 GMT+0200 (közép-európai nyári idő),The main experiment item,yes,0,0,C:/Users/rrics/Documents/!!ResearchBMECOGSCI/gnet,0,0,0,prototype4.png,no,mono,no,18,no,black,no,no,768,1218,3.5.6,legacy,xpyriment,osweb,1.3.13,0,right,space,right,,24701,28021,24701,,2,legacy,824,1536,24,864,24,0,0,1536,1649963319353,1024,2,48000,-16,experiment,p8sarr1.png,0,even,Win32,98,139904,136889,98,98,255868,257371,250867,141422,250867,98,,,,,,visual_patterns,0,0,0,yes,1366
undefined,undefined,undefined,undefined,white,no,Mozilla,Netscape,"5.0 (Windows NT 10.0; Win64; x64) AppleWebKit/537.36 (KHTML, like Gecko) Chrome/100.0.4896.88 Safari/537.36",xpyriment,legacy,legacy,0,uniform,0,0,0,0,24,24,24,0,0,14,14,14,14,14,0,14,0,,,,,,0,,14-03-22,14-03-22,21:07:07,Thu Apr 14 2022 21:07:07 GMT+0200 (közép-európai nyári idő),The main experiment item,yes,0,0,C:/Users/rrics/Documents/!!ResearchBMECOGSCI/gnet,0,0,0,prototype4.png,no,mono,no,18,no,black,no,no,768,1218,3.5.6,legacy,xpyriment,osweb,1.3.13,0,right,space,right,,24701,28021,24701,,2,legacy,824,1536,24,864,24,0,0,1536,1649963319353,1024,2,48000,-16,experiment,p3sarrcol1.png,0,even,Win32,98,139904,136889,98,98,262383,263887,257380,141422,257380,98,,,,,,visual_patterns,0,0,0,yes,1366
undefined,undefined,undefined,undefined,white,no,Mozilla,Netscape,"5.0 (Windows NT 10.0; Win64; x64) AppleWebKit/537.36 (KHTML, like Gecko) Chrome/100.0.4896.88 Safari/537.36",xpyriment,legacy,legacy,0,uniform,0,0,0,0,24,24,24,0,0,15,15,15,15,15,0,15,0,,,,,,0,,14-03-22,14-03-22,21:07:07,Thu Apr 14 2022 21:07:07 GMT+0200 (közép-európai nyári idő),The main experiment item,yes,0,0,C:/Users/rrics/Documents/!!ResearchBMECOGSCI/gnet,0,0,0,prototype4.png,no,mono,no,18,no,black,no,no,768,1218,3.5.6,legacy,xpyriment,osweb,1.3.13,0,right,space,right,,24701,28021,24701,,2,legacy,824,1536,24,864,24,0,0,1536,1649963319353,1024,2,48000,-16,experiment,prototype1.png,0,even,Win32,98,139904,136889,98,98,268900,270403,263895,141422,263895,98,,,,,,visual_patterns,0,0,0,yes,1366
undefined,undefined,undefined,undefined,white,no,Mozilla,Netscape,"5.0 (Windows NT 10.0; Win64; x64) AppleWebKit/537.36 (KHTML, like Gecko) Chrome/100.0.4896.88 Safari/537.36",xpyriment,legacy,legacy,0,uniform,0,0,0,0,24,24,24,0,0,16,16,16,16,16,0,16,0,,,,,,0,,14-03-22,14-03-22,21:07:07,Thu Apr 14 2022 21:07:07 GMT+0200 (közép-európai nyári idő),The main experiment item,yes,0,0,C:/Users/rrics/Documents/!!ResearchBMECOGSCI/gnet,0,0,0,prototype4.png,no,mono,no,18,no,black,no,no,768,1218,3.5.6,legacy,xpyriment,osweb,1.3.13,0,right,space,right,,24701,28021,24701,,2,legacy,824,1536,24,864,24,0,0,1536,1649963319353,1024,2,48000,-16,experiment,p2sarr2.png,0,even,Win32,98,139904,136889,98,98,275412,276919,270411,141422,270411,98,,,,,,visual_patterns,0,0,0,yes,1366
undefined,undefined,undefined,undefined,white,no,Mozilla,Netscape,"5.0 (Windows NT 10.0; Win64; x64) AppleWebKit/537.36 (KHTML, like Gecko) Chrome/100.0.4896.88 Safari/537.36",xpyriment,legacy,legacy,0,uniform,0,0,0,0,24,24,24,0,0,17,17,17,17,17,0,17,0,,,,,,0,,14-03-22,14-03-22,21:07:07,Thu Apr 14 2022 21:07:07 GMT+0200 (közép-európai nyári idő),The main experiment item,yes,0,0,C:/Users/rrics/Documents/!!ResearchBMECOGSCI/gnet,0,0,0,prototype4.png,no,mono,no,18,no,black,no,no,768,1218,3.5.6,legacy,xpyriment,osweb,1.3.13,0,right,space,right,,24701,28021,24701,,2,legacy,824,1536,24,864,24,0,0,1536,1649963319353,1024,2,48000,-16,experiment,p3sarrsha2.png,0,even,Win32,98,139904,136889,98,98,281934,283451,276930,141422,276930,98,,,,,,visual_patterns,0,0,0,yes,1366
undefined,undefined,undefined,undefined,white,no,Mozilla,Netscape,"5.0 (Windows NT 10.0; Win64; x64) AppleWebKit/537.36 (KHTML, like Gecko) Chrome/100.0.4896.88 Safari/537.36",xpyriment,legacy,legacy,0,uniform,0,0,0,0,24,24,24,0,0,18,18,18,18,18,0,18,0,,,,,,0,,14-03-22,14-03-22,21:07:07,Thu Apr 14 2022 21:07:07 GMT+0200 (közép-európai nyári idő),The main experiment item,yes,0,0,C:/Users/rrics/Documents/!!ResearchBMECOGSCI/gnet,0,0,0,prototype4.png,no,mono,no,18,no,black,no,no,768,1218,3.5.6,legacy,xpyriment,osweb,1.3.13,0,right,space,right,,24701,28021,24701,,2,legacy,824,1536,24,864,24,0,0,1536,1649963319353,1024,2,48000,-16,experiment,prototype4.png,0,even,Win32,98,139904,136889,98,98,288481,289984,283475,141422,283475,98,,,,,,visual_patterns,0,0,0,yes,1366
undefined,undefined,undefined,undefined,white,no,Mozilla,Netscape,"5.0 (Windows NT 10.0; Win64; x64) AppleWebKit/537.36 (KHTML, like Gecko) Chrome/100.0.4896.88 Safari/537.36",xpyriment,legacy,legacy,0,uniform,0,0,0,0,24,24,24,0,0,19,19,19,19,19,0,19,0,,,,,,0,,14-03-22,14-03-22,21:07:07,Thu Apr 14 2022 21:07:07 GMT+0200 (közép-európai nyári idő),The main experiment item,yes,0,0,C:/Users/rrics/Documents/!!ResearchBMECOGSCI/gnet,0,0,0,prototype4.png,no,mono,no,18,no,black,no,no,768,1218,3.5.6,legacy,xpyriment,osweb,1.3.13,0,right,space,right,,24701,28021,24701,,2,legacy,824,1536,24,864,24,0,0,1536,1649963319353,1024,2,48000,-16,experiment,p3sarrsha1.png,0,even,Win32,98,139904,136889,98,98,294992,296499,289993,141422,289993,98,,,,,,visual_patterns,0,0,0,yes,1366
undefined,undefined,undefined,undefined,white,no,Mozilla,Netscape,"5.0 (Windows NT 10.0; Win64; x64) AppleWebKit/537.36 (KHTML, like Gecko) Chrome/100.0.4896.88 Safari/537.36",xpyriment,legacy,legacy,0,uniform,0,0,0,0,24,24,24,0,0,20,20,20,20,20,0,20,0,,,,,,0,,14-03-22,14-03-22,21:07:07,Thu Apr 14 2022 21:07:07 GMT+0200 (közép-európai nyári idő),The main experiment item,yes,0,0,C:/Users/rrics/Documents/!!ResearchBMECOGSCI/gnet,0,0,0,prototype4.png,no,mono,no,18,no,black,no,no,768,1218,3.5.6,legacy,xpyriment,osweb,1.3.13,0,right,space,right,,24701,28021,24701,,2,legacy,824,1536,24,864,24,0,0,1536,1649963319353,1024,2,48000,-16,experiment,prototype2.png,0,even,Win32,98,139904,136889,98,98,301514,303015,296507,141422,296507,98,,,,,,visual_patterns,0,0,0,yes,1366
undefined,undefined,undefined,undefined,white,no,Mozilla,Netscape,"5.0 (Windows NT 10.0; Win64; x64) AppleWebKit/537.36 (KHTML, like Gecko) Chrome/100.0.4896.88 Safari/537.36",xpyriment,legacy,legacy,0,uniform,0,0,0,0,24,24,24,0,0,21,21,21,21,21,0,21,0,,,,,,0,,14-03-22,14-03-22,21:07:07,Thu Apr 14 2022 21:07:07 GMT+0200 (közép-európai nyári idő),The main experiment item,yes,0,0,C:/Users/rrics/Documents/!!ResearchBMECOGSCI/gnet,0,0,0,prototype4.png,no,mono,no,18,no,black,no,no,768,1218,3.5.6,legacy,xpyriment,osweb,1.3.13,0,right,space,right,,24701,28021,24701,,2,legacy,824,1536,24,864,24,0,0,1536,1649963319353,1024,2,48000,-16,experiment,p4sarrcol2.png,0,even,Win32,98,139904,136889,98,98,308029,309531,303022,141422,303022,98,,,,,,visual_patterns,0,0,0,yes,1366
undefined,undefined,undefined,undefined,white,no,Mozilla,Netscape,"5.0 (Windows NT 10.0; Win64; x64) AppleWebKit/537.36 (KHTML, like Gecko) Chrome/100.0.4896.88 Safari/537.36",xpyriment,legacy,legacy,0,uniform,0,0,0,0,24,24,24,0,0,22,22,22,22,22,0,22,0,,,,,,0,,14-03-22,14-03-22,21:07:07,Thu Apr 14 2022 21:07:07 GMT+0200 (közép-európai nyári idő),The main experiment item,yes,0,0,C:/Users/rrics/Documents/!!ResearchBMECOGSCI/gnet,0,0,0,prototype4.png,no,mono,no,18,no,black,no,no,768,1218,3.5.6,legacy,xpyriment,osweb,1.3.13,0,right,space,right,,24701,28021,24701,,2,legacy,824,1536,24,864,24,0,0,1536,1649963319353,1024,2,48000,-16,experiment,p5sarrshacol1.png,0,even,Win32,98,139904,136889,98,98,314540,316047,309540,141422,309540,98,,,,,,visual_patterns,0,0,0,yes,1366
undefined,undefined,undefined,undefined,white,no,Mozilla,Netscape,"5.0 (Windows NT 10.0; Win64; x64) AppleWebKit/537.36 (KHTML, like Gecko) Chrome/100.0.4896.88 Safari/537.36",xpyriment,legacy,legacy,0,uniform,0,0,0,0,24,24,24,0,0,23,23,23,23,23,0,23,0,,,,,,0,,14-03-22,14-03-22,21:07:07,Thu Apr 14 2022 21:07:07 GMT+0200 (közép-európai nyári idő),The main experiment item,yes,0,0,C:/Users/rrics/Documents/!!ResearchBMECOGSCI/gnet,0,0,0,prototype4.png,no,mono,no,18,no,black,no,no,768,1218,3.5.6,legacy,xpyriment,osweb,1.3.13,0,right,space,right,,24701,28021,24701,,2,legacy,824,1536,24,864,24,0,0,1536,1649963319353,1024,2,48000,-16,experiment,prototype2.png,0,even,Win32,98,139904,136889,98,98,321071,322580,316068,141422,316068,98,,,,,,visual_patterns,0,0,0,yes,1366
undefined,undefined,undefined,undefined,white,no,Mozilla,Netscape,"5.0 (Windows NT 10.0; Win64; x64) AppleWebKit/537.36 (KHTML, like Gecko) Chrome/100.0.4896.88 Safari/537.36",xpyriment,legacy,legacy,0,uniform,0,0,0,0,24,24,24,0,0,24,24,24,24,24,0,24,0,,,,,,0,,14-03-22,14-03-22,21:07:07,Thu Apr 14 2022 21:07:07 GMT+0200 (közép-európai nyári idő),The main experiment item,yes,0,0,C:/Users/rrics/Documents/!!ResearchBMECOGSCI/gnet,0,0,0,prototype4.png,no,mono,no,18,no,black,no,no,768,1218,3.5.6,legacy,xpyriment,osweb,1.3.13,0,right,space,right,,24701,28021,24701,,2,legacy,824,1536,24,864,24,0,0,1536,1649963319353,1024,2,48000,-16,experiment,p4sarrsha2.png,0,even,Win32,98,139904,136889,98,98,327588,329095,322587,141422,322586,98,,,,,,visual_patterns,0,0,0,yes,1366
undefined,undefined,undefined,undefined,white,no,Mozilla,Netscape,"5.0 (Windows NT 10.0; Win64; x64) AppleWebKit/537.36 (KHTML, like Gecko) Chrome/100.0.4896.88 Safari/537.36",xpyriment,legacy,legacy,0,uniform,0,0,0,0,24,24,24,0,0,25,25,25,25,25,0,25,0,,,,,,0,,14-03-22,14-03-22,21:07:07,Thu Apr 14 2022 21:07:07 GMT+0200 (közép-európai nyári idő),The main experiment item,yes,0,0,C:/Users/rrics/Documents/!!ResearchBMECOGSCI/gnet,0,0,0,prototype4.png,no,mono,no,18,no,black,no,no,768,1218,3.5.6,legacy,xpyriment,osweb,1.3.13,0,right,space,right,,24701,28021,24701,,2,legacy,824,1536,24,864,24,0,0,1536,1649963319353,1024,2,48000,-16,experiment,p9sarr1.png,0,even,Win32,98,139904,136889,98,98,334111,335628,329104,141422,329104,98,,,,,,visual_patterns,0,0,0,yes,1366
undefined,undefined,undefined,undefined,white,no,Mozilla,Netscape,"5.0 (Windows NT 10.0; Win64; x64) AppleWebKit/537.36 (KHTML, like Gecko) Chrome/100.0.4896.88 Safari/537.36",xpyriment,legacy,legacy,0,uniform,0,0,0,0,24,24,24,0,0,26,26,26,26,26,0,26,0,,,,,,0,,14-03-22,14-03-22,21:07:07,Thu Apr 14 2022 21:07:07 GMT+0200 (közép-európai nyári idő),The main experiment item,yes,0,0,C:/Users/rrics/Documents/!!ResearchBMECOGSCI/gnet,0,0,0,prototype4.png,no,mono,no,18,no,black,no,no,768,1218,3.5.6,legacy,xpyriment,osweb,1.3.13,0,right,space,right,,24701,28021,24701,,2,legacy,824,1536,24,864,24,0,0,1536,1649963319353,1024,2,48000,-16,experiment,prototype1.png,0,even,Win32,98,139904,136889,98,98,340644,342160,335636,141422,335636,98,,,,,,visual_patterns,0,0,0,yes,1366
undefined,undefined,undefined,undefined,white,no,Mozilla,Netscape,"5.0 (Windows NT 10.0; Win64; x64) AppleWebKit/537.36 (KHTML, like Gecko) Chrome/100.0.4896.88 Safari/537.36",xpyriment,legacy,legacy,0,uniform,0,0,0,0,24,24,24,0,0,27,27,27,27,27,0,27,0,,,,,,0,,14-03-22,14-03-22,21:07:07,Thu Apr 14 2022 21:07:07 GMT+0200 (közép-európai nyári idő),The main experiment item,yes,0,0,C:/Users/rrics/Documents/!!ResearchBMECOGSCI/gnet,0,0,0,prototype4.png,no,mono,no,18,no,black,no,no,768,1218,3.5.6,legacy,xpyriment,osweb,1.3.13,0,right,space,right,,24701,28021,24701,,2,legacy,824,1536,24,864,24,0,0,1536,1649963319353,1024,2,48000,-16,experiment,p4sarrcol1.png,0,even,Win32,98,139904,136889,98,98,347171,348676,342169,141422,342169,98,,,,,,visual_patterns,0,0,0,yes,1366
undefined,undefined,undefined,undefined,white,no,Mozilla,Netscape,"5.0 (Windows NT 10.0; Win64; x64) AppleWebKit/537.36 (KHTML, like Gecko) Chrome/100.0.4896.88 Safari/537.36",xpyriment,legacy,legacy,0,uniform,0,0,0,0,24,24,24,0,0,28,28,28,28,28,0,28,0,,,,,,0,,14-03-22,14-03-22,21:07:07,Thu Apr 14 2022 21:07:07 GMT+0200 (közép-európai nyári idő),The main experiment item,yes,0,0,C:/Users/rrics/Documents/!!ResearchBMECOGSCI/gnet,0,0,0,prototype4.png,no,mono,no,18,no,black,no,no,768,1218,3.5.6,legacy,xpyriment,osweb,1.3.13,0,right,space,right,,24701,28021,24701,,2,legacy,824,1536,24,864,24,0,0,1536,1649963319353,1024,2,48000,-16,experiment,prototype4.png,0,even,Win32,98,139904,136889,98,98,353698,355209,348692,141422,348692,98,,,,,,visual_patterns,0,0,0,yes,1366
undefined,undefined,undefined,undefined,white,no,Mozilla,Netscape,"5.0 (Windows NT 10.0; Win64; x64) AppleWebKit/537.36 (KHTML, like Gecko) Chrome/100.0.4896.88 Safari/537.36",xpyriment,legacy,legacy,0,uniform,0,0,0,0,24,24,24,0,0,29,29,29,29,29,0,29,0,,,,,,0,,14-03-22,14-03-22,21:07:07,Thu Apr 14 2022 21:07:07 GMT+0200 (közép-európai nyári idő),The main experiment item,yes,0,0,C:/Users/rrics/Documents/!!ResearchBMECOGSCI/gnet,0,0,0,prototype4.png,no,mono,no,18,no,black,no,no,768,1218,3.5.6,legacy,xpyriment,osweb,1.3.13,0,right,space,right,,24701,28021,24701,,2,legacy,824,1536,24,864,24,0,0,1536,1649963319353,1024,2,48000,-16,experiment,prototype5.png,0,even,Win32,98,139904,136889,98,98,360222,361725,355216,141422,355216,98,,,,,,visual_patterns,0,0,0,yes,1366
undefined,undefined,undefined,undefined,white,no,Mozilla,Netscape,"5.0 (Windows NT 10.0; Win64; x64) AppleWebKit/537.36 (KHTML, like Gecko) Chrome/100.0.4896.88 Safari/537.36",xpyriment,legacy,legacy,0,uniform,0,0,0,0,24,24,24,0,0,30,30,30,30,30,0,30,0,,,,,,0,,14-03-22,14-03-22,21:07:07,Thu Apr 14 2022 21:07:07 GMT+0200 (közép-európai nyári idő),The main experiment item,yes,0,0,C:/Users/rrics/Documents/!!ResearchBMECOGSCI/gnet,0,0,0,prototype4.png,no,mono,no,18,no,black,no,no,768,1218,3.5.6,legacy,xpyriment,osweb,1.3.13,0,right,space,right,,24701,28021,24701,,2,legacy,824,1536,24,864,24,0,0,1536,1649963319353,1024,2,48000,-16,experiment,p5sarrcol2.png,0,even,Win32,98,139904,136889,98,98,366733,368241,361735,141422,361735,98,,,,,,visual_patterns,0,0,0,yes,1366
undefined,undefined,undefined,undefined,white,no,Mozilla,Netscape,"5.0 (Windows NT 10.0; Win64; x64) AppleWebKit/537.36 (KHTML, like Gecko) Chrome/100.0.4896.88 Safari/537.36",xpyriment,legacy,legacy,0,uniform,0,0,0,0,24,24,24,0,0,31,31,31,31,31,0,31,0,,,,,,0,,14-03-22,14-03-22,21:07:07,Thu Apr 14 2022 21:07:07 GMT+0200 (közép-európai nyári idő),The main experiment item,yes,0,0,C:/Users/rrics/Documents/!!ResearchBMECOGSCI/gnet,0,0,0,prototype4.png,no,mono,no,18,no,black,no,no,768,1218,3.5.6,legacy,xpyriment,osweb,1.3.13,0,right,space,right,,24701,28021,24701,,2,legacy,824,1536,24,864,24,0,0,1536,1649963319353,1024,2,48000,-16,experiment,p2sarrsha2.png,0,even,Win32,98,139904,136889,98,98,373251,374756,368249,141422,368249,98,,,,,,visual_patterns,0,0,0,yes,1366
undefined,undefined,undefined,undefined,white,no,Mozilla,Netscape,"5.0 (Windows NT 10.0; Win64; x64) AppleWebKit/537.36 (KHTML, like Gecko) Chrome/100.0.4896.88 Safari/537.36",xpyriment,legacy,legacy,0,uniform,0,0,0,0,24,24,24,0,0,32,32,32,32,32,0,32,0,,,,,,0,,14-03-22,14-03-22,21:07:07,Thu Apr 14 2022 21:07:07 GMT+0200 (közép-európai nyári idő),The main experiment item,yes,0,0,C:/Users/rrics/Documents/!!ResearchBMECOGSCI/gnet,0,0,0,prototype4.png,no,mono,no,18,no,black,no,no,768,1218,3.5.6,legacy,xpyriment,osweb,1.3.13,0,right,space,right,,24701,28021,24701,,2,legacy,824,1536,24,864,24,0,0,1536,1649963319353,1024,2,48000,-16,experiment,p5sarr1.png,0,even,Win32,98,139904,136889,98,98,379770,381272,374764,141422,374764,98,,,,,,visual_patterns,0,0,0,yes,1366
undefined,undefined,undefined,undefined,white,no,Mozilla,Netscape,"5.0 (Windows NT 10.0; Win64; x64) AppleWebKit/537.36 (KHTML, like Gecko) Chrome/100.0.4896.88 Safari/537.36",xpyriment,legacy,legacy,0,uniform,0,0,0,0,24,24,24,0,0,33,33,33,33,33,0,33,0,,,,,,0,,14-03-22,14-03-22,21:07:07,Thu Apr 14 2022 21:07:07 GMT+0200 (közép-európai nyári idő),The main experiment item,yes,0,0,C:/Users/rrics/Documents/!!ResearchBMECOGSCI/gnet,0,0,0,prototype4.png,no,mono,no,18,no,black,no,no,768,1218,3.5.6,legacy,xpyriment,osweb,1.3.13,0,right,space,right,,24701,28021,24701,,2,legacy,824,1536,24,864,24,0,0,1536,1649963319353,1024,2,48000,-16,experiment,p3sarrshacol1.png,0,even,Win32,98,139904,136889,98,98,386299,387805,381290,141422,381290,98,,,,,,visual_patterns,0,0,0,yes,1366
undefined,undefined,undefined,undefined,white,no,Mozilla,Netscape,"5.0 (Windows NT 10.0; Win64; x64) AppleWebKit/537.36 (KHTML, like Gecko) Chrome/100.0.4896.88 Safari/537.36",xpyriment,legacy,legacy,0,uniform,0,0,0,0,24,24,24,0,0,34,34,34,34,34,0,34,0,,,,,,0,,14-03-22,14-03-22,21:07:07,Thu Apr 14 2022 21:07:07 GMT+0200 (közép-európai nyári idő),The main experiment item,yes,0,0,C:/Users/rrics/Documents/!!ResearchBMECOGSCI/gnet,0,0,0,prototype4.png,no,mono,no,18,no,black,no,no,768,1218,3.5.6,legacy,xpyriment,osweb,1.3.13,0,right,space,right,,24701,28021,24701,,2,legacy,824,1536,24,864,24,0,0,1536,1649963319353,1024,2,48000,-16,experiment,prototype1.png,0,even,Win32,98,139904,136889,98,98,392814,394321,387812,141422,387812,98,,,,,,visual_patterns,0,0,0,yes,1366
undefined,undefined,undefined,undefined,white,no,Mozilla,Netscape,"5.0 (Windows NT 10.0; Win64; x64) AppleWebKit/537.36 (KHTML, like Gecko) Chrome/100.0.4896.88 Safari/537.36",xpyriment,legacy,legacy,0,uniform,0,0,0,0,24,24,24,0,0,35,35,35,35,35,0,35,0,,,,,,0,,14-03-22,14-03-22,21:07:07,Thu Apr 14 2022 21:07:07 GMT+0200 (közép-európai nyári idő),The main experiment item,yes,0,0,C:/Users/rrics/Documents/!!ResearchBMECOGSCI/gnet,0,0,0,prototype4.png,no,mono,no,18,no,black,no,no,768,1218,3.5.6,legacy,xpyriment,osweb,1.3.13,0,right,space,right,,24701,28021,24701,,2,legacy,824,1536,24,864,24,0,0,1536,1649963319353,1024,2,48000,-16,experiment,p4sarrshacol1.png,0,even,Win32,98,139904,136889,98,98,399334,400836,394329,141422,394329,98,,,,,,visual_patterns,0,0,0,yes,1366
undefined,undefined,undefined,undefined,white,no,Mozilla,Netscape,"5.0 (Windows NT 10.0; Win64; x64) AppleWebKit/537.36 (KHTML, like Gecko) Chrome/100.0.4896.88 Safari/537.36",xpyriment,legacy,legacy,0,uniform,0,0,0,0,24,24,24,0,0,36,36,36,36,36,0,36,0,,,,,,0,,14-03-22,14-03-22,21:07:07,Thu Apr 14 2022 21:07:07 GMT+0200 (közép-európai nyári idő),The main experiment item,yes,0,0,C:/Users/rrics/Documents/!!ResearchBMECOGSCI/gnet,0,0,0,prototype4.png,no,mono,no,18,no,black,no,no,768,1218,3.5.6,legacy,xpyriment,osweb,1.3.13,0,right,space,right,,24701,28021,24701,,2,legacy,824,1536,24,864,24,0,0,1536,1649963319353,1024,2,48000,-16,experiment,prototype3.png,0,even,Win32,98,139904,136889,98,98,405846,407352,400843,141422,400843,98,,,,,,visual_patterns,0,0,0,yes,1366
undefined,undefined,undefined,undefined,white,no,Mozilla,Netscape,"5.0 (Windows NT 10.0; Win64; x64) AppleWebKit/537.36 (KHTML, like Gecko) Chrome/100.0.4896.88 Safari/537.36",xpyriment,legacy,legacy,0,uniform,0,0,0,0,24,24,24,0,0,37,37,37,37,37,0,37,0,,,,,,0,,14-03-22,14-03-22,21:07:07,Thu Apr 14 2022 21:07:07 GMT+0200 (közép-európai nyári idő),The main experiment item,yes,0,0,C:/Users/rrics/Documents/!!ResearchBMECOGSCI/gnet,0,0,0,prototype4.png,no,mono,no,18,no,black,no,no,768,1218,3.5.6,legacy,xpyriment,osweb,1.3.13,0,right,space,right,,24701,28021,24701,,2,legacy,824,1536,24,864,24,0,0,1536,1649963319353,1024,2,48000,-16,experiment,prototype3.png,0,even,Win32,98,139904,136889,98,98,412363,413876,407360,141422,407360,98,,,,,,visual_patterns,0,0,0,yes,1366
undefined,undefined,undefined,undefined,white,no,Mozilla,Netscape,"5.0 (Windows NT 10.0; Win64; x64) AppleWebKit/537.36 (KHTML, like Gecko) Chrome/100.0.4896.88 Safari/537.36",xpyriment,legacy,legacy,0,uniform,0,0,0,0,24,24,24,0,0,38,38,38,38,38,0,38,0,,,,,,0,,14-03-22,14-03-22,21:07:07,Thu Apr 14 2022 21:07:07 GMT+0200 (közép-európai nyári idő),The main experiment item,yes,0,0,C:/Users/rrics/Documents/!!ResearchBMECOGSCI/gnet,0,0,0,prototype4.png,no,mono,no,18,no,black,no,no,768,1218,3.5.6,legacy,xpyriment,osweb,1.3.13,0,right,space,right,,24701,28021,24701,,2,legacy,824,1536,24,864,24,0,0,1536,1649963319353,1024,2,48000,-16,experiment,p7sarr1.png,0,even,Win32,98,139904,136889,98,98,418885,420400,413884,141422,413884,98,,,,,,visual_patterns,0,0,0,yes,1366
undefined,undefined,undefined,undefined,white,no,Mozilla,Netscape,"5.0 (Windows NT 10.0; Win64; x64) AppleWebKit/537.36 (KHTML, like Gecko) Chrome/100.0.4896.88 Safari/537.36",xpyriment,legacy,legacy,0,uniform,0,0,0,0,24,24,24,0,0,39,39,39,39,39,0,39,0,,,,,,0,,14-03-22,14-03-22,21:07:07,Thu Apr 14 2022 21:07:07 GMT+0200 (közép-európai nyári idő),The main experiment item,yes,0,0,C:/Users/rrics/Documents/!!ResearchBMECOGSCI/gnet,0,0,0,prototype4.png,no,mono,no,18,no,black,no,no,768,1218,3.5.6,legacy,xpyriment,osweb,1.3.13,0,right,space,right,,24701,28021,24701,,2,legacy,824,1536,24,864,24,0,0,1536,1649963319353,1024,2,48000,-16,experiment,p1sarrsha1.png,0,even,Win32,98,139904,136889,98,98,425416,426933,420410,141422,420410,98,,,,,,visual_patterns,0,0,0,yes,1366
undefined,undefined,undefined,undefined,white,no,Mozilla,Netscape,"5.0 (Windows NT 10.0; Win64; x64) AppleWebKit/537.36 (KHTML, like Gecko) Chrome/100.0.4896.88 Safari/537.36",xpyriment,legacy,legacy,0,uniform,0,0,0,0,24,24,24,0,0,40,40,40,40,40,0,40,0,,,,,,0,,14-03-22,14-03-22,21:07:07,Thu Apr 14 2022 21:07:07 GMT+0200 (közép-európai nyári idő),The main experiment item,yes,0,0,C:/Users/rrics/Documents/!!ResearchBMECOGSCI/gnet,0,0,0,prototype4.png,no,mono,no,18,no,black,no,no,768,1218,3.5.6,legacy,xpyriment,osweb,1.3.13,0,right,space,right,,24701,28021,24701,,2,legacy,824,1536,24,864,24,0,0,1536,1649963319353,1024,2,48000,-16,experiment,prototype5.png,0,even,Win32,98,139904,136889,98,98,431942,433449,426941,141422,426941,98,,,,,,visual_patterns,0,0,0,yes,1366
undefined,undefined,undefined,undefined,white,no,Mozilla,Netscape,"5.0 (Windows NT 10.0; Win64; x64) AppleWebKit/537.36 (KHTML, like Gecko) Chrome/100.0.4896.88 Safari/537.36",xpyriment,legacy,legacy,0,uniform,0,0,0,0,24,24,24,0,0,41,41,41,41,41,0,41,0,,,,,,0,,14-03-22,14-03-22,21:07:07,Thu Apr 14 2022 21:07:07 GMT+0200 (közép-európai nyári idő),The main experiment item,yes,0,0,C:/Users/rrics/Documents/!!ResearchBMECOGSCI/gnet,0,0,0,prototype4.png,no,mono,no,18,no,black,no,no,768,1218,3.5.6,legacy,xpyriment,osweb,1.3.13,0,right,space,right,,24701,28021,24701,,2,legacy,824,1536,24,864,24,0,0,1536,1649963319353,1024,2,48000,-16,experiment,p3sarrshacol2.png,0,even,Win32,98,139904,136889,98,98,438457,439965,433459,141422,433459,98,,,,,,visual_patterns,0,0,0,yes,1366
undefined,undefined,undefined,undefined,white,no,Mozilla,Netscape,"5.0 (Windows NT 10.0; Win64; x64) AppleWebKit/537.36 (KHTML, like Gecko) Chrome/100.0.4896.88 Safari/537.36",xpyriment,legacy,legacy,0,uniform,0,0,0,0,24,24,24,0,0,42,42,42,42,42,0,42,0,,,,,,0,,14-03-22,14-03-22,21:07:07,Thu Apr 14 2022 21:07:07 GMT+0200 (közép-európai nyári idő),The main experiment item,yes,0,0,C:/Users/rrics/Documents/!!ResearchBMECOGSCI/gnet,0,0,0,prototype4.png,no,mono,no,18,no,black,no,no,768,1218,3.5.6,legacy,xpyriment,osweb,1.3.13,0,right,space,right,,24701,28021,24701,,2,legacy,824,1536,24,864,24,0,0,1536,1649963319353,1024,2,48000,-16,experiment,p3sarrcol2.png,0,even,Win32,98,139904,136889,98,98,444980,446497,439975,141422,439975,98,,,,,,visual_patterns,0,0,0,yes,1366
undefined,undefined,undefined,undefined,white,no,Mozilla,Netscape,"5.0 (Windows NT 10.0; Win64; x64) AppleWebKit/537.36 (KHTML, like Gecko) Chrome/100.0.4896.88 Safari/537.36",xpyriment,legacy,legacy,0,uniform,0,0,0,0,24,24,24,0,0,43,43,43,43,43,0,43,0,,,,,,0,,14-03-22,14-03-22,21:07:07,Thu Apr 14 2022 21:07:07 GMT+0200 (közép-európai nyári idő),The main experiment item,yes,0,0,C:/Users/rrics/Documents/!!ResearchBMECOGSCI/gnet,0,0,0,prototype4.png,no,mono,no,18,no,black,no,no,768,1218,3.5.6,legacy,xpyriment,osweb,1.3.13,0,right,space,right,,24701,28021,24701,,2,legacy,824,1536,24,864,24,0,0,1536,1649963319353,1024,2,48000,-16,experiment,p3sarr2.png,0,even,Win32,98,139904,136889,98,98,451528,453030,446523,141422,446523,98,,,,,,visual_patterns,0,0,0,yes,1366
undefined,undefined,undefined,undefined,white,no,Mozilla,Netscape,"5.0 (Windows NT 10.0; Win64; x64) AppleWebKit/537.36 (KHTML, like Gecko) Chrome/100.0.4896.88 Safari/537.36",xpyriment,legacy,legacy,0,uniform,0,0,0,0,24,24,24,0,0,44,44,44,44,44,0,44,0,,,,,,0,,14-03-22,14-03-22,21:07:07,Thu Apr 14 2022 21:07:07 GMT+0200 (közép-európai nyári idő),The main experiment item,yes,0,0,C:/Users/rrics/Documents/!!ResearchBMECOGSCI/gnet,0,0,0,prototype4.png,no,mono,no,18,no,black,no,no,768,1218,3.5.6,legacy,xpyriment,osweb,1.3.13,0,right,space,right,,24701,28021,24701,,2,legacy,824,1536,24,864,24,0,0,1536,1649963319353,1024,2,48000,-16,experiment,p2sarrsha1.png,0,even,Win32,98,139904,136889,98,98,458038,459546,453039,141422,453039,98,,,,,,visual_patterns,0,0,0,yes,1366
undefined,undefined,undefined,undefined,white,no,Mozilla,Netscape,"5.0 (Windows NT 10.0; Win64; x64) AppleWebKit/537.36 (KHTML, like Gecko) Chrome/100.0.4896.88 Safari/537.36",xpyriment,legacy,legacy,0,uniform,0,0,0,0,24,24,24,0,0,45,45,45,45,45,0,45,0,,,,,,0,,14-03-22,14-03-22,21:07:07,Thu Apr 14 2022 21:07:07 GMT+0200 (közép-európai nyári idő),The main experiment item,yes,0,0,C:/Users/rrics/Documents/!!ResearchBMECOGSCI/gnet,0,0,0,prototype4.png,no,mono,no,18,no,black,no,no,768,1218,3.5.6,legacy,xpyriment,osweb,1.3.13,0,right,space,right,,24701,28021,24701,,2,legacy,824,1536,24,864,24,0,0,1536,1649963319353,1024,2,48000,-16,experiment,p4sarrsha1.png,0,even,Win32,98,139904,136889,98,98,464560,466061,459555,141422,459555,98,,,,,,visual_patterns,0,0,0,yes,1366
undefined,undefined,undefined,undefined,white,no,Mozilla,Netscape,"5.0 (Windows NT 10.0; Win64; x64) AppleWebKit/537.36 (KHTML, like Gecko) Chrome/100.0.4896.88 Safari/537.36",xpyriment,legacy,legacy,0,uniform,0,0,0,0,24,24,24,0,0,46,46,46,46,46,0,46,0,,,,,,0,,14-03-22,14-03-22,21:07:07,Thu Apr 14 2022 21:07:07 GMT+0200 (közép-európai nyári idő),The main experiment item,yes,0,0,C:/Users/rrics/Documents/!!ResearchBMECOGSCI/gnet,0,0,0,prototype4.png,no,mono,no,18,no,black,no,no,768,1218,3.5.6,legacy,xpyriment,osweb,1.3.13,0,right,space,right,,24701,28021,24701,,2,legacy,824,1536,24,864,24,0,0,1536,1649963319353,1024,2,48000,-16,experiment,p1sarrcol1.png,0,even,Win32,98,139904,136889,98,98,471071,472577,466069,141422,466069,98,,,,,,visual_patterns,0,0,0,yes,1366
undefined,undefined,undefined,undefined,white,no,Mozilla,Netscape,"5.0 (Windows NT 10.0; Win64; x64) AppleWebKit/537.36 (KHTML, like Gecko) Chrome/100.0.4896.88 Safari/537.36",xpyriment,legacy,legacy,0,uniform,0,0,0,0,24,24,24,0,0,47,47,47,47,47,0,47,0,,,,,,0,,14-03-22,14-03-22,21:07:07,Thu Apr 14 2022 21:07:07 GMT+0200 (közép-európai nyári idő),The main experiment item,yes,0,0,C:/Users/rrics/Documents/!!ResearchBMECOGSCI/gnet,0,0,0,prototype4.png,no,mono,no,18,no,black,no,no,768,1218,3.5.6,legacy,xpyriment,osweb,1.3.13,0,right,space,right,,24701,28021,24701,,2,legacy,824,1536,24,864,24,0,0,1536,1649963319353,1024,2,48000,-16,experiment,p1sarrsha2.png,0,even,Win32,98,139904,136889,98,98,477590,479093,472585,141422,472585,98,,,,,,visual_patterns,0,0,0,yes,1366
undefined,undefined,undefined,undefined,white,no,Mozilla,Netscape,"5.0 (Windows NT 10.0; Win64; x64) AppleWebKit/537.36 (KHTML, like Gecko) Chrome/100.0.4896.88 Safari/537.36",xpyriment,legacy,legacy,0,uniform,0,0,0,0,24,24,24,0,0,48,48,48,48,48,0,48,0,,,,,,0,,14-03-22,14-03-22,21:07:07,Thu Apr 14 2022 21:07:07 GMT+0200 (közép-európai nyári idő),The main experiment item,yes,0,0,C:/Users/rrics/Documents/!!ResearchBMECOGSCI/gnet,0,0,0,prototype4.png,no,mono,no,18,no,black,no,no,768,1218,3.5.6,legacy,xpyriment,osweb,1.3.13,0,right,space,right,,24701,28021,24701,,2,legacy,824,1536,24,864,24,0,0,1536,1649963319353,1024,2,48000,-16,experiment,p7sarr2.png,0,even,Win32,98,139904,136889,98,98,484116,485625,479113,141422,479113,98,,,,,,visual_patterns,0,0,0,yes,1366
undefined,undefined,undefined,undefined,white,no,Mozilla,Netscape,"5.0 (Windows NT 10.0; Win64; x64) AppleWebKit/537.36 (KHTML, like Gecko) Chrome/100.0.4896.88 Safari/537.36",xpyriment,legacy,legacy,0,uniform,0,0,0,0,24,24,24,0,0,49,49,49,49,49,0,49,0,,,,,,0,,14-03-22,14-03-22,21:07:07,Thu Apr 14 2022 21:07:07 GMT+0200 (közép-európai nyári idő),The main experiment item,yes,0,0,C:/Users/rrics/Documents/!!ResearchBMECOGSCI/gnet,0,0,0,prototype4.png,no,mono,no,18,no,black,no,no,768,1218,3.5.6,legacy,xpyriment,osweb,1.3.13,0,right,space,right,,24701,28021,24701,,2,legacy,824,1536,24,864,24,0,0,1536,1649963319353,1024,2,48000,-16,experiment,p4sarr1.png,0,even,Win32,98,139904,136889,98,98,490635,492141,485634,141422,485634,98,,,,,,visual_patterns,0,0,0,yes,1366
undefined,undefined,undefined,undefined,white,no,Mozilla,Netscape,"5.0 (Windows NT 10.0; Win64; x64) AppleWebKit/537.36 (KHTML, like Gecko) Chrome/100.0.4896.88 Safari/537.36",xpyriment,legacy,legacy,0,uniform,0,0,0,0,24,24,24,0,0,50,50,50,50,50,0,50,0,,,,,,0,,14-03-22,14-03-22,21:07:07,Thu Apr 14 2022 21:07:07 GMT+0200 (közép-európai nyári idő),The main experiment item,yes,0,0,C:/Users/rrics/Documents/!!ResearchBMECOGSCI/gnet,0,0,0,prototype4.png,no,mono,no,18,no,black,no,no,768,1218,3.5.6,legacy,xpyriment,osweb,1.3.13,0,right,space,right,,24701,28021,24701,,2,legacy,824,1536,24,864,24,0,0,1536,1649963319353,1024,2,48000,-16,experiment,p10sarr1.png,0,even,Win32,98,139904,136889,98,98,497148,498657,492149,141422,492149,98,,,,,,visual_patterns,0,0,0,yes,1366
undefined,undefined,undefined,undefined,white,no,Mozilla,Netscape,"5.0 (Windows NT 10.0; Win64; x64) AppleWebKit/537.36 (KHTML, like Gecko) Chrome/100.0.4896.88 Safari/537.36",xpyriment,legacy,legacy,0,uniform,0,0,0,0,24,24,24,0,0,51,51,51,51,51,0,51,0,,,,,,0,,14-03-22,14-03-22,21:07:07,Thu Apr 14 2022 21:07:07 GMT+0200 (közép-európai nyári idő),The main experiment item,yes,0,0,C:/Users/rrics/Documents/!!ResearchBMECOGSCI/gnet,0,0,0,prototype4.png,no,mono,no,18,no,black,no,no,768,1218,3.5.6,legacy,xpyriment,osweb,1.3.13,0,right,space,right,,24701,28021,24701,,2,legacy,824,1536,24,864,24,0,0,1536,1649963319353,1024,2,48000,-16,experiment,prototype3.png,0,even,Win32,98,139904,136889,98,98,503668,505173,498665,141422,498665,98,,,,,,visual_patterns,0,0,0,yes,1366
undefined,undefined,undefined,undefined,white,no,Mozilla,Netscape,"5.0 (Windows NT 10.0; Win64; x64) AppleWebKit/537.36 (KHTML, like Gecko) Chrome/100.0.4896.88 Safari/537.36",xpyriment,legacy,legacy,0,uniform,0,0,0,0,24,24,24,0,0,52,52,52,52,52,0,52,0,,,,,,0,,14-03-22,14-03-22,21:07:07,Thu Apr 14 2022 21:07:07 GMT+0200 (közép-európai nyári idő),The main experiment item,yes,0,0,C:/Users/rrics/Documents/!!ResearchBMECOGSCI/gnet,0,0,0,prototype4.png,no,mono,no,18,no,black,no,no,768,1218,3.5.6,legacy,xpyriment,osweb,1.3.13,0,right,space,right,,24701,28021,24701,,2,legacy,824,1536,24,864,24,0,0,1536,1649963319353,1024,2,48000,-16,experiment,p1sarr1.png,0,even,Win32,98,139904,136889,98,98,510186,511689,505184,141422,505184,98,,,,,,visual_patterns,0,0,0,yes,1366
undefined,undefined,undefined,undefined,white,no,Mozilla,Netscape,"5.0 (Windows NT 10.0; Win64; x64) AppleWebKit/537.36 (KHTML, like Gecko) Chrome/100.0.4896.88 Safari/537.36",xpyriment,legacy,legacy,0,uniform,0,0,0,0,24,24,24,0,0,53,53,53,53,53,0,53,0,,,,,,0,,14-03-22,14-03-22,21:07:07,Thu Apr 14 2022 21:07:07 GMT+0200 (közép-európai nyári idő),The main experiment item,yes,0,0,C:/Users/rrics/Documents/!!ResearchBMECOGSCI/gnet,0,0,0,prototype4.png,no,mono,no,18,no,black,no,no,768,1218,3.5.6,legacy,xpyriment,osweb,1.3.13,0,right,space,right,,24701,28021,24701,,2,legacy,824,1536,24,864,24,0,0,1536,1649963319353,1024,2,48000,-16,experiment,p1sarrcol2.png,0,even,Win32,98,139904,136889,98,98,516710,518221,511708,141422,511708,98,,,,,,visual_patterns,0,0,0,yes,1366
undefined,undefined,undefined,undefined,white,no,Mozilla,Netscape,"5.0 (Windows NT 10.0; Win64; x64) AppleWebKit/537.36 (KHTML, like Gecko) Chrome/100.0.4896.88 Safari/537.36",xpyriment,legacy,legacy,0,uniform,0,0,0,0,24,24,24,0,0,54,54,54,54,54,0,54,0,,,,,,0,,14-03-22,14-03-22,21:07:07,Thu Apr 14 2022 21:07:07 GMT+0200 (közép-európai nyári idő),The main experiment item,yes,0,0,C:/Users/rrics/Documents/!!ResearchBMECOGSCI/gnet,0,0,0,prototype4.png,no,mono,no,18,no,black,no,no,768,1218,3.5.6,legacy,xpyriment,osweb,1.3.13,0,right,space,right,,24701,28021,24701,,2,legacy,824,1536,24,864,24,0,0,1536,1649963319353,1024,2,48000,-16,experiment,p2sarrcol2.png,0,even,Win32,98,139904,136889,98,98,523231,524737,518230,141422,518230,98,,,,,,visual_patterns,0,0,0,yes,1366
undefined,undefined,undefined,undefined,white,no,Mozilla,Netscape,"5.0 (Windows NT 10.0; Win64; x64) AppleWebKit/537.36 (KHTML, like Gecko) Chrome/100.0.4896.88 Safari/537.36",xpyriment,legacy,legacy,0,uniform,0,0,0,0,24,24,24,0,0,55,55,55,55,55,0,55,0,,,,,,0,,14-03-22,14-03-22,21:07:07,Thu Apr 14 2022 21:07:07 GMT+0200 (közép-európai nyári idő),The main experiment item,yes,0,0,C:/Users/rrics/Documents/!!ResearchBMECOGSCI/gnet,0,0,0,prototype4.png,no,mono,no,18,no,black,no,no,768,1218,3.5.6,legacy,xpyriment,osweb,1.3.13,0,right,space,right,,24701,28021,24701,,2,legacy,824,1536,24,864,24,0,0,1536,1649963319353,1024,2,48000,-16,experiment,prototype4.png,0,even,Win32,98,139904,136889,98,98,529745,531253,524745,141422,524745,98,,,,,,visual_patterns,0,0,0,yes,1366
undefined,undefined,undefined,undefined,white,no,Mozilla,Netscape,"5.0 (Windows NT 10.0; Win64; x64) AppleWebKit/537.36 (KHTML, like Gecko) Chrome/100.0.4896.88 Safari/537.36",xpyriment,legacy,legacy,0,uniform,0,0,0,0,24,24,24,0,0,56,56,56,56,56,0,56,0,,,,,,0,,14-03-22,14-03-22,21:07:07,Thu Apr 14 2022 21:07:07 GMT+0200 (közép-európai nyári idő),The main experiment item,yes,0,0,C:/Users/rrics/Documents/!!ResearchBMECOGSCI/gnet,0,0,0,prototype4.png,no,mono,no,18,no,black,no,no,768,1218,3.5.6,legacy,xpyriment,osweb,1.3.13,0,right,space,right,,24701,28021,24701,,2,legacy,824,1536,24,864,24,0,0,1536,1649963319353,1024,2,48000,-16,experiment,p2sarrshacol1.png,0,even,Win32,98,139904,136889,98,98,536266,537769,531261,141422,531261,98,,,,,,visual_patterns,0,0,0,yes,1366
undefined,undefined,undefined,undefined,white,no,Mozilla,Netscape,"5.0 (Windows NT 10.0; Win64; x64) AppleWebKit/537.36 (KHTML, like Gecko) Chrome/100.0.4896.88 Safari/537.36",xpyriment,legacy,legacy,0,uniform,0,0,0,0,24,24,24,0,0,57,57,57,57,57,0,57,0,,,,,,0,,14-03-22,14-03-22,21:07:07,Thu Apr 14 2022 21:07:07 GMT+0200 (közép-európai nyári idő),The main experiment item,yes,0,0,C:/Users/rrics/Documents/!!ResearchBMECOGSCI/gnet,0,0,0,prototype4.png,no,mono,no,18,no,black,no,no,768,1218,3.5.6,legacy,xpyriment,osweb,1.3.13,0,right,space,right,,24701,28021,24701,,2,legacy,824,1536,24,864,24,0,0,1536,1649963319353,1024,2,48000,-16,experiment,prototype5.png,0,even,Win32,98,139904,136889,98,98,542776,544285,537776,141422,537776,98,,,,,,visual_patterns,0,0,0,yes,1366
undefined,undefined,undefined,undefined,white,no,Mozilla,Netscape,"5.0 (Windows NT 10.0; Win64; x64) AppleWebKit/537.36 (KHTML, like Gecko) Chrome/100.0.4896.88 Safari/537.36",xpyriment,legacy,legacy,0,uniform,0,0,0,0,24,24,24,0,0,58,58,58,58,58,0,58,0,,,,,,0,,14-03-22,14-03-22,21:07:07,Thu Apr 14 2022 21:07:07 GMT+0200 (közép-európai nyári idő),The main experiment item,yes,0,0,C:/Users/rrics/Documents/!!ResearchBMECOGSCI/gnet,0,0,0,prototype4.png,no,mono,no,18,no,black,no,no,768,1218,3.5.6,legacy,xpyriment,osweb,1.3.13,0,right,space,right,,24701,28021,24701,,2,legacy,824,1536,24,864,24,0,0,1536,1649963319353,1024,2,48000,-16,experiment,prototype2.png,0,even,Win32,98,139904,136889,98,98,549309,550817,544303,141422,544303,98,,,,,,visual_patterns,0,0,0,yes,1366
undefined,undefined,undefined,undefined,white,no,Mozilla,Netscape,"5.0 (Windows NT 10.0; Win64; x64) AppleWebKit/537.36 (KHTML, like Gecko) Chrome/100.0.4896.88 Safari/537.36",xpyriment,legacy,legacy,0,uniform,0,0,0,0,24,24,24,0,0,59,59,59,59,59,0,59,0,,,,,,0,,14-03-22,14-03-22,21:07:07,Thu Apr 14 2022 21:07:07 GMT+0200 (közép-európai nyári idő),The main experiment item,yes,0,0,C:/Users/rrics/Documents/!!ResearchBMECOGSCI/gnet,0,0,0,prototype4.png,no,mono,no,18,no,black,no,no,768,1218,3.5.6,legacy,xpyriment,osweb,1.3.13,0,right,space,right,,24701,28021,24701,,2,legacy,824,1536,24,864,24,0,0,1536,1649963319353,1024,2,48000,-16,experiment,prototype5.png,0,even,Win32,98,139904,136889,98,98,555830,557333,550825,141422,550825,98,,,,,,visual_patterns,0,0,0,yes,1366
undefined,undefined,undefined,undefined,white,no,Mozilla,Netscape,"5.0 (Windows NT 10.0; Win64; x64) AppleWebKit/537.36 (KHTML, like Gecko) Chrome/100.0.4896.88 Safari/537.36",xpyriment,legacy,legacy,0,uniform,0,0,0,0,24,24,24,0,0,60,60,60,60,60,0,60,0,,,,,,0,,14-03-22,14-03-22,21:07:07,Thu Apr 14 2022 21:07:07 GMT+0200 (közép-európai nyári idő),The main experiment item,yes,0,0,C:/Users/rrics/Documents/!!ResearchBMECOGSCI/gnet,0,0,0,prototype4.png,no,mono,no,18,no,black,no,no,768,1218,3.5.6,legacy,xpyriment,osweb,1.3.13,0,right,space,right,,24701,28021,24701,,2,legacy,824,1536,24,864,24,0,0,1536,1649963319353,1024,2,48000,-16,experiment,p1sarrshacol2.png,0,even,Win32,98,139904,136889,98,98,562346,563849,557340,141422,557340,98,,,,,,visual_patterns,0,0,0,yes,1366
undefined,undefined,undefined,undefined,white,no,Mozilla,Netscape,"5.0 (Windows NT 10.0; Win64; x64) AppleWebKit/537.36 (KHTML, like Gecko) Chrome/100.0.4896.88 Safari/537.36",xpyriment,legacy,legacy,0,uniform,0,0,0,0,24,24,24,0,0,61,61,61,61,61,0,61,0,,,,,,0,,14-03-22,14-03-22,21:07:07,Thu Apr 14 2022 21:07:07 GMT+0200 (közép-európai nyári idő),The main experiment item,yes,0,0,C:/Users/rrics/Documents/!!ResearchBMECOGSCI/gnet,0,0,0,prototype4.png,no,mono,no,18,no,black,no,no,768,1218,3.5.6,legacy,xpyriment,osweb,1.3.13,0,right,space,right,,24701,28021,24701,,2,legacy,824,1536,24,864,24,0,0,1536,1649963319353,1024,2,48000,-16,experiment,p2sarrcol1.png,0,even,Win32,98,139904,136889,98,98,568863,570365,563857,141422,563857,98,,,,,,visual_patterns,0,0,0,yes,1366
undefined,undefined,undefined,undefined,white,no,Mozilla,Netscape,"5.0 (Windows NT 10.0; Win64; x64) AppleWebKit/537.36 (KHTML, like Gecko) Chrome/100.0.4896.88 Safari/537.36",xpyriment,legacy,legacy,0,uniform,0,0,0,0,24,24,24,0,0,62,62,62,62,62,0,62,0,,,,,,0,,14-03-22,14-03-22,21:07:07,Thu Apr 14 2022 21:07:07 GMT+0200 (közép-európai nyári idő),The main experiment item,yes,0,0,C:/Users/rrics/Documents/!!ResearchBMECOGSCI/gnet,0,0,0,prototype4.png,no,mono,no,18,no,black,no,no,768,1218,3.5.6,legacy,xpyriment,osweb,1.3.13,0,right,space,right,,24701,28021,24701,,2,legacy,824,1536,24,864,24,0,0,1536,1649963319353,1024,2,48000,-16,experiment,p5sarr2.png,0,even,Win32,98,139904,136889,98,98,575375,576881,570374,141422,570374,98,,,,,,visual_patterns,0,0,0,yes,1366
undefined,undefined,undefined,undefined,white,no,Mozilla,Netscape,"5.0 (Windows NT 10.0; Win64; x64) AppleWebKit/537.36 (KHTML, like Gecko) Chrome/100.0.4896.88 Safari/537.36",xpyriment,legacy,legacy,0,uniform,0,0,0,0,24,24,24,0,0,63,63,63,63,63,0,63,0,,,,,,0,,14-03-22,14-03-22,21:07:07,Thu Apr 14 2022 21:07:07 GMT+0200 (közép-európai nyári idő),The main experiment item,yes,0,0,C:/Users/rrics/Documents/!!ResearchBMECOGSCI/gnet,0,0,0,prototype4.png,no,mono,no,18,no,black,no,no,768,1218,3.5.6,legacy,xpyriment,osweb,1.3.13,0,right,space,right,,24701,28021,24701,,2,legacy,824,1536,24,864,24,0,0,1536,1649963319353,1024,2,48000,-16,experiment,p10sarr2.png,0,even,Win32,98,139904,136889,98,98,581891,583396,576888,141422,576888,98,,,,,,visual_patterns,0,0,0,yes,1366
undefined,undefined,undefined,undefined,white,no,Mozilla,Netscape,"5.0 (Windows NT 10.0; Win64; x64) AppleWebKit/537.36 (KHTML, like Gecko) Chrome/100.0.4896.88 Safari/537.36",xpyriment,legacy,legacy,0,uniform,0,0,0,0,24,24,24,0,0,64,64,64,64,64,0,64,0,,,,,,0,,14-03-22,14-03-22,21:07:07,Thu Apr 14 2022 21:07:07 GMT+0200 (közép-európai nyári idő),The main experiment item,yes,0,0,C:/Users/rrics/Documents/!!ResearchBMECOGSCI/gnet,0,0,0,prototype4.png,no,mono,no,18,no,black,no,no,768,1218,3.5.6,legacy,xpyriment,osweb,1.3.13,0,right,space,right,,24701,28021,24701,,2,legacy,824,1536,24,864,24,0,0,1536,1649963319353,1024,2,48000,-16,experiment,prototype1.png,0,even,Win32,98,139904,136889,98,98,588406,589912,583405,141422,583405,98,,,,,,visual_patterns,0,0,0,yes,1366
undefined,undefined,undefined,undefined,white,no,Mozilla,Netscape,"5.0 (Windows NT 10.0; Win64; x64) AppleWebKit/537.36 (KHTML, like Gecko) Chrome/100.0.4896.88 Safari/537.36",xpyriment,legacy,legacy,0,uniform,0,0,0,0,24,24,24,0,0,65,65,65,65,65,0,65,0,,,,,,0,,14-03-22,14-03-22,21:07:07,Thu Apr 14 2022 21:07:07 GMT+0200 (közép-európai nyári idő),The main experiment item,yes,0,0,C:/Users/rrics/Documents/!!ResearchBMECOGSCI/gnet,0,0,0,prototype4.png,no,mono,no,18,no,black,no,no,768,1218,3.5.6,legacy,xpyriment,osweb,1.3.13,0,right,space,right,,24701,28021,24701,,2,legacy,824,1536,24,864,24,0,0,1536,1649963319353,1024,2,48000,-16,experiment,prototype4.png,0,even,Win32,98,139904,136889,98,98,594926,596428,589920,141422,589920,98,,,,,,visual_patterns,0,0,0,yes,1366
undefined,undefined,undefined,undefined,white,no,Mozilla,Netscape,"5.0 (Windows NT 10.0; Win64; x64) AppleWebKit/537.36 (KHTML, like Gecko) Chrome/100.0.4896.88 Safari/537.36",xpyriment,legacy,legacy,0,uniform,0,0,0,0,24,24,24,0,0,66,66,66,66,66,0,66,0,,,,,,0,,14-03-22,14-03-22,21:07:07,Thu Apr 14 2022 21:07:07 GMT+0200 (közép-európai nyári idő),The main experiment item,yes,0,0,C:/Users/rrics/Documents/!!ResearchBMECOGSCI/gnet,0,0,0,prototype4.png,no,mono,no,18,no,black,no,no,768,1218,3.5.6,legacy,xpyriment,osweb,1.3.13,0,right,space,right,,24701,28021,24701,,2,legacy,824,1536,24,864,24,0,0,1536,1649963319353,1024,2,48000,-16,experiment,p2sarrshacol2.png,0,even,Win32,98,139904,136889,98,98,601441,602944,596435,141422,596435,98,,,,,,visual_patterns,0,0,0,yes,1366
undefined,undefined,undefined,undefined,white,no,Mozilla,Netscape,"5.0 (Windows NT 10.0; Win64; x64) AppleWebKit/537.36 (KHTML, like Gecko) Chrome/100.0.4896.88 Safari/537.36",xpyriment,legacy,legacy,0,uniform,0,0,0,0,24,24,24,0,0,67,67,67,67,67,0,67,0,,,,,,0,,14-03-22,14-03-22,21:07:07,Thu Apr 14 2022 21:07:07 GMT+0200 (közép-európai nyári idő),The main experiment item,yes,0,0,C:/Users/rrics/Documents/!!ResearchBMECOGSCI/gnet,0,0,0,prototype4.png,no,mono,no,18,no,black,no,no,768,1218,3.5.6,legacy,xpyriment,osweb,1.3.13,0,right,space,right,,24701,28021,24701,,2,legacy,824,1536,24,864,24,0,0,1536,1649963319353,1024,2,48000,-16,experiment,p1sarr2.png,0,even,Win32,98,139904,136889,98,98,607952,609461,602952,141422,602952,98,,,,,,visual_patterns,0,0,0,yes,1366
undefined,undefined,undefined,undefined,white,no,Mozilla,Netscape,"5.0 (Windows NT 10.0; Win64; x64) AppleWebKit/537.36 (KHTML, like Gecko) Chrome/100.0.4896.88 Safari/537.36",xpyriment,legacy,legacy,0,uniform,0,0,0,0,24,24,24,0,0,68,68,68,68,68,0,68,0,,,,,,0,,14-03-22,14-03-22,21:07:07,Thu Apr 14 2022 21:07:07 GMT+0200 (közép-európai nyári idő),The main experiment item,yes,0,0,C:/Users/rrics/Documents/!!ResearchBMECOGSCI/gnet,0,0,0,prototype4.png,no,mono,no,18,no,black,no,no,768,1218,3.5.6,legacy,xpyriment,osweb,1.3.13,0,right,space,right,,24701,28021,24701,,2,legacy,824,1536,24,864,24,0,0,1536,1649963319353,1024,2,48000,-16,experiment,p6sarr2.png,0,even,Win32,98,139904,136889,98,98,614476,615992,609474,141422,609474,98,,,,,,visual_patterns,0,0,0,yes,1366
undefined,undefined,undefined,undefined,white,no,Mozilla,Netscape,"5.0 (Windows NT 10.0; Win64; x64) AppleWebKit/537.36 (KHTML, like Gecko) Chrome/100.0.4896.88 Safari/537.36",xpyriment,legacy,legacy,0,uniform,0,0,0,0,24,24,24,0,0,69,69,69,69,69,0,69,0,,,,,,0,,14-03-22,14-03-22,21:07:07,Thu Apr 14 2022 21:07:07 GMT+0200 (közép-európai nyári idő),The main experiment item,yes,0,0,C:/Users/rrics/Documents/!!ResearchBMECOGSCI/gnet,0,0,0,prototype4.png,no,mono,no,18,no,black,no,no,768,1218,3.5.6,legacy,xpyriment,osweb,1.3.13,0,right,space,right,,24701,28021,24701,,2,legacy,824,1536,24,864,24,0,0,1536,1649963319353,1024,2,48000,-16,experiment,prototype2.png,0,even,Win32,98,139904,136889,98,98,620999,622508,615999,141422,615999,98,,,,,,visual_patterns,0,0,0,yes,1366
undefined,undefined,undefined,undefined,white,no,Mozilla,Netscape,"5.0 (Windows NT 10.0; Win64; x64) AppleWebKit/537.36 (KHTML, like Gecko) Chrome/100.0.4896.88 Safari/537.36",xpyriment,legacy,legacy,0,uniform,0,0,0,0,24,24,24,0,0,70,70,70,70,70,0,70,0,,,,,,0,,14-03-22,14-03-22,21:07:07,Thu Apr 14 2022 21:07:07 GMT+0200 (közép-európai nyári idő),The main experiment item,yes,0,0,C:/Users/rrics/Documents/!!ResearchBMECOGSCI/gnet,0,0,0,prototype4.png,no,mono,no,18,no,black,no,no,768,1218,3.5.6,legacy,xpyriment,osweb,1.3.13,0,right,space,right,,24701,28021,24701,,2,legacy,824,1536,24,864,24,0,0,1536,1649963319353,1024,2,48000,-16,experiment,p1sarrshacol1.png,0,even,Win32,98,139904,136889,98,98,627516,629024,622516,141422,622516,98,,,,,,visual_patterns,0,0,0,yes,1366
undefined,undefined,undefined,undefined,white,no,Mozilla,Netscape,"5.0 (Windows NT 10.0; Win64; x64) AppleWebKit/537.36 (KHTML, like Gecko) Chrome/100.0.4896.88 Safari/537.36",xpyriment,legacy,legacy,0,uniform,0,0,0,0,24,24,24,0,0,71,71,71,71,71,0,71,0,,,,,,0,,14-03-22,14-03-22,21:07:07,Thu Apr 14 2022 21:07:07 GMT+0200 (közép-európai nyári idő),The main experiment item,yes,0,0,C:/Users/rrics/Documents/!!ResearchBMECOGSCI/gnet,0,0,0,prototype4.png,no,mono,no,18,no,black,no,no,768,1218,3.5.6,legacy,xpyriment,osweb,1.3.13,0,right,space,right,,24701,28021,24701,,2,legacy,824,1536,24,864,24,0,0,1536,1649963319353,1024,2,48000,-16,experiment,prototype1.png,0,even,Win32,98,139904,136889,98,98,634033,635539,629031,141422,629031,98,,,,,,visual_patterns,0,0,0,yes,1366
undefined,undefined,undefined,undefined,white,no,Mozilla,Netscape,"5.0 (Windows NT 10.0; Win64; x64) AppleWebKit/537.36 (KHTML, like Gecko) Chrome/100.0.4896.88 Safari/537.36",xpyriment,legacy,legacy,0,uniform,0,0,0,0,24,24,24,0,0,72,72,72,72,72,0,72,0,,,,,,0,,14-03-22,14-03-22,21:07:07,Thu Apr 14 2022 21:07:07 GMT+0200 (közép-európai nyári idő),The main experiment item,yes,0,0,C:/Users/rrics/Documents/!!ResearchBMECOGSCI/gnet,0,0,0,prototype4.png,no,mono,no,18,no,black,no,no,768,1218,3.5.6,legacy,xpyriment,osweb,1.3.13,0,right,space,right,,24701,28021,24701,,2,legacy,824,1536,24,864,24,0,0,1536,1649963319353,1024,2,48000,-16,experiment,prototype5.png,0,even,Win32,98,139904,136889,98,98,640546,642055,635542,141422,635542,98,,,,,,visual_patterns,0,0,0,yes,1366
undefined,undefined,undefined,undefined,white,no,Mozilla,Netscape,"5.0 (Windows NT 10.0; Win64; x64) AppleWebKit/537.36 (KHTML, like Gecko) Chrome/100.0.4896.88 Safari/537.36",xpyriment,legacy,legacy,0,uniform,0,0,0,0,24,24,24,0,0,73,73,73,73,73,0,73,0,,,,,,0,,14-03-22,14-03-22,21:07:07,Thu Apr 14 2022 21:07:07 GMT+0200 (közép-európai nyári idő),The main experiment item,yes,0,0,C:/Users/rrics/Documents/!!ResearchBMECOGSCI/gnet,0,0,0,prototype4.png,no,mono,no,18,no,black,no,no,768,1218,3.5.6,legacy,xpyriment,osweb,1.3.13,0,right,space,right,,24701,28021,24701,,2,legacy,824,1536,24,864,24,0,0,1536,1649963319353,1024,2,48000,-16,experiment,prototype3.png,0,even,Win32,98,139904,136889,98,98,647084,648588,642073,141422,642073,98,,,,,,visual_patterns,0,0,0,yes,1366
undefined,undefined,undefined,undefined,white,no,Mozilla,Netscape,"5.0 (Windows NT 10.0; Win64; x64) AppleWebKit/537.36 (KHTML, like Gecko) Chrome/100.0.4896.88 Safari/537.36",xpyriment,legacy,legacy,0,uniform,0,0,0,0,24,24,24,0,0,74,74,74,74,74,0,74,0,,,,,,0,,14-03-22,14-03-22,21:07:07,Thu Apr 14 2022 21:07:07 GMT+0200 (közép-európai nyári idő),The main experiment item,yes,0,0,C:/Users/rrics/Documents/!!ResearchBMECOGSCI/gnet,0,0,0,prototype4.png,no,mono,no,18,no,black,no,no,768,1218,3.5.6,legacy,xpyriment,osweb,1.3.13,0,right,space,right,,24701,28021,24701,,2,legacy,824,1536,24,864,24,0,0,1536,1649963319353,1024,2,48000,-16,experiment,prototype2.png,0,even,Win32,98,139904,136889,98,98,653600,655104,648596,141422,648596,98,,,,,,visual_patterns,0,0,0,yes,1366
undefined,undefined,undefined,undefined,white,no,Mozilla,Netscape,"5.0 (Windows NT 10.0; Win64; x64) AppleWebKit/537.36 (KHTML, like Gecko) Chrome/100.0.4896.88 Safari/537.36",xpyriment,legacy,legacy,0,uniform,0,0,0,0,24,24,24,0,0,74,74,74,74,74,0,74,0,0,0,0,0,0,0,0,14-03-22,14-03-22,21:07:07,Thu Apr 14 2022 21:07:07 GMT+0200 (közép-európai nyári idő),The main experiment item,yes,0,0,C:/Users/rrics/Documents/!!ResearchBMECOGSCI/gnet,0,0,0,prototype4.png,no,mono,no,18,no,black,no,no,768,1218,3.5.6,legacy,xpyriment,osweb,1.3.13,0,space,space,right,space,150144,28021,24701,150144,2,legacy,824,1536,24,864,24,0,0,1536,1649963319353,1024,2,48000,-16,experiment,p5sarrsha3.png,0,even,Win32,98,139904,136889,98,98,653600,655104,648596,141422,648596,98,808268,809784,805267,655108,805267,visual_patterns,0,0,0,yes,1366
undefined,undefined,undefined,undefined,white,no,Mozilla,Netscape,"5.0 (Windows NT 10.0; Win64; x64) AppleWebKit/537.36 (KHTML, like Gecko) Chrome/100.0.4896.88 Safari/537.36",xpyriment,legacy,legacy,0,uniform,0,0,0,0,24,24,24,0,0,74,74,74,74,74,0,74,0,1,1,1,1,1,0,1,14-03-22,14-03-22,21:07:07,Thu Apr 14 2022 21:07:07 GMT+0200 (közép-európai nyári idő),The main experiment item,yes,0,0,C:/Users/rrics/Documents/!!ResearchBMECOGSCI/gnet,0,0,0,prototype4.png,no,mono,no,18,no,black,no,no,768,1218,3.5.6,legacy,xpyriment,osweb,1.3.13,0,space,space,right,space,150144,28021,24701,150144,2,legacy,824,1536,24,864,24,0,0,1536,1649963319353,1024,2,48000,-16,experiment,p2sarrshacol1.png,0,even,Win32,98,139904,136889,98,98,653600,655104,648596,141422,648596,98,812793,814300,809791,655108,809791,visual_patterns,0,0,0,yes,1366
undefined,undefined,undefined,undefined,white,no,Mozilla,Netscape,"5.0 (Windows NT 10.0; Win64; x64) AppleWebKit/537.36 (KHTML, like Gecko) Chrome/100.0.4896.88 Safari/537.36",xpyriment,legacy,legacy,0,uniform,0,0,0,0,24,24,24,0,0,74,74,74,74,74,0,74,0,2,2,2,2,2,0,2,14-03-22,14-03-22,21:07:07,Thu Apr 14 2022 21:07:07 GMT+0200 (közép-európai nyári idő),The main experiment item,yes,0,0,C:/Users/rrics/Documents/!!ResearchBMECOGSCI/gnet,0,0,0,prototype4.png,no,mono,no,18,no,black,no,no,768,1218,3.5.6,legacy,xpyriment,osweb,1.3.13,0,space,space,right,space,150144,28021,24701,150144,2,legacy,824,1536,24,864,24,0,0,1536,1649963319353,1024,2,48000,-16,experiment,p4sarr4.png,0,even,Win32,98,139904,136889,98,98,653600,655104,648596,141422,648596,98,817312,818816,814311,655108,814311,visual_patterns,0,0,0,yes,1366
undefined,undefined,undefined,undefined,white,no,Mozilla,Netscape,"5.0 (Windows NT 10.0; Win64; x64) AppleWebKit/537.36 (KHTML, like Gecko) Chrome/100.0.4896.88 Safari/537.36",xpyriment,legacy,legacy,0,uniform,0,0,0,0,24,24,24,0,0,74,74,74,74,74,0,74,0,3,3,3,3,3,0,3,14-03-22,14-03-22,21:07:07,Thu Apr 14 2022 21:07:07 GMT+0200 (közép-európai nyári idő),The main experiment item,yes,0,0,C:/Users/rrics/Documents/!!ResearchBMECOGSCI/gnet,0,0,0,prototype4.png,no,mono,no,18,no,black,no,no,768,1218,3.5.6,legacy,xpyriment,osweb,1.3.13,0,space,space,right,space,150144,28021,24701,150144,2,legacy,824,1536,24,864,24,0,0,1536,1649963319353,1024,2,48000,-16,experiment,p5sarrsha2.png,0,even,Win32,98,139904,136889,98,98,653600,655104,648596,141422,648596,98,821824,823332,818825,655108,818825,visual_patterns,0,0,0,yes,1366
undefined,undefined,undefined,undefined,white,no,Mozilla,Netscape,"5.0 (Windows NT 10.0; Win64; x64) AppleWebKit/537.36 (KHTML, like Gecko) Chrome/100.0.4896.88 Safari/537.36",xpyriment,legacy,legacy,0,uniform,0,0,0,0,24,24,24,0,0,74,74,74,74,74,0,74,0,4,4,4,4,4,0,4,14-03-22,14-03-22,21:07:07,Thu Apr 14 2022 21:07:07 GMT+0200 (közép-európai nyári idő),The main experiment item,yes,0,0,C:/Users/rrics/Documents/!!ResearchBMECOGSCI/gnet,0,0,0,prototype4.png,no,mono,no,18,no,black,no,no,768,1218,3.5.6,legacy,xpyriment,osweb,1.3.13,0,space,space,right,space,150144,28021,24701,150144,2,legacy,824,1536,24,864,24,0,0,1536,1649963319353,1024,2,48000,-16,experiment,p7sarr2.png,0,even,Win32,98,139904,136889,98,98,653600,655104,648596,141422,648596,98,826344,827849,823341,655108,823341,visual_patterns,0,0,0,yes,1366
undefined,undefined,undefined,undefined,white,no,Mozilla,Netscape,"5.0 (Windows NT 10.0; Win64; x64) AppleWebKit/537.36 (KHTML, like Gecko) Chrome/100.0.4896.88 Safari/537.36",xpyriment,legacy,legacy,0,uniform,0,0,0,0,24,24,24,0,0,74,74,74,74,74,0,74,0,5,5,5,5,5,0,5,14-03-22,14-03-22,21:07:07,Thu Apr 14 2022 21:07:07 GMT+0200 (közép-európai nyári idő),The main experiment item,yes,0,0,C:/Users/rrics/Documents/!!ResearchBMECOGSCI/gnet,0,0,0,prototype4.png,no,mono,no,18,no,black,no,no,768,1218,3.5.6,legacy,xpyriment,osweb,1.3.13,0,space,space,right,space,150144,28021,24701,150144,2,legacy,824,1536,24,864,24,0,0,1536,1649963319353,1024,2,48000,-16,experiment,p1sarrsha4.png,0,even,Win32,98,139904,136889,98,98,653600,655104,648596,141422,648596,98,830860,832365,827858,655108,827858,visual_patterns,0,0,0,yes,1366
undefined,undefined,undefined,undefined,white,no,Mozilla,Netscape,"5.0 (Windows NT 10.0; Win64; x64) AppleWebKit/537.36 (KHTML, like Gecko) Chrome/100.0.4896.88 Safari/537.36",xpyriment,legacy,legacy,0,uniform,0,0,0,0,24,24,24,0,0,74,74,74,74,74,0,74,0,6,6,6,6,6,0,6,14-03-22,14-03-22,21:07:07,Thu Apr 14 2022 21:07:07 GMT+0200 (közép-európai nyári idő),The main experiment item,yes,0,0,C:/Users/rrics/Documents/!!ResearchBMECOGSCI/gnet,0,0,0,prototype4.png,no,mono,no,18,no,black,no,no,768,1218,3.5.6,legacy,xpyriment,osweb,1.3.13,0,space,space,right,space,150144,28021,24701,150144,2,legacy,824,1536,24,864,24,0,0,1536,1649963319353,1024,2,48000,-16,experiment,p3sarrcol2.png,0,even,Win32,98,139904,136889,98,98,653600,655104,648596,141422,648596,98,835380,836881,832373,655108,832373,visual_patterns,0,0,0,yes,1366
undefined,undefined,undefined,undefined,white,no,Mozilla,Netscape,"5.0 (Windows NT 10.0; Win64; x64) AppleWebKit/537.36 (KHTML, like Gecko) Chrome/100.0.4896.88 Safari/537.36",xpyriment,legacy,legacy,0,uniform,0,0,0,0,24,24,24,0,0,74,74,74,74,74,0,74,0,7,7,7,7,7,0,7,14-03-22,14-03-22,21:07:07,Thu Apr 14 2022 21:07:07 GMT+0200 (közép-európai nyári idő),The main experiment item,yes,0,0,C:/Users/rrics/Documents/!!ResearchBMECOGSCI/gnet,0,0,0,prototype4.png,no,mono,no,18,no,black,no,no,768,1218,3.5.6,legacy,xpyriment,osweb,1.3.13,0,space,space,right,space,150144,28021,24701,150144,2,legacy,824,1536,24,864,24,0,0,1536,1649963319353,1024,2,48000,-16,experiment,p3sarrcol3.png,0,even,Win32,98,139904,136889,98,98,653600,655104,648596,141422,648596,98,839906,841413,836900,655108,836900,visual_patterns,0,0,0,yes,1366
undefined,undefined,undefined,undefined,white,no,Mozilla,Netscape,"5.0 (Windows NT 10.0; Win64; x64) AppleWebKit/537.36 (KHTML, like Gecko) Chrome/100.0.4896.88 Safari/537.36",xpyriment,legacy,legacy,0,uniform,0,0,0,0,24,24,24,0,0,74,74,74,74,74,0,74,0,8,8,8,8,8,0,8,14-03-22,14-03-22,21:07:07,Thu Apr 14 2022 21:07:07 GMT+0200 (közép-európai nyári idő),The main experiment item,yes,0,0,C:/Users/rrics/Documents/!!ResearchBMECOGSCI/gnet,0,0,0,prototype4.png,no,mono,no,18,no,black,no,no,768,1218,3.5.6,legacy,xpyriment,osweb,1.3.13,0,space,space,right,space,150144,28021,24701,150144,2,legacy,824,1536,24,864,24,0,0,1536,1649963319353,1024,2,48000,-16,experiment,p1sarrsha1.png,0,even,Win32,98,139904,136889,98,98,653600,655104,648596,141422,648596,98,844422,845930,841421,655108,841421,visual_patterns,0,0,0,yes,1366
undefined,undefined,undefined,undefined,white,no,Mozilla,Netscape,"5.0 (Windows NT 10.0; Win64; x64) AppleWebKit/537.36 (KHTML, like Gecko) Chrome/100.0.4896.88 Safari/537.36",xpyriment,legacy,legacy,0,uniform,0,0,0,0,24,24,24,0,0,74,74,74,74,74,0,74,0,9,9,9,9,9,0,9,14-03-22,14-03-22,21:07:07,Thu Apr 14 2022 21:07:07 GMT+0200 (közép-európai nyári idő),The main experiment item,yes,0,0,C:/Users/rrics/Documents/!!ResearchBMECOGSCI/gnet,0,0,0,prototype4.png,no,mono,no,18,no,black,no,no,768,1218,3.5.6,legacy,xpyriment,osweb,1.3.13,0,space,space,right,space,150144,28021,24701,150144,2,legacy,824,1536,24,864,24,0,0,1536,1649963319353,1024,2,48000,-16,experiment,p4sarr1.png,0,even,Win32,98,139904,136889,98,98,653600,655104,648596,141422,648596,98,848944,850446,845938,655108,845938,visual_patterns,0,0,0,yes,1366
undefined,undefined,undefined,undefined,white,no,Mozilla,Netscape,"5.0 (Windows NT 10.0; Win64; x64) AppleWebKit/537.36 (KHTML, like Gecko) Chrome/100.0.4896.88 Safari/537.36",xpyriment,legacy,legacy,0,uniform,0,0,0,0,24,24,24,0,0,74,74,74,74,74,0,74,0,10,10,10,10,10,0,10,14-03-22,14-03-22,21:07:07,Thu Apr 14 2022 21:07:07 GMT+0200 (közép-európai nyári idő),The main experiment item,yes,0,0,C:/Users/rrics/Documents/!!ResearchBMECOGSCI/gnet,0,0,0,prototype4.png,no,mono,no,18,no,black,no,no,768,1218,3.5.6,legacy,xpyriment,osweb,1.3.13,0,space,space,right,space,150144,28021,24701,150144,2,legacy,824,1536,24,864,24,0,0,1536,1649963319353,1024,2,48000,-16,experiment,p9sarr2.png,0,even,Win32,98,139904,136889,98,98,653600,655104,648596,141422,648596,98,853462,854978,850456,655108,850456,visual_patterns,0,0,0,yes,1366
undefined,undefined,undefined,undefined,white,no,Mozilla,Netscape,"5.0 (Windows NT 10.0; Win64; x64) AppleWebKit/537.36 (KHTML, like Gecko) Chrome/100.0.4896.88 Safari/537.36",xpyriment,legacy,legacy,0,uniform,0,0,0,0,24,24,24,0,0,74,74,74,74,74,0,74,0,11,11,11,11,11,0,11,14-03-22,14-03-22,21:07:07,Thu Apr 14 2022 21:07:07 GMT+0200 (közép-európai nyári idő),The main experiment item,yes,0,0,C:/Users/rrics/Documents/!!ResearchBMECOGSCI/gnet,0,0,0,prototype4.png,no,mono,no,18,no,black,no,no,768,1218,3.5.6,legacy,xpyriment,osweb,1.3.13,0,space,space,right,space,150144,28021,24701,150144,2,legacy,824,1536,24,864,24,0,0,1536,1649963319353,1024,2,48000,-16,experiment,p1sarr2.png,0,even,Win32,98,139904,136889,98,98,653600,655104,648596,141422,648596,98,857987,859494,854987,655108,854987,visual_patterns,0,0,0,yes,1366
undefined,undefined,undefined,undefined,white,no,Mozilla,Netscape,"5.0 (Windows NT 10.0; Win64; x64) AppleWebKit/537.36 (KHTML, like Gecko) Chrome/100.0.4896.88 Safari/537.36",xpyriment,legacy,legacy,0,uniform,0,0,0,0,24,24,24,0,0,74,74,74,74,74,0,74,0,12,12,12,12,12,0,12,14-03-22,14-03-22,21:07:07,Thu Apr 14 2022 21:07:07 GMT+0200 (közép-európai nyári idő),The main experiment item,yes,0,0,C:/Users/rrics/Documents/!!ResearchBMECOGSCI/gnet,0,0,0,prototype4.png,no,mono,no,18,no,black,no,no,768,1218,3.5.6,legacy,xpyriment,osweb,1.3.13,0,space,space,right,space,150144,28021,24701,150144,2,legacy,824,1536,24,864,24,0,0,1536,1649963319353,1024,2,48000,-16,experiment,p3sarrcol4.png,0,even,Win32,98,139904,136889,98,98,653600,655104,648596,141422,648596,98,862526,864027,859523,655108,859523,visual_patterns,0,0,0,yes,1366
undefined,undefined,undefined,undefined,white,no,Mozilla,Netscape,"5.0 (Windows NT 10.0; Win64; x64) AppleWebKit/537.36 (KHTML, like Gecko) Chrome/100.0.4896.88 Safari/537.36",xpyriment,legacy,legacy,0,uniform,0,0,0,0,24,24,24,0,0,74,74,74,74,74,0,74,0,13,13,13,13,13,0,13,14-03-22,14-03-22,21:07:07,Thu Apr 14 2022 21:07:07 GMT+0200 (közép-európai nyári idő),The main experiment item,yes,0,0,C:/Users/rrics/Documents/!!ResearchBMECOGSCI/gnet,0,0,0,prototype4.png,no,mono,no,18,no,black,no,no,768,1218,3.5.6,legacy,xpyriment,osweb,1.3.13,0,space,space,right,space,150144,28021,24701,150144,2,legacy,824,1536,24,864,24,0,0,1536,1649963319353,1024,2,48000,-16,experiment,p2sarrshacol2.png,0,even,Win32,98,139904,136889,98,98,653600,655104,648596,141422,648596,98,867035,868543,864034,655108,864034,visual_patterns,0,0,0,yes,1366
undefined,undefined,undefined,undefined,white,no,Mozilla,Netscape,"5.0 (Windows NT 10.0; Win64; x64) AppleWebKit/537.36 (KHTML, like Gecko) Chrome/100.0.4896.88 Safari/537.36",xpyriment,legacy,legacy,0,uniform,0,0,0,0,24,24,24,0,0,74,74,74,74,74,0,74,0,14,14,14,14,14,0,14,14-03-22,14-03-22,21:07:07,Thu Apr 14 2022 21:07:07 GMT+0200 (közép-európai nyári idő),The main experiment item,yes,0,0,C:/Users/rrics/Documents/!!ResearchBMECOGSCI/gnet,0,0,0,prototype4.png,no,mono,no,18,no,black,no,no,768,1218,3.5.6,legacy,xpyriment,osweb,1.3.13,0,space,space,right,space,150144,28021,24701,150144,2,legacy,824,1536,24,864,24,0,0,1536,1649963319353,1024,2,48000,-16,experiment,p6sarr1.png,0,even,Win32,98,139904,136889,98,98,653600,655104,648596,141422,648596,98,871559,873076,868552,655108,868552,visual_patterns,0,0,0,yes,1366
undefined,undefined,undefined,undefined,white,no,Mozilla,Netscape,"5.0 (Windows NT 10.0; Win64; x64) AppleWebKit/537.36 (KHTML, like Gecko) Chrome/100.0.4896.88 Safari/537.36",xpyriment,legacy,legacy,0,uniform,0,0,0,0,24,24,24,0,0,74,74,74,74,74,0,74,0,15,15,15,15,15,0,15,14-03-22,14-03-22,21:07:07,Thu Apr 14 2022 21:07:07 GMT+0200 (közép-európai nyári idő),The main experiment item,yes,0,0,C:/Users/rrics/Documents/!!ResearchBMECOGSCI/gnet,0,0,0,prototype4.png,no,mono,no,18,no,black,no,no,768,1218,3.5.6,legacy,xpyriment,osweb,1.3.13,0,space,space,right,space,150144,28021,24701,150144,2,legacy,824,1536,24,864,24,0,0,1536,1649963319353,1024,2,48000,-16,experiment,p4sarrshacol3.png,0,even,Win32,98,139904,136889,98,98,653600,655104,648596,141422,648596,98,876087,877592,873087,655108,873087,visual_patterns,0,0,0,yes,1366
undefined,undefined,undefined,undefined,white,no,Mozilla,Netscape,"5.0 (Windows NT 10.0; Win64; x64) AppleWebKit/537.36 (KHTML, like Gecko) Chrome/100.0.4896.88 Safari/537.36",xpyriment,legacy,legacy,0,uniform,0,0,0,0,24,24,24,0,0,74,74,74,74,74,0,74,0,16,16,16,16,16,0,16,14-03-22,14-03-22,21:07:07,Thu Apr 14 2022 21:07:07 GMT+0200 (közép-európai nyári idő),The main experiment item,yes,0,0,C:/Users/rrics/Documents/!!ResearchBMECOGSCI/gnet,0,0,0,prototype4.png,no,mono,no,18,no,black,no,no,768,1218,3.5.6,legacy,xpyriment,osweb,1.3.13,0,space,space,right,space,150144,28021,24701,150144,2,legacy,824,1536,24,864,24,0,0,1536,1649963319353,1024,2,48000,-16,experiment,p4sarrshacol4.png,0,even,Win32,98,139904,136889,98,98,653600,655104,648596,141422,648596,98,880601,882108,877601,655108,877601,visual_patterns,0,0,0,yes,1366
undefined,undefined,undefined,undefined,white,no,Mozilla,Netscape,"5.0 (Windows NT 10.0; Win64; x64) AppleWebKit/537.36 (KHTML, like Gecko) Chrome/100.0.4896.88 Safari/537.36",xpyriment,legacy,legacy,0,uniform,0,0,0,0,24,24,24,0,0,74,74,74,74,74,0,74,0,17,17,17,17,17,0,17,14-03-22,14-03-22,21:07:07,Thu Apr 14 2022 21:07:07 GMT+0200 (közép-európai nyári idő),The main experiment item,yes,0,0,C:/Users/rrics/Documents/!!ResearchBMECOGSCI/gnet,0,0,0,prototype4.png,no,mono,no,18,no,black,no,no,768,1218,3.5.6,legacy,xpyriment,osweb,1.3.13,0,space,space,right,space,150144,28021,24701,150144,2,legacy,824,1536,24,864,24,0,0,1536,1649963319353,1024,2,48000,-16,experiment,p2sarrcol1.png,0,even,Win32,98,139904,136889,98,98,653600,655104,648596,141422,648596,98,885136,886641,882130,655108,882130,visual_patterns,0,0,0,yes,1366
undefined,undefined,undefined,undefined,white,no,Mozilla,Netscape,"5.0 (Windows NT 10.0; Win64; x64) AppleWebKit/537.36 (KHTML, like Gecko) Chrome/100.0.4896.88 Safari/537.36",xpyriment,legacy,legacy,0,uniform,0,0,0,0,24,24,24,0,0,74,74,74,74,74,0,74,0,18,18,18,18,18,0,18,14-03-22,14-03-22,21:07:07,Thu Apr 14 2022 21:07:07 GMT+0200 (közép-európai nyári idő),The main experiment item,yes,0,0,C:/Users/rrics/Documents/!!ResearchBMECOGSCI/gnet,0,0,0,prototype4.png,no,mono,no,18,no,black,no,no,768,1218,3.5.6,legacy,xpyriment,osweb,1.3.13,0,space,space,right,space,150144,28021,24701,150144,2,legacy,824,1536,24,864,24,0,0,1536,1649963319353,1024,2,48000,-16,experiment,p1sarr4.png,0,even,Win32,98,139904,136889,98,98,653600,655104,648596,141422,648596,98,889653,891157,886650,655108,886650,visual_patterns,0,0,0,yes,1366
undefined,undefined,undefined,undefined,white,no,Mozilla,Netscape,"5.0 (Windows NT 10.0; Win64; x64) AppleWebKit/537.36 (KHTML, like Gecko) Chrome/100.0.4896.88 Safari/537.36",xpyriment,legacy,legacy,0,uniform,0,0,0,0,24,24,24,0,0,74,74,74,74,74,0,74,0,19,19,19,19,19,0,19,14-03-22,14-03-22,21:07:07,Thu Apr 14 2022 21:07:07 GMT+0200 (közép-európai nyári idő),The main experiment item,yes,0,0,C:/Users/rrics/Documents/!!ResearchBMECOGSCI/gnet,0,0,0,prototype4.png,no,mono,no,18,no,black,no,no,768,1218,3.5.6,legacy,xpyriment,osweb,1.3.13,0,space,space,right,space,150144,28021,24701,150144,2,legacy,824,1536,24,864,24,0,0,1536,1649963319353,1024,2,48000,-16,experiment,p10sarr1.png,0,even,Win32,98,139904,136889,98,98,653600,655104,648596,141422,648596,98,894169,895673,891166,655108,891166,visual_patterns,0,0,0,yes,1366
undefined,undefined,undefined,undefined,white,no,Mozilla,Netscape,"5.0 (Windows NT 10.0; Win64; x64) AppleWebKit/537.36 (KHTML, like Gecko) Chrome/100.0.4896.88 Safari/537.36",xpyriment,legacy,legacy,0,uniform,0,0,0,0,24,24,24,0,0,74,74,74,74,74,0,74,0,20,20,20,20,20,0,20,14-03-22,14-03-22,21:07:07,Thu Apr 14 2022 21:07:07 GMT+0200 (közép-európai nyári idő),The main experiment item,yes,0,0,C:/Users/rrics/Documents/!!ResearchBMECOGSCI/gnet,0,0,0,prototype4.png,no,mono,no,18,no,black,no,no,768,1218,3.5.6,legacy,xpyriment,osweb,1.3.13,0,space,space,right,space,150144,28021,24701,150144,2,legacy,824,1536,24,864,24,0,0,1536,1649963319353,1024,2,48000,-16,experiment,p8sarr3.png,0,even,Win32,98,139904,136889,98,98,653600,655104,648596,141422,648596,98,898682,900189,895681,655108,895681,visual_patterns,0,0,0,yes,1366
undefined,undefined,undefined,undefined,white,no,Mozilla,Netscape,"5.0 (Windows NT 10.0; Win64; x64) AppleWebKit/537.36 (KHTML, like Gecko) Chrome/100.0.4896.88 Safari/537.36",xpyriment,legacy,legacy,0,uniform,0,0,0,0,24,24,24,0,0,74,74,74,74,74,0,74,0,21,21,21,21,21,0,21,14-03-22,14-03-22,21:07:07,Thu Apr 14 2022 21:07:07 GMT+0200 (közép-európai nyári idő),The main experiment item,yes,0,0,C:/Users/rrics/Documents/!!ResearchBMECOGSCI/gnet,0,0,0,prototype4.png,no,mono,no,18,no,black,no,no,768,1218,3.5.6,legacy,xpyriment,osweb,1.3.13,0,space,space,right,space,150144,28021,24701,150144,2,legacy,824,1536,24,864,24,0,0,1536,1649963319353,1024,2,48000,-16,experiment,p9sarr4.png,0,even,Win32,98,139904,136889,98,98,653600,655104,648596,141422,648596,98,903203,904705,900198,655108,900198,visual_patterns,0,0,0,yes,1366
undefined,undefined,undefined,undefined,white,no,Mozilla,Netscape,"5.0 (Windows NT 10.0; Win64; x64) AppleWebKit/537.36 (KHTML, like Gecko) Chrome/100.0.4896.88 Safari/537.36",xpyriment,legacy,legacy,0,uniform,0,0,0,0,24,24,24,0,0,74,74,74,74,74,0,74,0,22,22,22,22,22,0,22,14-03-22,14-03-22,21:07:07,Thu Apr 14 2022 21:07:07 GMT+0200 (közép-európai nyári idő),The main experiment item,yes,0,0,C:/Users/rrics/Documents/!!ResearchBMECOGSCI/gnet,0,0,0,prototype4.png,no,mono,no,18,no,black,no,no,768,1218,3.5.6,legacy,xpyriment,osweb,1.3.13,0,space,space,right,space,150144,28021,24701,150144,2,legacy,824,1536,24,864,24,0,0,1536,1649963319353,1024,2,48000,-16,experiment,p5sarrcol2.png,0,even,Win32,98,139904,136889,98,98,653600,655104,648596,141422,648596,98,907730,909238,904727,655108,904727,visual_patterns,0,0,0,yes,1366
undefined,undefined,undefined,undefined,white,no,Mozilla,Netscape,"5.0 (Windows NT 10.0; Win64; x64) AppleWebKit/537.36 (KHTML, like Gecko) Chrome/100.0.4896.88 Safari/537.36",xpyriment,legacy,legacy,0,uniform,0,0,0,0,24,24,24,0,0,74,74,74,74,74,0,74,0,23,23,23,23,23,0,23,14-03-22,14-03-22,21:07:07,Thu Apr 14 2022 21:07:07 GMT+0200 (közép-európai nyári idő),The main experiment item,yes,0,0,C:/Users/rrics/Documents/!!ResearchBMECOGSCI/gnet,0,0,0,prototype4.png,no,mono,no,18,no,black,no,no,768,1218,3.5.6,legacy,xpyriment,osweb,1.3.13,0,space,space,right,space,150144,28021,24701,150144,2,legacy,824,1536,24,864,24,0,0,1536,1649963319353,1024,2,48000,-16,experiment,p7sarr4.png,0,even,Win32,98,139904,136889,98,98,653600,655104,648596,141422,648596,98,912251,913754,909248,655108,909248,visual_patterns,0,0,0,yes,1366
undefined,undefined,undefined,undefined,white,no,Mozilla,Netscape,"5.0 (Windows NT 10.0; Win64; x64) AppleWebKit/537.36 (KHTML, like Gecko) Chrome/100.0.4896.88 Safari/537.36",xpyriment,legacy,legacy,0,uniform,0,0,0,0,24,24,24,0,0,74,74,74,74,74,0,74,0,24,24,24,24,24,0,24,14-03-22,14-03-22,21:07:07,Thu Apr 14 2022 21:07:07 GMT+0200 (közép-európai nyári idő),The main experiment item,yes,0,0,C:/Users/rrics/Documents/!!ResearchBMECOGSCI/gnet,0,0,0,prototype4.png,no,mono,no,18,no,black,no,no,768,1218,3.5.6,legacy,xpyriment,osweb,1.3.13,0,space,space,right,space,150144,28021,24701,150144,2,legacy,824,1536,24,864,24,0,0,1536,1649963319353,1024,2,48000,-16,experiment,p3sarrsha3.png,0,even,Win32,98,139904,136889,98,98,653600,655104,648596,141422,648596,98,916770,918287,913767,655108,913767,visual_patterns,0,0,0,yes,1366
undefined,undefined,undefined,undefined,white,no,Mozilla,Netscape,"5.0 (Windows NT 10.0; Win64; x64) AppleWebKit/537.36 (KHTML, like Gecko) Chrome/100.0.4896.88 Safari/537.36",xpyriment,legacy,legacy,0,uniform,0,0,0,0,24,24,24,0,0,74,74,74,74,74,0,74,0,25,25,25,25,25,0,25,14-03-22,14-03-22,21:07:07,Thu Apr 14 2022 21:07:07 GMT+0200 (közép-európai nyári idő),The main experiment item,yes,0,0,C:/Users/rrics/Documents/!!ResearchBMECOGSCI/gnet,0,0,0,prototype4.png,no,mono,no,18,no,black,no,no,768,1218,3.5.6,legacy,xpyriment,osweb,1.3.13,0,space,space,right,space,150144,28021,24701,150144,2,legacy,824,1536,24,864,24,0,0,1536,1649963319353,1024,2,48000,-16,experiment,p8sarr4.png,0,even,Win32,98,139904,136889,98,98,653600,655104,648596,141422,648596,98,921295,922803,918292,655108,918292,visual_patterns,0,0,0,yes,1366
undefined,undefined,undefined,undefined,white,no,Mozilla,Netscape,"5.0 (Windows NT 10.0; Win64; x64) AppleWebKit/537.36 (KHTML, like Gecko) Chrome/100.0.4896.88 Safari/537.36",xpyriment,legacy,legacy,0,uniform,0,0,0,0,24,24,24,0,0,74,74,74,74,74,0,74,0,26,26,26,26,26,0,26,14-03-22,14-03-22,21:07:07,Thu Apr 14 2022 21:07:07 GMT+0200 (közép-európai nyári idő),The main experiment item,yes,0,0,C:/Users/rrics/Documents/!!ResearchBMECOGSCI/gnet,0,0,0,prototype4.png,no,mono,no,18,no,black,no,no,768,1218,3.5.6,legacy,xpyriment,osweb,1.3.13,0,space,space,right,space,150144,28021,24701,150144,2,legacy,824,1536,24,864,24,0,0,1536,1649963319353,1024,2,48000,-16,experiment,p2sarrshacol4.png,0,even,Win32,98,139904,136889,98,98,653600,655104,648596,141422,648596,98,925815,927319,922812,655108,922812,visual_patterns,0,0,0,yes,1366
undefined,undefined,undefined,undefined,white,no,Mozilla,Netscape,"5.0 (Windows NT 10.0; Win64; x64) AppleWebKit/537.36 (KHTML, like Gecko) Chrome/100.0.4896.88 Safari/537.36",xpyriment,legacy,legacy,0,uniform,0,0,0,0,24,24,24,0,0,74,74,74,74,74,0,74,0,27,27,27,27,27,0,27,14-03-22,14-03-22,21:07:07,Thu Apr 14 2022 21:07:07 GMT+0200 (közép-európai nyári idő),The main experiment item,yes,0,0,C:/Users/rrics/Documents/!!ResearchBMECOGSCI/gnet,0,0,0,prototype4.png,no,mono,no,18,no,black,no,no,768,1218,3.5.6,legacy,xpyriment,osweb,1.3.13,0,space,space,right,space,150144,28021,24701,150144,2,legacy,824,1536,24,864,24,0,0,1536,1649963319353,1024,2,48000,-16,experiment,p4sarrshacol1.png,0,even,Win32,98,139904,136889,98,98,653600,655104,648596,141422,648596,98,930342,931852,927339,655108,927339,visual_patterns,0,0,0,yes,1366
undefined,undefined,undefined,undefined,white,no,Mozilla,Netscape,"5.0 (Windows NT 10.0; Win64; x64) AppleWebKit/537.36 (KHTML, like Gecko) Chrome/100.0.4896.88 Safari/537.36",xpyriment,legacy,legacy,0,uniform,0,0,0,0,24,24,24,0,0,74,74,74,74,74,0,74,0,28,28,28,28,28,0,28,14-03-22,14-03-22,21:07:07,Thu Apr 14 2022 21:07:07 GMT+0200 (közép-európai nyári idő),The main experiment item,yes,0,0,C:/Users/rrics/Documents/!!ResearchBMECOGSCI/gnet,0,0,0,prototype4.png,no,mono,no,18,no,black,no,no,768,1218,3.5.6,legacy,xpyriment,osweb,1.3.13,0,space,space,right,space,150144,28021,24701,150144,2,legacy,824,1536,24,864,24,0,0,1536,1649963319353,1024,2,48000,-16,experiment,p1sarrshacol3.png,0,even,Win32,98,139904,136889,98,98,653600,655104,648596,141422,648596,98,934860,936368,931857,655108,931857,visual_patterns,0,0,0,yes,1366
undefined,undefined,undefined,undefined,white,no,Mozilla,Netscape,"5.0 (Windows NT 10.0; Win64; x64) AppleWebKit/537.36 (KHTML, like Gecko) Chrome/100.0.4896.88 Safari/537.36",xpyriment,legacy,legacy,0,uniform,0,0,0,0,24,24,24,0,0,74,74,74,74,74,0,74,0,29,29,29,29,29,0,29,14-03-22,14-03-22,21:07:07,Thu Apr 14 2022 21:07:07 GMT+0200 (közép-európai nyári idő),The main experiment item,yes,0,0,C:/Users/rrics/Documents/!!ResearchBMECOGSCI/gnet,0,0,0,prototype4.png,no,mono,no,18,no,black,no,no,768,1218,3.5.6,legacy,xpyriment,osweb,1.3.13,0,space,space,right,space,150144,28021,24701,150144,2,legacy,824,1536,24,864,24,0,0,1536,1649963319353,1024,2,48000,-16,experiment,p2sarrsha1.png,0,even,Win32,98,139904,136889,98,98,653600,655104,648596,141422,648596,98,939372,940884,936373,655108,936373,visual_patterns,0,0,0,yes,1366
undefined,undefined,undefined,undefined,white,no,Mozilla,Netscape,"5.0 (Windows NT 10.0; Win64; x64) AppleWebKit/537.36 (KHTML, like Gecko) Chrome/100.0.4896.88 Safari/537.36",xpyriment,legacy,legacy,0,uniform,0,0,0,0,24,24,24,0,0,74,74,74,74,74,0,74,0,30,30,30,30,30,0,30,14-03-22,14-03-22,21:07:07,Thu Apr 14 2022 21:07:07 GMT+0200 (közép-európai nyári idő),The main experiment item,yes,0,0,C:/Users/rrics/Documents/!!ResearchBMECOGSCI/gnet,0,0,0,prototype4.png,no,mono,no,18,no,black,no,no,768,1218,3.5.6,legacy,xpyriment,osweb,1.3.13,0,space,space,right,space,150144,28021,24701,150144,2,legacy,824,1536,24,864,24,0,0,1536,1649963319353,1024,2,48000,-16,experiment,p3sarr2.png,0,even,Win32,98,139904,136889,98,98,653600,655104,648596,141422,648596,98,943894,945400,940889,655108,940889,visual_patterns,0,0,0,yes,1366
undefined,undefined,undefined,undefined,white,no,Mozilla,Netscape,"5.0 (Windows NT 10.0; Win64; x64) AppleWebKit/537.36 (KHTML, like Gecko) Chrome/100.0.4896.88 Safari/537.36",xpyriment,legacy,legacy,0,uniform,0,0,0,0,24,24,24,0,0,74,74,74,74,74,0,74,0,31,31,31,31,31,0,31,14-03-22,14-03-22,21:07:07,Thu Apr 14 2022 21:07:07 GMT+0200 (közép-európai nyári idő),The main experiment item,yes,0,0,C:/Users/rrics/Documents/!!ResearchBMECOGSCI/gnet,0,0,0,prototype4.png,no,mono,no,18,no,black,no,no,768,1218,3.5.6,legacy,xpyriment,osweb,1.3.13,0,space,space,right,space,150144,28021,24701,150144,2,legacy,824,1536,24,864,24,0,0,1536,1649963319353,1024,2,48000,-16,experiment,p3sarrshacol3.png,0,even,Win32,98,139904,136889,98,98,653600,655104,648596,141422,648596,98,948408,949916,945408,655108,945408,visual_patterns,0,0,0,yes,1366
undefined,undefined,undefined,undefined,white,no,Mozilla,Netscape,"5.0 (Windows NT 10.0; Win64; x64) AppleWebKit/537.36 (KHTML, like Gecko) Chrome/100.0.4896.88 Safari/537.36",xpyriment,legacy,legacy,0,uniform,0,0,0,0,24,24,24,0,0,74,74,74,74,74,0,74,0,32,32,32,32,32,0,32,14-03-22,14-03-22,21:07:07,Thu Apr 14 2022 21:07:07 GMT+0200 (közép-európai nyári idő),The main experiment item,yes,0,0,C:/Users/rrics/Documents/!!ResearchBMECOGSCI/gnet,0,0,0,prototype4.png,no,mono,no,18,no,black,no,no,768,1218,3.5.6,legacy,xpyriment,osweb,1.3.13,0,space,space,right,space,150144,28021,24701,150144,2,legacy,824,1536,24,864,24,0,0,1536,1649963319353,1024,2,48000,-16,experiment,p2sarrcol4.png,0,even,Win32,98,139904,136889,98,98,653600,655104,648596,141422,648596,98,952947,954449,949948,655108,949948,visual_patterns,0,0,0,yes,1366
undefined,undefined,undefined,undefined,white,no,Mozilla,Netscape,"5.0 (Windows NT 10.0; Win64; x64) AppleWebKit/537.36 (KHTML, like Gecko) Chrome/100.0.4896.88 Safari/537.36",xpyriment,legacy,legacy,0,uniform,0,0,0,0,24,24,24,0,0,74,74,74,74,74,0,74,0,33,33,33,33,33,0,33,14-03-22,14-03-22,21:07:07,Thu Apr 14 2022 21:07:07 GMT+0200 (közép-európai nyári idő),The main experiment item,yes,0,0,C:/Users/rrics/Documents/!!ResearchBMECOGSCI/gnet,0,0,0,prototype4.png,no,mono,no,18,no,black,no,no,768,1218,3.5.6,legacy,xpyriment,osweb,1.3.13,0,space,space,right,space,150144,28021,24701,150144,2,legacy,824,1536,24,864,24,0,0,1536,1649963319353,1024,2,48000,-16,experiment,p5sarrcol1.png,0,even,Win32,98,139904,136889,98,98,653600,655104,648596,141422,648596,98,957464,958965,954457,655108,954457,visual_patterns,0,0,0,yes,1366
undefined,undefined,undefined,undefined,white,no,Mozilla,Netscape,"5.0 (Windows NT 10.0; Win64; x64) AppleWebKit/537.36 (KHTML, like Gecko) Chrome/100.0.4896.88 Safari/537.36",xpyriment,legacy,legacy,0,uniform,0,0,0,0,24,24,24,0,0,74,74,74,74,74,0,74,0,34,34,34,34,34,0,34,14-03-22,14-03-22,21:07:07,Thu Apr 14 2022 21:07:07 GMT+0200 (közép-európai nyári idő),The main experiment item,yes,0,0,C:/Users/rrics/Documents/!!ResearchBMECOGSCI/gnet,0,0,0,prototype4.png,no,mono,no,18,no,black,no,no,768,1218,3.5.6,legacy,xpyriment,osweb,1.3.13,0,space,space,right,space,150144,28021,24701,150144,2,legacy,824,1536,24,864,24,0,0,1536,1649963319353,1024,2,48000,-16,experiment,p8sarr2.png,0,even,Win32,98,139904,136889,98,98,653600,655104,648596,141422,648596,98,961972,963481,958970,655108,958970,visual_patterns,0,0,0,yes,1366
undefined,undefined,undefined,undefined,white,no,Mozilla,Netscape,"5.0 (Windows NT 10.0; Win64; x64) AppleWebKit/537.36 (KHTML, like Gecko) Chrome/100.0.4896.88 Safari/537.36",xpyriment,legacy,legacy,0,uniform,0,0,0,0,24,24,24,0,0,74,74,74,74,74,0,74,0,35,35,35,35,35,0,35,14-03-22,14-03-22,21:07:07,Thu Apr 14 2022 21:07:07 GMT+0200 (közép-európai nyári idő),The main experiment item,yes,0,0,C:/Users/rrics/Documents/!!ResearchBMECOGSCI/gnet,0,0,0,prototype4.png,no,mono,no,18,no,black,no,no,768,1218,3.5.6,legacy,xpyriment,osweb,1.3.13,0,space,space,right,space,150144,28021,24701,150144,2,legacy,824,1536,24,864,24,0,0,1536,1649963319353,1024,2,48000,-16,experiment,p5sarr3.png,0,even,Win32,98,139904,136889,98,98,653600,655104,648596,141422,648596,98,966495,967997,963490,655108,963490,visual_patterns,0,0,0,yes,1366
undefined,undefined,undefined,undefined,white,no,Mozilla,Netscape,"5.0 (Windows NT 10.0; Win64; x64) AppleWebKit/537.36 (KHTML, like Gecko) Chrome/100.0.4896.88 Safari/537.36",xpyriment,legacy,legacy,0,uniform,0,0,0,0,24,24,24,0,0,74,74,74,74,74,0,74,0,36,36,36,36,36,0,36,14-03-22,14-03-22,21:07:07,Thu Apr 14 2022 21:07:07 GMT+0200 (közép-európai nyári idő),The main experiment item,yes,0,0,C:/Users/rrics/Documents/!!ResearchBMECOGSCI/gnet,0,0,0,prototype4.png,no,mono,no,18,no,black,no,no,768,1218,3.5.6,legacy,xpyriment,osweb,1.3.13,0,space,space,right,space,150144,28021,24701,150144,2,legacy,824,1536,24,864,24,0,0,1536,1649963319353,1024,2,48000,-16,experiment,p7sarr1.png,0,even,Win32,98,139904,136889,98,98,653600,655104,648596,141422,648596,98,971008,972517,968006,655108,968006,visual_patterns,0,0,0,yes,1366
undefined,undefined,undefined,undefined,white,no,Mozilla,Netscape,"5.0 (Windows NT 10.0; Win64; x64) AppleWebKit/537.36 (KHTML, like Gecko) Chrome/100.0.4896.88 Safari/537.36",xpyriment,legacy,legacy,0,uniform,0,0,0,0,24,24,24,0,0,74,74,74,74,74,0,74,0,37,37,37,37,37,0,37,14-03-22,14-03-22,21:07:07,Thu Apr 14 2022 21:07:07 GMT+0200 (közép-európai nyári idő),The main experiment item,yes,0,0,C:/Users/rrics/Documents/!!ResearchBMECOGSCI/gnet,0,0,0,prototype4.png,no,mono,no,18,no,black,no,no,768,1218,3.5.6,legacy,xpyriment,osweb,1.3.13,0,space,space,right,space,150144,28021,24701,150144,2,legacy,824,1536,24,864,24,0,0,1536,1649963319353,1024,2,48000,-16,experiment,p1sarrcol4.png,0,even,Win32,98,139904,136889,98,98,653600,655104,648596,141422,648596,98,975542,977046,972539,655108,972539,visual_patterns,0,0,0,yes,1366
undefined,undefined,undefined,undefined,white,no,Mozilla,Netscape,"5.0 (Windows NT 10.0; Win64; x64) AppleWebKit/537.36 (KHTML, like Gecko) Chrome/100.0.4896.88 Safari/537.36",xpyriment,legacy,legacy,0,uniform,0,0,0,0,24,24,24,0,0,74,74,74,74,74,0,74,0,38,38,38,38,38,0,38,14-03-22,14-03-22,21:07:07,Thu Apr 14 2022 21:07:07 GMT+0200 (közép-európai nyári idő),The main experiment item,yes,0,0,C:/Users/rrics/Documents/!!ResearchBMECOGSCI/gnet,0,0,0,prototype4.png,no,mono,no,18,no,black,no,no,768,1218,3.5.6,legacy,xpyriment,osweb,1.3.13,0,space,space,right,space,150144,28021,24701,150144,2,legacy,824,1536,24,864,24,0,0,1536,1649963319353,1024,2,48000,-16,experiment,p3sarrsha4.png,0,even,Win32,98,139904,136889,98,98,653600,655104,648596,141422,648596,98,980059,981562,977056,655108,977056,visual_patterns,0,0,0,yes,1366
undefined,undefined,undefined,undefined,white,no,Mozilla,Netscape,"5.0 (Windows NT 10.0; Win64; x64) AppleWebKit/537.36 (KHTML, like Gecko) Chrome/100.0.4896.88 Safari/537.36",xpyriment,legacy,legacy,0,uniform,0,0,0,0,24,24,24,0,0,74,74,74,74,74,0,74,0,39,39,39,39,39,0,39,14-03-22,14-03-22,21:07:07,Thu Apr 14 2022 21:07:07 GMT+0200 (közép-európai nyári idő),The main experiment item,yes,0,0,C:/Users/rrics/Documents/!!ResearchBMECOGSCI/gnet,0,0,0,prototype4.png,no,mono,no,18,no,black,no,no,768,1218,3.5.6,legacy,xpyriment,osweb,1.3.13,0,space,space,right,space,150144,28021,24701,150144,2,legacy,824,1536,24,864,24,0,0,1536,1649963319353,1024,2,48000,-16,experiment,p3sarr1.png,0,even,Win32,98,139904,136889,98,98,653600,655104,648596,141422,648596,98,984576,986078,981573,655108,981573,visual_patterns,0,0,0,yes,1366
undefined,undefined,undefined,undefined,white,no,Mozilla,Netscape,"5.0 (Windows NT 10.0; Win64; x64) AppleWebKit/537.36 (KHTML, like Gecko) Chrome/100.0.4896.88 Safari/537.36",xpyriment,legacy,legacy,0,uniform,0,0,0,0,24,24,24,0,0,74,74,74,74,74,0,74,0,40,40,40,40,40,0,40,14-03-22,14-03-22,21:07:07,Thu Apr 14 2022 21:07:07 GMT+0200 (közép-európai nyári idő),The main experiment item,yes,0,0,C:/Users/rrics/Documents/!!ResearchBMECOGSCI/gnet,0,0,0,prototype4.png,no,mono,no,18,no,black,no,no,768,1218,3.5.6,legacy,xpyriment,osweb,1.3.13,0,space,space,right,space,150144,28021,24701,150144,2,legacy,824,1536,24,864,24,0,0,1536,1649963319353,1024,2,48000,-16,experiment,p2sarrsha3.png,0,even,Win32,98,139904,136889,98,98,653600,655104,648596,141422,648596,98,989095,990611,986088,655108,986088,visual_patterns,0,0,0,yes,1366
undefined,undefined,undefined,undefined,white,no,Mozilla,Netscape,"5.0 (Windows NT 10.0; Win64; x64) AppleWebKit/537.36 (KHTML, like Gecko) Chrome/100.0.4896.88 Safari/537.36",xpyriment,legacy,legacy,0,uniform,0,0,0,0,24,24,24,0,0,74,74,74,74,74,0,74,0,41,41,41,41,41,0,41,14-03-22,14-03-22,21:07:07,Thu Apr 14 2022 21:07:07 GMT+0200 (közép-európai nyári idő),The main experiment item,yes,0,0,C:/Users/rrics/Documents/!!ResearchBMECOGSCI/gnet,0,0,0,prototype4.png,no,mono,no,18,no,black,no,no,768,1218,3.5.6,legacy,xpyriment,osweb,1.3.13,0,space,space,right,space,150144,28021,24701,150144,2,legacy,824,1536,24,864,24,0,0,1536,1649963319353,1024,2,48000,-16,experiment,p9sarr3.png,0,even,Win32,98,139904,136889,98,98,653600,655104,648596,141422,648596,98,993625,995127,990620,655108,990620,visual_patterns,0,0,0,yes,1366
undefined,undefined,undefined,undefined,white,no,Mozilla,Netscape,"5.0 (Windows NT 10.0; Win64; x64) AppleWebKit/537.36 (KHTML, like Gecko) Chrome/100.0.4896.88 Safari/537.36",xpyriment,legacy,legacy,0,uniform,0,0,0,0,24,24,24,0,0,74,74,74,74,74,0,74,0,42,42,42,42,42,0,42,14-03-22,14-03-22,21:07:07,Thu Apr 14 2022 21:07:07 GMT+0200 (közép-európai nyári idő),The main experiment item,yes,0,0,C:/Users/rrics/Documents/!!ResearchBMECOGSCI/gnet,0,0,0,prototype4.png,no,mono,no,18,no,black,no,no,768,1218,3.5.6,legacy,xpyriment,osweb,1.3.13,0,space,space,right,space,150144,28021,24701,150144,2,legacy,824,1536,24,864,24,0,0,1536,1649963319353,1024,2,48000,-16,experiment,p10sarr4.png,0,even,Win32,98,139904,136889,98,98,653600,655104,648596,141422,648596,98,998151,999660,995146,655108,995146,visual_patterns,0,0,0,yes,1366
undefined,undefined,undefined,undefined,white,no,Mozilla,Netscape,"5.0 (Windows NT 10.0; Win64; x64) AppleWebKit/537.36 (KHTML, like Gecko) Chrome/100.0.4896.88 Safari/537.36",xpyriment,legacy,legacy,0,uniform,0,0,0,0,24,24,24,0,0,74,74,74,74,74,0,74,0,43,43,43,43,43,0,43,14-03-22,14-03-22,21:07:07,Thu Apr 14 2022 21:07:07 GMT+0200 (közép-európai nyári idő),The main experiment item,yes,0,0,C:/Users/rrics/Documents/!!ResearchBMECOGSCI/gnet,0,0,0,prototype4.png,no,mono,no,18,no,black,no,no,768,1218,3.5.6,legacy,xpyriment,osweb,1.3.13,0,space,space,right,space,150144,28021,24701,150144,2,legacy,824,1536,24,864,24,0,0,1536,1649963319353,1024,2,48000,-16,experiment,p4sarrcol1.png,0,even,Win32,98,139904,136889,98,98,653600,655104,648596,141422,648596,98,1002674,1004176,999668,655108,999668,visual_patterns,0,0,0,yes,1366
undefined,undefined,undefined,undefined,white,no,Mozilla,Netscape,"5.0 (Windows NT 10.0; Win64; x64) AppleWebKit/537.36 (KHTML, like Gecko) Chrome/100.0.4896.88 Safari/537.36",xpyriment,legacy,legacy,0,uniform,0,0,0,0,24,24,24,0,0,74,74,74,74,74,0,74,0,44,44,44,44,44,0,44,14-03-22,14-03-22,21:07:07,Thu Apr 14 2022 21:07:07 GMT+0200 (közép-európai nyári idő),The main experiment item,yes,0,0,C:/Users/rrics/Documents/!!ResearchBMECOGSCI/gnet,0,0,0,prototype4.png,no,mono,no,18,no,black,no,no,768,1218,3.5.6,legacy,xpyriment,osweb,1.3.13,0,space,space,right,space,150144,28021,24701,150144,2,legacy,824,1536,24,864,24,0,0,1536,1649963319353,1024,2,48000,-16,experiment,p5sarrshacol4.png,0,even,Win32,98,139904,136889,98,98,653600,655104,648596,141422,648596,98,1007191,1008692,1004185,655108,1004185,visual_patterns,0,0,0,yes,1366
undefined,undefined,undefined,undefined,white,no,Mozilla,Netscape,"5.0 (Windows NT 10.0; Win64; x64) AppleWebKit/537.36 (KHTML, like Gecko) Chrome/100.0.4896.88 Safari/537.36",xpyriment,legacy,legacy,0,uniform,0,0,0,0,24,24,24,0,0,74,74,74,74,74,0,74,0,45,45,45,45,45,0,45,14-03-22,14-03-22,21:07:07,Thu Apr 14 2022 21:07:07 GMT+0200 (közép-európai nyári idő),The main experiment item,yes,0,0,C:/Users/rrics/Documents/!!ResearchBMECOGSCI/gnet,0,0,0,prototype4.png,no,mono,no,18,no,black,no,no,768,1218,3.5.6,legacy,xpyriment,osweb,1.3.13,0,space,space,right,space,150144,28021,24701,150144,2,legacy,824,1536,24,864,24,0,0,1536,1649963319353,1024,2,48000,-16,experiment,p3sarr3.png,0,even,Win32,98,139904,136889,98,98,653600,655104,648596,141422,648596,98,1011705,1013208,1008706,655108,1008706,visual_patterns,0,0,0,yes,1366
undefined,undefined,undefined,undefined,white,no,Mozilla,Netscape,"5.0 (Windows NT 10.0; Win64; x64) AppleWebKit/537.36 (KHTML, like Gecko) Chrome/100.0.4896.88 Safari/537.36",xpyriment,legacy,legacy,0,uniform,0,0,0,0,24,24,24,0,0,74,74,74,74,74,0,74,0,46,46,46,46,46,0,46,14-03-22,14-03-22,21:07:07,Thu Apr 14 2022 21:07:07 GMT+0200 (közép-európai nyári idő),The main experiment item,yes,0,0,C:/Users/rrics/Documents/!!ResearchBMECOGSCI/gnet,0,0,0,prototype4.png,no,mono,no,18,no,black,no,no,768,1218,3.5.6,legacy,xpyriment,osweb,1.3.13,0,space,space,right,space,150144,28021,24701,150144,2,legacy,824,1536,24,864,24,0,0,1536,1649963319353,1024,2,48000,-16,experiment,p2sarr3.png,0,even,Win32,98,139904,136889,98,98,653600,655104,648596,141422,648596,98,1016224,1017741,1013217,655108,1013217,visual_patterns,0,0,0,yes,1366
undefined,undefined,undefined,undefined,white,no,Mozilla,Netscape,"5.0 (Windows NT 10.0; Win64; x64) AppleWebKit/537.36 (KHTML, like Gecko) Chrome/100.0.4896.88 Safari/537.36",xpyriment,legacy,legacy,0,uniform,0,0,0,0,24,24,24,0,0,74,74,74,74,74,0,74,0,47,47,47,47,47,0,47,14-03-22,14-03-22,21:07:07,Thu Apr 14 2022 21:07:07 GMT+0200 (közép-európai nyári idő),The main experiment item,yes,0,0,C:/Users/rrics/Documents/!!ResearchBMECOGSCI/gnet,0,0,0,prototype4.png,no,mono,no,18,no,black,no,no,768,1218,3.5.6,legacy,xpyriment,osweb,1.3.13,0,space,space,right,space,150144,28021,24701,150144,2,legacy,824,1536,24,864,24,0,0,1536,1649963319353,1024,2,48000,-16,experiment,p4sarr2.png,0,even,Win32,98,139904,136889,98,98,653600,655104,648596,141422,648596,98,1020768,1022274,1017762,655108,1017762,visual_patterns,0,0,0,yes,1366
undefined,undefined,undefined,undefined,white,no,Mozilla,Netscape,"5.0 (Windows NT 10.0; Win64; x64) AppleWebKit/537.36 (KHTML, like Gecko) Chrome/100.0.4896.88 Safari/537.36",xpyriment,legacy,legacy,0,uniform,0,0,0,0,24,24,24,0,0,74,74,74,74,74,0,74,0,48,48,48,48,48,0,48,14-03-22,14-03-22,21:07:07,Thu Apr 14 2022 21:07:07 GMT+0200 (közép-európai nyári idő),The main experiment item,yes,0,0,C:/Users/rrics/Documents/!!ResearchBMECOGSCI/gnet,0,0,0,prototype4.png,no,mono,no,18,no,black,no,no,768,1218,3.5.6,legacy,xpyriment,osweb,1.3.13,0,space,space,right,space,150144,28021,24701,150144,2,legacy,824,1536,24,864,24,0,0,1536,1649963319353,1024,2,48000,-16,experiment,p2sarrshacol3.png,0,even,Win32,98,139904,136889,98,98,653600,655104,648596,141422,648596,98,1025289,1026790,1022283,655108,1022283,visual_patterns,0,0,0,yes,1366
