acc,accuracy,average_response_time,avg_rt,background,bidi,browser_codename,browser_name,browser_version,canvas_backend,clock_backend,color_backend,compensation,coordinates,count_end,count_experiment,count_osweb,count_prestudy,count_prestudy_isi,count_prestudy_sequence,count_prestudy_stimpres,count_start,count_study,count_study_coroutines,count_study_isi,count_study_logger,count_study_response,count_study_sequence,count_study_start,count_study_stimpres,count_test,count_test_coroutines,count_test_isi,count_test_logger,count_test_response,count_test_sequence,count_test_start,count_test_stimpres,date_startdate,date_startdateUTC,date_starttime,datetime,description,disable_garbage_collection,experiment_debug,experiment_parameters,experiment_path,experiment_pilot,experiment_taskname,experiment_taskversion,fampict,font_bold,font_family,font_italic,font_size,font_underline,foreground,form_clicks,fullscreen,height,jatosStudyResultId,jatosVersion,keyboard_backend,mouse_backend,opensesame_codename,opensesame_version,repeat_cycle,response,response_start,response_study_start,response_test_start,response_time,response_time_start,response_time_study_start,response_time_test_start,round_decimals,sampler_backend,screen_availableHeight,screen_availableWidth,screen_colorDepth,screen_height,screen_pixelDepth,screen_screenX,screen_screenY,screen_width,sessionid,sound_buf_size,sound_channels,sound_freq,sound_sample_size,start,stim,subject_nr,subject_parity,system_os,time_prestudy,time_prestudy_isi,time_prestudy_stimpres,time_start,time_study,time_study_isi,time_study_logger,time_study_response,time_study_start,time_study_stimpres,time_test,time_test_isi,time_test_logger,time_test_response,time_test_start,time_test_stimpres,title,total_correct,total_response_time,total_responses,uniform_coordinates,width
undefined,undefined,undefined,undefined,white,no,Mozilla,Netscape,"5.0 (Windows NT 10.0; Win64; x64) AppleWebKit/537.36 (KHTML, like Gecko) Chrome/100.0.4896.127 Safari/537.36",xpyriment,legacy,legacy,0,uniform,0,0,0,0,24,24,24,0,0,0,0,0,0,0,0,0,0,,,,,,0,,25-03-22,25-03-22,13:33:24,Mon Apr 25 2022 13:33:24 GMT+0200 (közép-európai nyári idő),The main experiment item,yes,0,0,C:/Users/rrics/Documents/!!ResearchBMECOGSCI/gnet,0,0,0,prototype1.png,no,mono,no,18,no,black,no,no,768,1229,3.5.6,legacy,xpyriment,osweb,1.3.13,0,space,space,space,,15335,11640,15335,,2,legacy,680,1280,24,720,24,0,0,1280,1650886494961,1024,2,48000,-16,experiment,p6sarr1.png,1,odd,Win32,117,123495,120483,117,117,145384,146890,140388,125012,140388,117,,,,,,visual_patterns,0,0,0,yes,1366
undefined,undefined,undefined,undefined,white,no,Mozilla,Netscape,"5.0 (Windows NT 10.0; Win64; x64) AppleWebKit/537.36 (KHTML, like Gecko) Chrome/100.0.4896.127 Safari/537.36",xpyriment,legacy,legacy,0,uniform,0,0,0,0,24,24,24,0,0,1,1,1,1,1,0,1,0,,,,,,0,,25-03-22,25-03-22,13:33:24,Mon Apr 25 2022 13:33:24 GMT+0200 (közép-európai nyári idő),The main experiment item,yes,0,0,C:/Users/rrics/Documents/!!ResearchBMECOGSCI/gnet,0,0,0,prototype1.png,no,mono,no,18,no,black,no,no,768,1229,3.5.6,legacy,xpyriment,osweb,1.3.13,0,space,space,space,,15335,11640,15335,,2,legacy,680,1280,24,720,24,0,0,1280,1650886494961,1024,2,48000,-16,experiment,prototype3.png,1,odd,Win32,117,123495,120483,117,117,151903,153418,146902,125012,146902,117,,,,,,visual_patterns,0,0,0,yes,1366
undefined,undefined,undefined,undefined,white,no,Mozilla,Netscape,"5.0 (Windows NT 10.0; Win64; x64) AppleWebKit/537.36 (KHTML, like Gecko) Chrome/100.0.4896.127 Safari/537.36",xpyriment,legacy,legacy,0,uniform,0,0,0,0,24,24,24,0,0,2,2,2,2,2,0,2,0,,,,,,0,,25-03-22,25-03-22,13:33:24,Mon Apr 25 2022 13:33:24 GMT+0200 (közép-európai nyári idő),The main experiment item,yes,0,0,C:/Users/rrics/Documents/!!ResearchBMECOGSCI/gnet,0,0,0,prototype1.png,no,mono,no,18,no,black,no,no,768,1229,3.5.6,legacy,xpyriment,osweb,1.3.13,0,space,space,space,,15335,11640,15335,,2,legacy,680,1280,24,720,24,0,0,1280,1650886494961,1024,2,48000,-16,experiment,p3sarr1.png,1,odd,Win32,117,123495,120483,117,117,158430,159945,153429,125012,153429,117,,,,,,visual_patterns,0,0,0,yes,1366
undefined,undefined,undefined,undefined,white,no,Mozilla,Netscape,"5.0 (Windows NT 10.0; Win64; x64) AppleWebKit/537.36 (KHTML, like Gecko) Chrome/100.0.4896.127 Safari/537.36",xpyriment,legacy,legacy,0,uniform,0,0,0,0,24,24,24,0,0,3,3,3,3,3,0,3,0,,,,,,0,,25-03-22,25-03-22,13:33:24,Mon Apr 25 2022 13:33:24 GMT+0200 (közép-európai nyári idő),The main experiment item,yes,0,0,C:/Users/rrics/Documents/!!ResearchBMECOGSCI/gnet,0,0,0,prototype1.png,no,mono,no,18,no,black,no,no,768,1229,3.5.6,legacy,xpyriment,osweb,1.3.13,0,space,space,space,,15335,11640,15335,,2,legacy,680,1280,24,720,24,0,0,1280,1650886494961,1024,2,48000,-16,experiment,p9sarr2.png,1,odd,Win32,117,123495,120483,117,117,164953,166454,159957,125012,159957,117,,,,,,visual_patterns,0,0,0,yes,1366
undefined,undefined,undefined,undefined,white,no,Mozilla,Netscape,"5.0 (Windows NT 10.0; Win64; x64) AppleWebKit/537.36 (KHTML, like Gecko) Chrome/100.0.4896.127 Safari/537.36",xpyriment,legacy,legacy,0,uniform,0,0,0,0,24,24,24,0,0,4,4,4,4,4,0,4,0,,,,,,0,,25-03-22,25-03-22,13:33:24,Mon Apr 25 2022 13:33:24 GMT+0200 (közép-európai nyári idő),The main experiment item,yes,0,0,C:/Users/rrics/Documents/!!ResearchBMECOGSCI/gnet,0,0,0,prototype1.png,no,mono,no,18,no,black,no,no,768,1229,3.5.6,legacy,xpyriment,osweb,1.3.13,0,space,space,space,,15335,11640,15335,,2,legacy,680,1280,24,720,24,0,0,1280,1650886494961,1024,2,48000,-16,experiment,p4sarr2.png,1,odd,Win32,117,123495,120483,117,117,171464,172965,166467,125012,166467,117,,,,,,visual_patterns,0,0,0,yes,1366
undefined,undefined,undefined,undefined,white,no,Mozilla,Netscape,"5.0 (Windows NT 10.0; Win64; x64) AppleWebKit/537.36 (KHTML, like Gecko) Chrome/100.0.4896.127 Safari/537.36",xpyriment,legacy,legacy,0,uniform,0,0,0,0,24,24,24,0,0,5,5,5,5,5,0,5,0,,,,,,0,,25-03-22,25-03-22,13:33:24,Mon Apr 25 2022 13:33:24 GMT+0200 (közép-európai nyári idő),The main experiment item,yes,0,0,C:/Users/rrics/Documents/!!ResearchBMECOGSCI/gnet,0,0,0,prototype1.png,no,mono,no,18,no,black,no,no,768,1229,3.5.6,legacy,xpyriment,osweb,1.3.13,0,space,space,space,,15335,11640,15335,,2,legacy,680,1280,24,720,24,0,0,1280,1650886494961,1024,2,48000,-16,experiment,p4sarrshacol2.png,1,odd,Win32,117,123495,120483,117,117,177977,179492,172976,125012,172976,117,,,,,,visual_patterns,0,0,0,yes,1366
undefined,undefined,undefined,undefined,white,no,Mozilla,Netscape,"5.0 (Windows NT 10.0; Win64; x64) AppleWebKit/537.36 (KHTML, like Gecko) Chrome/100.0.4896.127 Safari/537.36",xpyriment,legacy,legacy,0,uniform,0,0,0,0,24,24,24,0,0,6,6,6,6,6,0,6,0,,,,,,0,,25-03-22,25-03-22,13:33:24,Mon Apr 25 2022 13:33:24 GMT+0200 (közép-európai nyári idő),The main experiment item,yes,0,0,C:/Users/rrics/Documents/!!ResearchBMECOGSCI/gnet,0,0,0,prototype1.png,no,mono,no,18,no,black,no,no,768,1229,3.5.6,legacy,xpyriment,osweb,1.3.13,0,space,space,space,,15335,11640,15335,,2,legacy,680,1280,24,720,24,0,0,1280,1650886494961,1024,2,48000,-16,experiment,p5sarrsha2.png,1,odd,Win32,117,123495,120483,117,117,184503,186019,179504,125012,179504,117,,,,,,visual_patterns,0,0,0,yes,1366
undefined,undefined,undefined,undefined,white,no,Mozilla,Netscape,"5.0 (Windows NT 10.0; Win64; x64) AppleWebKit/537.36 (KHTML, like Gecko) Chrome/100.0.4896.127 Safari/537.36",xpyriment,legacy,legacy,0,uniform,0,0,0,0,24,24,24,0,0,7,7,7,7,7,0,7,0,,,,,,0,,25-03-22,25-03-22,13:33:24,Mon Apr 25 2022 13:33:24 GMT+0200 (közép-európai nyári idő),The main experiment item,yes,0,0,C:/Users/rrics/Documents/!!ResearchBMECOGSCI/gnet,0,0,0,prototype1.png,no,mono,no,18,no,black,no,no,768,1229,3.5.6,legacy,xpyriment,osweb,1.3.13,0,space,space,space,,15335,11640,15335,,2,legacy,680,1280,24,720,24,0,0,1280,1650886494961,1024,2,48000,-16,experiment,p2sarr1.png,1,odd,Win32,117,123495,120483,117,117,191029,192530,186031,125012,186031,117,,,,,,visual_patterns,0,0,0,yes,1366
undefined,undefined,undefined,undefined,white,no,Mozilla,Netscape,"5.0 (Windows NT 10.0; Win64; x64) AppleWebKit/537.36 (KHTML, like Gecko) Chrome/100.0.4896.127 Safari/537.36",xpyriment,legacy,legacy,0,uniform,0,0,0,0,24,24,24,0,0,8,8,8,8,8,0,8,0,,,,,,0,,25-03-22,25-03-22,13:33:24,Mon Apr 25 2022 13:33:24 GMT+0200 (közép-európai nyári idő),The main experiment item,yes,0,0,C:/Users/rrics/Documents/!!ResearchBMECOGSCI/gnet,0,0,0,prototype1.png,no,mono,no,18,no,black,no,no,768,1229,3.5.6,legacy,xpyriment,osweb,1.3.13,0,space,space,space,,15335,11640,15335,,2,legacy,680,1280,24,720,24,0,0,1280,1650886494961,1024,2,48000,-16,experiment,prototype4.png,1,odd,Win32,117,123495,120483,117,117,197539,199040,192539,125012,192539,117,,,,,,visual_patterns,0,0,0,yes,1366
undefined,undefined,undefined,undefined,white,no,Mozilla,Netscape,"5.0 (Windows NT 10.0; Win64; x64) AppleWebKit/537.36 (KHTML, like Gecko) Chrome/100.0.4896.127 Safari/537.36",xpyriment,legacy,legacy,0,uniform,0,0,0,0,24,24,24,0,0,9,9,9,9,9,0,9,0,,,,,,0,,25-03-22,25-03-22,13:33:24,Mon Apr 25 2022 13:33:24 GMT+0200 (közép-európai nyári idő),The main experiment item,yes,0,0,C:/Users/rrics/Documents/!!ResearchBMECOGSCI/gnet,0,0,0,prototype1.png,no,mono,no,18,no,black,no,no,768,1229,3.5.6,legacy,xpyriment,osweb,1.3.13,0,space,space,space,,15335,11640,15335,,2,legacy,680,1280,24,720,24,0,0,1280,1650886494961,1024,2,48000,-16,experiment,p5sarrsha1.png,1,odd,Win32,117,123495,120483,117,117,204052,205567,199051,125012,199051,117,,,,,,visual_patterns,0,0,0,yes,1366
undefined,undefined,undefined,undefined,white,no,Mozilla,Netscape,"5.0 (Windows NT 10.0; Win64; x64) AppleWebKit/537.36 (KHTML, like Gecko) Chrome/100.0.4896.127 Safari/537.36",xpyriment,legacy,legacy,0,uniform,0,0,0,0,24,24,24,0,0,10,10,10,10,10,0,10,0,,,,,,0,,25-03-22,25-03-22,13:33:24,Mon Apr 25 2022 13:33:24 GMT+0200 (közép-európai nyári idő),The main experiment item,yes,0,0,C:/Users/rrics/Documents/!!ResearchBMECOGSCI/gnet,0,0,0,prototype1.png,no,mono,no,18,no,black,no,no,768,1229,3.5.6,legacy,xpyriment,osweb,1.3.13,0,space,space,space,,15335,11640,15335,,2,legacy,680,1280,24,720,24,0,0,1280,1650886494961,1024,2,48000,-16,experiment,p5sarrcol1.png,1,odd,Win32,117,123495,120483,117,117,210596,212111,205596,125012,205596,117,,,,,,visual_patterns,0,0,0,yes,1366
undefined,undefined,undefined,undefined,white,no,Mozilla,Netscape,"5.0 (Windows NT 10.0; Win64; x64) AppleWebKit/537.36 (KHTML, like Gecko) Chrome/100.0.4896.127 Safari/537.36",xpyriment,legacy,legacy,0,uniform,0,0,0,0,24,24,24,0,0,11,11,11,11,11,0,11,0,,,,,,0,,25-03-22,25-03-22,13:33:24,Mon Apr 25 2022 13:33:24 GMT+0200 (közép-európai nyári idő),The main experiment item,yes,0,0,C:/Users/rrics/Documents/!!ResearchBMECOGSCI/gnet,0,0,0,prototype1.png,no,mono,no,18,no,black,no,no,768,1229,3.5.6,legacy,xpyriment,osweb,1.3.13,0,space,space,space,,15335,11640,15335,,2,legacy,680,1280,24,720,24,0,0,1280,1650886494961,1024,2,48000,-16,experiment,p8sarr2.png,1,odd,Win32,117,123495,120483,117,117,217123,218638,212125,125012,212125,117,,,,,,visual_patterns,0,0,0,yes,1366
undefined,undefined,undefined,undefined,white,no,Mozilla,Netscape,"5.0 (Windows NT 10.0; Win64; x64) AppleWebKit/537.36 (KHTML, like Gecko) Chrome/100.0.4896.127 Safari/537.36",xpyriment,legacy,legacy,0,uniform,0,0,0,0,24,24,24,0,0,12,12,12,12,12,0,12,0,,,,,,0,,25-03-22,25-03-22,13:33:24,Mon Apr 25 2022 13:33:24 GMT+0200 (közép-európai nyári idő),The main experiment item,yes,0,0,C:/Users/rrics/Documents/!!ResearchBMECOGSCI/gnet,0,0,0,prototype1.png,no,mono,no,18,no,black,no,no,768,1229,3.5.6,legacy,xpyriment,osweb,1.3.13,0,space,space,space,,15335,11640,15335,,2,legacy,680,1280,24,720,24,0,0,1280,1650886494961,1024,2,48000,-16,experiment,p5sarrshacol2.png,1,odd,Win32,117,123495,120483,117,117,223647,225148,218650,125012,218650,117,,,,,,visual_patterns,0,0,0,yes,1366
undefined,undefined,undefined,undefined,white,no,Mozilla,Netscape,"5.0 (Windows NT 10.0; Win64; x64) AppleWebKit/537.36 (KHTML, like Gecko) Chrome/100.0.4896.127 Safari/537.36",xpyriment,legacy,legacy,0,uniform,0,0,0,0,24,24,24,0,0,13,13,13,13,13,0,13,0,,,,,,0,,25-03-22,25-03-22,13:33:24,Mon Apr 25 2022 13:33:24 GMT+0200 (közép-európai nyári idő),The main experiment item,yes,0,0,C:/Users/rrics/Documents/!!ResearchBMECOGSCI/gnet,0,0,0,prototype1.png,no,mono,no,18,no,black,no,no,768,1229,3.5.6,legacy,xpyriment,osweb,1.3.13,0,space,space,space,,15335,11640,15335,,2,legacy,680,1280,24,720,24,0,0,1280,1650886494961,1024,2,48000,-16,experiment,p8sarr1.png,1,odd,Win32,117,123495,120483,117,117,230160,231676,225160,125012,225160,117,,,,,,visual_patterns,0,0,0,yes,1366
undefined,undefined,undefined,undefined,white,no,Mozilla,Netscape,"5.0 (Windows NT 10.0; Win64; x64) AppleWebKit/537.36 (KHTML, like Gecko) Chrome/100.0.4896.127 Safari/537.36",xpyriment,legacy,legacy,0,uniform,0,0,0,0,24,24,24,0,0,14,14,14,14,14,0,14,0,,,,,,0,,25-03-22,25-03-22,13:33:24,Mon Apr 25 2022 13:33:24 GMT+0200 (közép-európai nyári idő),The main experiment item,yes,0,0,C:/Users/rrics/Documents/!!ResearchBMECOGSCI/gnet,0,0,0,prototype1.png,no,mono,no,18,no,black,no,no,768,1229,3.5.6,legacy,xpyriment,osweb,1.3.13,0,space,space,space,,15335,11640,15335,,2,legacy,680,1280,24,720,24,0,0,1280,1650886494961,1024,2,48000,-16,experiment,p3sarrcol1.png,1,odd,Win32,117,123495,120483,117,117,236687,238203,231687,125012,231687,117,,,,,,visual_patterns,0,0,0,yes,1366
undefined,undefined,undefined,undefined,white,no,Mozilla,Netscape,"5.0 (Windows NT 10.0; Win64; x64) AppleWebKit/537.36 (KHTML, like Gecko) Chrome/100.0.4896.127 Safari/537.36",xpyriment,legacy,legacy,0,uniform,0,0,0,0,24,24,24,0,0,15,15,15,15,15,0,15,0,,,,,,0,,25-03-22,25-03-22,13:33:24,Mon Apr 25 2022 13:33:24 GMT+0200 (közép-európai nyári idő),The main experiment item,yes,0,0,C:/Users/rrics/Documents/!!ResearchBMECOGSCI/gnet,0,0,0,prototype1.png,no,mono,no,18,no,black,no,no,768,1229,3.5.6,legacy,xpyriment,osweb,1.3.13,0,space,space,space,,15335,11640,15335,,2,legacy,680,1280,24,720,24,0,0,1280,1650886494961,1024,2,48000,-16,experiment,prototype1.png,1,odd,Win32,117,123495,120483,117,117,243231,244747,238227,125012,238227,117,,,,,,visual_patterns,0,0,0,yes,1366
undefined,undefined,undefined,undefined,white,no,Mozilla,Netscape,"5.0 (Windows NT 10.0; Win64; x64) AppleWebKit/537.36 (KHTML, like Gecko) Chrome/100.0.4896.127 Safari/537.36",xpyriment,legacy,legacy,0,uniform,0,0,0,0,24,24,24,0,0,16,16,16,16,16,0,16,0,,,,,,0,,25-03-22,25-03-22,13:33:24,Mon Apr 25 2022 13:33:24 GMT+0200 (közép-európai nyári idő),The main experiment item,yes,0,0,C:/Users/rrics/Documents/!!ResearchBMECOGSCI/gnet,0,0,0,prototype1.png,no,mono,no,18,no,black,no,no,768,1229,3.5.6,legacy,xpyriment,osweb,1.3.13,0,space,space,space,,15335,11640,15335,,2,legacy,680,1280,24,720,24,0,0,1280,1650886494961,1024,2,48000,-16,experiment,p2sarr2.png,1,odd,Win32,117,123495,120483,117,117,249760,251273,244760,125012,244760,117,,,,,,visual_patterns,0,0,0,yes,1366
undefined,undefined,undefined,undefined,white,no,Mozilla,Netscape,"5.0 (Windows NT 10.0; Win64; x64) AppleWebKit/537.36 (KHTML, like Gecko) Chrome/100.0.4896.127 Safari/537.36",xpyriment,legacy,legacy,0,uniform,0,0,0,0,24,24,24,0,0,17,17,17,17,17,0,17,0,,,,,,0,,25-03-22,25-03-22,13:33:24,Mon Apr 25 2022 13:33:24 GMT+0200 (közép-európai nyári idő),The main experiment item,yes,0,0,C:/Users/rrics/Documents/!!ResearchBMECOGSCI/gnet,0,0,0,prototype1.png,no,mono,no,18,no,black,no,no,768,1229,3.5.6,legacy,xpyriment,osweb,1.3.13,0,space,space,space,,15335,11640,15335,,2,legacy,680,1280,24,720,24,0,0,1280,1650886494961,1024,2,48000,-16,experiment,p3sarrsha2.png,1,odd,Win32,117,123495,120483,117,117,256283,257785,251285,125012,251285,117,,,,,,visual_patterns,0,0,0,yes,1366
undefined,undefined,undefined,undefined,white,no,Mozilla,Netscape,"5.0 (Windows NT 10.0; Win64; x64) AppleWebKit/537.36 (KHTML, like Gecko) Chrome/100.0.4896.127 Safari/537.36",xpyriment,legacy,legacy,0,uniform,0,0,0,0,24,24,24,0,0,18,18,18,18,18,0,18,0,,,,,,0,,25-03-22,25-03-22,13:33:24,Mon Apr 25 2022 13:33:24 GMT+0200 (közép-európai nyári idő),The main experiment item,yes,0,0,C:/Users/rrics/Documents/!!ResearchBMECOGSCI/gnet,0,0,0,prototype1.png,no,mono,no,18,no,black,no,no,768,1229,3.5.6,legacy,xpyriment,osweb,1.3.13,0,space,space,space,,15335,11640,15335,,2,legacy,680,1280,24,720,24,0,0,1280,1650886494961,1024,2,48000,-16,experiment,prototype4.png,1,odd,Win32,117,123495,120483,117,117,262795,264313,257794,125012,257794,117,,,,,,visual_patterns,0,0,0,yes,1366
undefined,undefined,undefined,undefined,white,no,Mozilla,Netscape,"5.0 (Windows NT 10.0; Win64; x64) AppleWebKit/537.36 (KHTML, like Gecko) Chrome/100.0.4896.127 Safari/537.36",xpyriment,legacy,legacy,0,uniform,0,0,0,0,24,24,24,0,0,19,19,19,19,19,0,19,0,,,,,,0,,25-03-22,25-03-22,13:33:24,Mon Apr 25 2022 13:33:24 GMT+0200 (közép-európai nyári idő),The main experiment item,yes,0,0,C:/Users/rrics/Documents/!!ResearchBMECOGSCI/gnet,0,0,0,prototype1.png,no,mono,no,18,no,black,no,no,768,1229,3.5.6,legacy,xpyriment,osweb,1.3.13,0,space,space,space,,15335,11640,15335,,2,legacy,680,1280,24,720,24,0,0,1280,1650886494961,1024,2,48000,-16,experiment,p3sarrsha1.png,1,odd,Win32,117,123495,120483,117,117,269325,270839,264325,125012,264325,117,,,,,,visual_patterns,0,0,0,yes,1366
undefined,undefined,undefined,undefined,white,no,Mozilla,Netscape,"5.0 (Windows NT 10.0; Win64; x64) AppleWebKit/537.36 (KHTML, like Gecko) Chrome/100.0.4896.127 Safari/537.36",xpyriment,legacy,legacy,0,uniform,0,0,0,0,24,24,24,0,0,20,20,20,20,20,0,20,0,,,,,,0,,25-03-22,25-03-22,13:33:24,Mon Apr 25 2022 13:33:24 GMT+0200 (közép-európai nyári idő),The main experiment item,yes,0,0,C:/Users/rrics/Documents/!!ResearchBMECOGSCI/gnet,0,0,0,prototype1.png,no,mono,no,18,no,black,no,no,768,1229,3.5.6,legacy,xpyriment,osweb,1.3.13,0,space,space,space,,15335,11640,15335,,2,legacy,680,1280,24,720,24,0,0,1280,1650886494961,1024,2,48000,-16,experiment,prototype2.png,1,odd,Win32,117,123495,120483,117,117,275863,277367,270864,125012,270864,117,,,,,,visual_patterns,0,0,0,yes,1366
undefined,undefined,undefined,undefined,white,no,Mozilla,Netscape,"5.0 (Windows NT 10.0; Win64; x64) AppleWebKit/537.36 (KHTML, like Gecko) Chrome/100.0.4896.127 Safari/537.36",xpyriment,legacy,legacy,0,uniform,0,0,0,0,24,24,24,0,0,21,21,21,21,21,0,21,0,,,,,,0,,25-03-22,25-03-22,13:33:24,Mon Apr 25 2022 13:33:24 GMT+0200 (közép-európai nyári idő),The main experiment item,yes,0,0,C:/Users/rrics/Documents/!!ResearchBMECOGSCI/gnet,0,0,0,prototype1.png,no,mono,no,18,no,black,no,no,768,1229,3.5.6,legacy,xpyriment,osweb,1.3.13,0,space,space,space,,15335,11640,15335,,2,legacy,680,1280,24,720,24,0,0,1280,1650886494961,1024,2,48000,-16,experiment,p4sarrcol2.png,1,odd,Win32,117,123495,120483,117,117,282379,283893,277379,125012,277379,117,,,,,,visual_patterns,0,0,0,yes,1366
undefined,undefined,undefined,undefined,white,no,Mozilla,Netscape,"5.0 (Windows NT 10.0; Win64; x64) AppleWebKit/537.36 (KHTML, like Gecko) Chrome/100.0.4896.127 Safari/537.36",xpyriment,legacy,legacy,0,uniform,0,0,0,0,24,24,24,0,0,22,22,22,22,22,0,22,0,,,,,,0,,25-03-22,25-03-22,13:33:24,Mon Apr 25 2022 13:33:24 GMT+0200 (közép-európai nyári idő),The main experiment item,yes,0,0,C:/Users/rrics/Documents/!!ResearchBMECOGSCI/gnet,0,0,0,prototype1.png,no,mono,no,18,no,black,no,no,768,1229,3.5.6,legacy,xpyriment,osweb,1.3.13,0,space,space,space,,15335,11640,15335,,2,legacy,680,1280,24,720,24,0,0,1280,1650886494961,1024,2,48000,-16,experiment,p5sarrshacol1.png,1,odd,Win32,117,123495,120483,117,117,288905,290420,283906,125012,283906,117,,,,,,visual_patterns,0,0,0,yes,1366
undefined,undefined,undefined,undefined,white,no,Mozilla,Netscape,"5.0 (Windows NT 10.0; Win64; x64) AppleWebKit/537.36 (KHTML, like Gecko) Chrome/100.0.4896.127 Safari/537.36",xpyriment,legacy,legacy,0,uniform,0,0,0,0,24,24,24,0,0,23,23,23,23,23,0,23,0,,,,,,0,,25-03-22,25-03-22,13:33:24,Mon Apr 25 2022 13:33:24 GMT+0200 (közép-európai nyári idő),The main experiment item,yes,0,0,C:/Users/rrics/Documents/!!ResearchBMECOGSCI/gnet,0,0,0,prototype1.png,no,mono,no,18,no,black,no,no,768,1229,3.5.6,legacy,xpyriment,osweb,1.3.13,0,space,space,space,,15335,11640,15335,,2,legacy,680,1280,24,720,24,0,0,1280,1650886494961,1024,2,48000,-16,experiment,prototype2.png,1,odd,Win32,117,123495,120483,117,117,295432,296948,290430,125012,290430,117,,,,,,visual_patterns,0,0,0,yes,1366
undefined,undefined,undefined,undefined,white,no,Mozilla,Netscape,"5.0 (Windows NT 10.0; Win64; x64) AppleWebKit/537.36 (KHTML, like Gecko) Chrome/100.0.4896.127 Safari/537.36",xpyriment,legacy,legacy,0,uniform,0,0,0,0,24,24,24,0,0,24,24,24,24,24,0,24,0,,,,,,0,,25-03-22,25-03-22,13:33:24,Mon Apr 25 2022 13:33:24 GMT+0200 (közép-európai nyári idő),The main experiment item,yes,0,0,C:/Users/rrics/Documents/!!ResearchBMECOGSCI/gnet,0,0,0,prototype1.png,no,mono,no,18,no,black,no,no,768,1229,3.5.6,legacy,xpyriment,osweb,1.3.13,0,space,space,space,,15335,11640,15335,,2,legacy,680,1280,24,720,24,0,0,1280,1650886494961,1024,2,48000,-16,experiment,p4sarrsha2.png,1,odd,Win32,117,123495,120483,117,117,301961,303475,296960,125012,296960,117,,,,,,visual_patterns,0,0,0,yes,1366
undefined,undefined,undefined,undefined,white,no,Mozilla,Netscape,"5.0 (Windows NT 10.0; Win64; x64) AppleWebKit/537.36 (KHTML, like Gecko) Chrome/100.0.4896.127 Safari/537.36",xpyriment,legacy,legacy,0,uniform,0,0,0,0,24,24,24,0,0,25,25,25,25,25,0,25,0,,,,,,0,,25-03-22,25-03-22,13:33:24,Mon Apr 25 2022 13:33:24 GMT+0200 (közép-európai nyári idő),The main experiment item,yes,0,0,C:/Users/rrics/Documents/!!ResearchBMECOGSCI/gnet,0,0,0,prototype1.png,no,mono,no,18,no,black,no,no,768,1229,3.5.6,legacy,xpyriment,osweb,1.3.13,0,space,space,space,,15335,11640,15335,,2,legacy,680,1280,24,720,24,0,0,1280,1650886494961,1024,2,48000,-16,experiment,p9sarr1.png,1,odd,Win32,117,123495,120483,117,117,308500,310002,303503,125012,303503,117,,,,,,visual_patterns,0,0,0,yes,1366
undefined,undefined,undefined,undefined,white,no,Mozilla,Netscape,"5.0 (Windows NT 10.0; Win64; x64) AppleWebKit/537.36 (KHTML, like Gecko) Chrome/100.0.4896.127 Safari/537.36",xpyriment,legacy,legacy,0,uniform,0,0,0,0,24,24,24,0,0,26,26,26,26,26,0,26,0,,,,,,0,,25-03-22,25-03-22,13:33:24,Mon Apr 25 2022 13:33:24 GMT+0200 (közép-európai nyári idő),The main experiment item,yes,0,0,C:/Users/rrics/Documents/!!ResearchBMECOGSCI/gnet,0,0,0,prototype1.png,no,mono,no,18,no,black,no,no,768,1229,3.5.6,legacy,xpyriment,osweb,1.3.13,0,space,space,space,,15335,11640,15335,,2,legacy,680,1280,24,720,24,0,0,1280,1650886494961,1024,2,48000,-16,experiment,prototype1.png,1,odd,Win32,117,123495,120483,117,117,315012,316529,310011,125012,310011,117,,,,,,visual_patterns,0,0,0,yes,1366
undefined,undefined,undefined,undefined,white,no,Mozilla,Netscape,"5.0 (Windows NT 10.0; Win64; x64) AppleWebKit/537.36 (KHTML, like Gecko) Chrome/100.0.4896.127 Safari/537.36",xpyriment,legacy,legacy,0,uniform,0,0,0,0,24,24,24,0,0,27,27,27,27,27,0,27,0,,,,,,0,,25-03-22,25-03-22,13:33:24,Mon Apr 25 2022 13:33:24 GMT+0200 (közép-európai nyári idő),The main experiment item,yes,0,0,C:/Users/rrics/Documents/!!ResearchBMECOGSCI/gnet,0,0,0,prototype1.png,no,mono,no,18,no,black,no,no,768,1229,3.5.6,legacy,xpyriment,osweb,1.3.13,0,space,space,space,,15335,11640,15335,,2,legacy,680,1280,24,720,24,0,0,1280,1650886494961,1024,2,48000,-16,experiment,p4sarrcol1.png,1,odd,Win32,117,123495,120483,117,117,321539,323041,316541,125012,316541,117,,,,,,visual_patterns,0,0,0,yes,1366
undefined,undefined,undefined,undefined,white,no,Mozilla,Netscape,"5.0 (Windows NT 10.0; Win64; x64) AppleWebKit/537.36 (KHTML, like Gecko) Chrome/100.0.4896.127 Safari/537.36",xpyriment,legacy,legacy,0,uniform,0,0,0,0,24,24,24,0,0,28,28,28,28,28,0,28,0,,,,,,0,,25-03-22,25-03-22,13:33:24,Mon Apr 25 2022 13:33:24 GMT+0200 (közép-európai nyári idő),The main experiment item,yes,0,0,C:/Users/rrics/Documents/!!ResearchBMECOGSCI/gnet,0,0,0,prototype1.png,no,mono,no,18,no,black,no,no,768,1229,3.5.6,legacy,xpyriment,osweb,1.3.13,0,space,space,space,,15335,11640,15335,,2,legacy,680,1280,24,720,24,0,0,1280,1650886494961,1024,2,48000,-16,experiment,prototype4.png,1,odd,Win32,117,123495,120483,117,117,328049,329566,323049,125012,323049,117,,,,,,visual_patterns,0,0,0,yes,1366
undefined,undefined,undefined,undefined,white,no,Mozilla,Netscape,"5.0 (Windows NT 10.0; Win64; x64) AppleWebKit/537.36 (KHTML, like Gecko) Chrome/100.0.4896.127 Safari/537.36",xpyriment,legacy,legacy,0,uniform,0,0,0,0,24,24,24,0,0,29,29,29,29,29,0,29,0,,,,,,0,,25-03-22,25-03-22,13:33:24,Mon Apr 25 2022 13:33:24 GMT+0200 (közép-európai nyári idő),The main experiment item,yes,0,0,C:/Users/rrics/Documents/!!ResearchBMECOGSCI/gnet,0,0,0,prototype1.png,no,mono,no,18,no,black,no,no,768,1229,3.5.6,legacy,xpyriment,osweb,1.3.13,0,space,space,space,,15335,11640,15335,,2,legacy,680,1280,24,720,24,0,0,1280,1650886494961,1024,2,48000,-16,experiment,prototype5.png,1,odd,Win32,117,123495,120483,117,117,334576,336077,329576,125012,329576,117,,,,,,visual_patterns,0,0,0,yes,1366
undefined,undefined,undefined,undefined,white,no,Mozilla,Netscape,"5.0 (Windows NT 10.0; Win64; x64) AppleWebKit/537.36 (KHTML, like Gecko) Chrome/100.0.4896.127 Safari/537.36",xpyriment,legacy,legacy,0,uniform,0,0,0,0,24,24,24,0,0,30,30,30,30,30,0,30,0,,,,,,0,,25-03-22,25-03-22,13:33:24,Mon Apr 25 2022 13:33:24 GMT+0200 (közép-európai nyári idő),The main experiment item,yes,0,0,C:/Users/rrics/Documents/!!ResearchBMECOGSCI/gnet,0,0,0,prototype1.png,no,mono,no,18,no,black,no,no,768,1229,3.5.6,legacy,xpyriment,osweb,1.3.13,0,space,space,space,,15335,11640,15335,,2,legacy,680,1280,24,720,24,0,0,1280,1650886494961,1024,2,48000,-16,experiment,p5sarrcol2.png,1,odd,Win32,117,123495,120483,117,117,341102,342604,336104,125012,336104,117,,,,,,visual_patterns,0,0,0,yes,1366
undefined,undefined,undefined,undefined,white,no,Mozilla,Netscape,"5.0 (Windows NT 10.0; Win64; x64) AppleWebKit/537.36 (KHTML, like Gecko) Chrome/100.0.4896.127 Safari/537.36",xpyriment,legacy,legacy,0,uniform,0,0,0,0,24,24,24,0,0,31,31,31,31,31,0,31,0,,,,,,0,,25-03-22,25-03-22,13:33:24,Mon Apr 25 2022 13:33:24 GMT+0200 (közép-európai nyári idő),The main experiment item,yes,0,0,C:/Users/rrics/Documents/!!ResearchBMECOGSCI/gnet,0,0,0,prototype1.png,no,mono,no,18,no,black,no,no,768,1229,3.5.6,legacy,xpyriment,osweb,1.3.13,0,space,space,space,,15335,11640,15335,,2,legacy,680,1280,24,720,24,0,0,1280,1650886494961,1024,2,48000,-16,experiment,p2sarrsha2.png,1,odd,Win32,117,123495,120483,117,117,347615,349132,342616,125012,342616,117,,,,,,visual_patterns,0,0,0,yes,1366
undefined,undefined,undefined,undefined,white,no,Mozilla,Netscape,"5.0 (Windows NT 10.0; Win64; x64) AppleWebKit/537.36 (KHTML, like Gecko) Chrome/100.0.4896.127 Safari/537.36",xpyriment,legacy,legacy,0,uniform,0,0,0,0,24,24,24,0,0,32,32,32,32,32,0,32,0,,,,,,0,,25-03-22,25-03-22,13:33:24,Mon Apr 25 2022 13:33:24 GMT+0200 (közép-európai nyári idő),The main experiment item,yes,0,0,C:/Users/rrics/Documents/!!ResearchBMECOGSCI/gnet,0,0,0,prototype1.png,no,mono,no,18,no,black,no,no,768,1229,3.5.6,legacy,xpyriment,osweb,1.3.13,0,space,space,space,,15335,11640,15335,,2,legacy,680,1280,24,720,24,0,0,1280,1650886494961,1024,2,48000,-16,experiment,p5sarr1.png,1,odd,Win32,117,123495,120483,117,117,354142,355658,349144,125012,349143,117,,,,,,visual_patterns,0,0,0,yes,1366
undefined,undefined,undefined,undefined,white,no,Mozilla,Netscape,"5.0 (Windows NT 10.0; Win64; x64) AppleWebKit/537.36 (KHTML, like Gecko) Chrome/100.0.4896.127 Safari/537.36",xpyriment,legacy,legacy,0,uniform,0,0,0,0,24,24,24,0,0,33,33,33,33,33,0,33,0,,,,,,0,,25-03-22,25-03-22,13:33:24,Mon Apr 25 2022 13:33:24 GMT+0200 (közép-európai nyári idő),The main experiment item,yes,0,0,C:/Users/rrics/Documents/!!ResearchBMECOGSCI/gnet,0,0,0,prototype1.png,no,mono,no,18,no,black,no,no,768,1229,3.5.6,legacy,xpyriment,osweb,1.3.13,0,space,space,space,,15335,11640,15335,,2,legacy,680,1280,24,720,24,0,0,1280,1650886494961,1024,2,48000,-16,experiment,p3sarrshacol1.png,1,odd,Win32,117,123495,120483,117,117,360670,362186,355671,125012,355671,117,,,,,,visual_patterns,0,0,0,yes,1366
undefined,undefined,undefined,undefined,white,no,Mozilla,Netscape,"5.0 (Windows NT 10.0; Win64; x64) AppleWebKit/537.36 (KHTML, like Gecko) Chrome/100.0.4896.127 Safari/537.36",xpyriment,legacy,legacy,0,uniform,0,0,0,0,24,24,24,0,0,34,34,34,34,34,0,34,0,,,,,,0,,25-03-22,25-03-22,13:33:24,Mon Apr 25 2022 13:33:24 GMT+0200 (közép-európai nyári idő),The main experiment item,yes,0,0,C:/Users/rrics/Documents/!!ResearchBMECOGSCI/gnet,0,0,0,prototype1.png,no,mono,no,18,no,black,no,no,768,1229,3.5.6,legacy,xpyriment,osweb,1.3.13,0,space,space,space,,15335,11640,15335,,2,legacy,680,1280,24,720,24,0,0,1280,1650886494961,1024,2,48000,-16,experiment,prototype1.png,1,odd,Win32,117,123495,120483,117,117,367194,368696,362194,125012,362194,117,,,,,,visual_patterns,0,0,0,yes,1366
undefined,undefined,undefined,undefined,white,no,Mozilla,Netscape,"5.0 (Windows NT 10.0; Win64; x64) AppleWebKit/537.36 (KHTML, like Gecko) Chrome/100.0.4896.127 Safari/537.36",xpyriment,legacy,legacy,0,uniform,0,0,0,0,24,24,24,0,0,35,35,35,35,35,0,35,0,,,,,,0,,25-03-22,25-03-22,13:33:24,Mon Apr 25 2022 13:33:24 GMT+0200 (közép-európai nyári idő),The main experiment item,yes,0,0,C:/Users/rrics/Documents/!!ResearchBMECOGSCI/gnet,0,0,0,prototype1.png,no,mono,no,18,no,black,no,no,768,1229,3.5.6,legacy,xpyriment,osweb,1.3.13,0,space,space,space,,15335,11640,15335,,2,legacy,680,1280,24,720,24,0,0,1280,1650886494961,1024,2,48000,-16,experiment,p4sarrshacol1.png,1,odd,Win32,117,123495,120483,117,117,373725,375240,368724,125012,368724,117,,,,,,visual_patterns,0,0,0,yes,1366
undefined,undefined,undefined,undefined,white,no,Mozilla,Netscape,"5.0 (Windows NT 10.0; Win64; x64) AppleWebKit/537.36 (KHTML, like Gecko) Chrome/100.0.4896.127 Safari/537.36",xpyriment,legacy,legacy,0,uniform,0,0,0,0,24,24,24,0,0,36,36,36,36,36,0,36,0,,,,,,0,,25-03-22,25-03-22,13:33:24,Mon Apr 25 2022 13:33:24 GMT+0200 (közép-európai nyári idő),The main experiment item,yes,0,0,C:/Users/rrics/Documents/!!ResearchBMECOGSCI/gnet,0,0,0,prototype1.png,no,mono,no,18,no,black,no,no,768,1229,3.5.6,legacy,xpyriment,osweb,1.3.13,0,space,space,space,,15335,11640,15335,,2,legacy,680,1280,24,720,24,0,0,1280,1650886494961,1024,2,48000,-16,experiment,prototype3.png,1,odd,Win32,117,123495,120483,117,117,380252,381767,375251,125012,375250,117,,,,,,visual_patterns,0,0,0,yes,1366
undefined,undefined,undefined,undefined,white,no,Mozilla,Netscape,"5.0 (Windows NT 10.0; Win64; x64) AppleWebKit/537.36 (KHTML, like Gecko) Chrome/100.0.4896.127 Safari/537.36",xpyriment,legacy,legacy,0,uniform,0,0,0,0,24,24,24,0,0,37,37,37,37,37,0,37,0,,,,,,0,,25-03-22,25-03-22,13:33:24,Mon Apr 25 2022 13:33:24 GMT+0200 (közép-európai nyári idő),The main experiment item,yes,0,0,C:/Users/rrics/Documents/!!ResearchBMECOGSCI/gnet,0,0,0,prototype1.png,no,mono,no,18,no,black,no,no,768,1229,3.5.6,legacy,xpyriment,osweb,1.3.13,0,space,space,space,,15335,11640,15335,,2,legacy,680,1280,24,720,24,0,0,1280,1650886494961,1024,2,48000,-16,experiment,prototype3.png,1,odd,Win32,117,123495,120483,117,117,386778,388294,381778,125012,381778,117,,,,,,visual_patterns,0,0,0,yes,1366
undefined,undefined,undefined,undefined,white,no,Mozilla,Netscape,"5.0 (Windows NT 10.0; Win64; x64) AppleWebKit/537.36 (KHTML, like Gecko) Chrome/100.0.4896.127 Safari/537.36",xpyriment,legacy,legacy,0,uniform,0,0,0,0,24,24,24,0,0,38,38,38,38,38,0,38,0,,,,,,0,,25-03-22,25-03-22,13:33:24,Mon Apr 25 2022 13:33:24 GMT+0200 (közép-európai nyári idő),The main experiment item,yes,0,0,C:/Users/rrics/Documents/!!ResearchBMECOGSCI/gnet,0,0,0,prototype1.png,no,mono,no,18,no,black,no,no,768,1229,3.5.6,legacy,xpyriment,osweb,1.3.13,0,space,space,space,,15335,11640,15335,,2,legacy,680,1280,24,720,24,0,0,1280,1650886494961,1024,2,48000,-16,experiment,p7sarr1.png,1,odd,Win32,117,123495,120483,117,117,393304,394806,388302,125012,388302,117,,,,,,visual_patterns,0,0,0,yes,1366
undefined,undefined,undefined,undefined,white,no,Mozilla,Netscape,"5.0 (Windows NT 10.0; Win64; x64) AppleWebKit/537.36 (KHTML, like Gecko) Chrome/100.0.4896.127 Safari/537.36",xpyriment,legacy,legacy,0,uniform,0,0,0,0,24,24,24,0,0,39,39,39,39,39,0,39,0,,,,,,0,,25-03-22,25-03-22,13:33:24,Mon Apr 25 2022 13:33:24 GMT+0200 (közép-európai nyári idő),The main experiment item,yes,0,0,C:/Users/rrics/Documents/!!ResearchBMECOGSCI/gnet,0,0,0,prototype1.png,no,mono,no,18,no,black,no,no,768,1229,3.5.6,legacy,xpyriment,osweb,1.3.13,0,space,space,space,,15335,11640,15335,,2,legacy,680,1280,24,720,24,0,0,1280,1650886494961,1024,2,48000,-16,experiment,p1sarrsha1.png,1,odd,Win32,117,123495,120483,117,117,399816,401332,394817,125012,394817,117,,,,,,visual_patterns,0,0,0,yes,1366
undefined,undefined,undefined,undefined,white,no,Mozilla,Netscape,"5.0 (Windows NT 10.0; Win64; x64) AppleWebKit/537.36 (KHTML, like Gecko) Chrome/100.0.4896.127 Safari/537.36",xpyriment,legacy,legacy,0,uniform,0,0,0,0,24,24,24,0,0,40,40,40,40,40,0,40,0,,,,,,0,,25-03-22,25-03-22,13:33:24,Mon Apr 25 2022 13:33:24 GMT+0200 (közép-európai nyári idő),The main experiment item,yes,0,0,C:/Users/rrics/Documents/!!ResearchBMECOGSCI/gnet,0,0,0,prototype1.png,no,mono,no,18,no,black,no,no,768,1229,3.5.6,legacy,xpyriment,osweb,1.3.13,0,space,space,space,,15335,11640,15335,,2,legacy,680,1280,24,720,24,0,0,1280,1650886494961,1024,2,48000,-16,experiment,prototype5.png,1,odd,Win32,117,123495,120483,117,117,406360,407876,401357,125012,401357,117,,,,,,visual_patterns,0,0,0,yes,1366
undefined,undefined,undefined,undefined,white,no,Mozilla,Netscape,"5.0 (Windows NT 10.0; Win64; x64) AppleWebKit/537.36 (KHTML, like Gecko) Chrome/100.0.4896.127 Safari/537.36",xpyriment,legacy,legacy,0,uniform,0,0,0,0,24,24,24,0,0,41,41,41,41,41,0,41,0,,,,,,0,,25-03-22,25-03-22,13:33:24,Mon Apr 25 2022 13:33:24 GMT+0200 (közép-európai nyári idő),The main experiment item,yes,0,0,C:/Users/rrics/Documents/!!ResearchBMECOGSCI/gnet,0,0,0,prototype1.png,no,mono,no,18,no,black,no,no,768,1229,3.5.6,legacy,xpyriment,osweb,1.3.13,0,space,space,space,,15335,11640,15335,,2,legacy,680,1280,24,720,24,0,0,1280,1650886494961,1024,2,48000,-16,experiment,p3sarrshacol2.png,1,odd,Win32,117,123495,120483,117,117,412889,414403,407889,125012,407889,117,,,,,,visual_patterns,0,0,0,yes,1366
undefined,undefined,undefined,undefined,white,no,Mozilla,Netscape,"5.0 (Windows NT 10.0; Win64; x64) AppleWebKit/537.36 (KHTML, like Gecko) Chrome/100.0.4896.127 Safari/537.36",xpyriment,legacy,legacy,0,uniform,0,0,0,0,24,24,24,0,0,42,42,42,42,42,0,42,0,,,,,,0,,25-03-22,25-03-22,13:33:24,Mon Apr 25 2022 13:33:24 GMT+0200 (közép-európai nyári idő),The main experiment item,yes,0,0,C:/Users/rrics/Documents/!!ResearchBMECOGSCI/gnet,0,0,0,prototype1.png,no,mono,no,18,no,black,no,no,768,1229,3.5.6,legacy,xpyriment,osweb,1.3.13,0,space,space,space,,15335,11640,15335,,2,legacy,680,1280,24,720,24,0,0,1280,1650886494961,1024,2,48000,-16,experiment,p3sarrcol2.png,1,odd,Win32,117,123495,120483,117,117,419415,420930,414414,125012,414414,117,,,,,,visual_patterns,0,0,0,yes,1366
undefined,undefined,undefined,undefined,white,no,Mozilla,Netscape,"5.0 (Windows NT 10.0; Win64; x64) AppleWebKit/537.36 (KHTML, like Gecko) Chrome/100.0.4896.127 Safari/537.36",xpyriment,legacy,legacy,0,uniform,0,0,0,0,24,24,24,0,0,43,43,43,43,43,0,43,0,,,,,,0,,25-03-22,25-03-22,13:33:24,Mon Apr 25 2022 13:33:24 GMT+0200 (közép-európai nyári idő),The main experiment item,yes,0,0,C:/Users/rrics/Documents/!!ResearchBMECOGSCI/gnet,0,0,0,prototype1.png,no,mono,no,18,no,black,no,no,768,1229,3.5.6,legacy,xpyriment,osweb,1.3.13,0,space,space,space,,15335,11640,15335,,2,legacy,680,1280,24,720,24,0,0,1280,1650886494961,1024,2,48000,-16,experiment,p3sarr2.png,1,odd,Win32,117,123495,120483,117,117,425939,427442,420942,125012,420942,117,,,,,,visual_patterns,0,0,0,yes,1366
undefined,undefined,undefined,undefined,white,no,Mozilla,Netscape,"5.0 (Windows NT 10.0; Win64; x64) AppleWebKit/537.36 (KHTML, like Gecko) Chrome/100.0.4896.127 Safari/537.36",xpyriment,legacy,legacy,0,uniform,0,0,0,0,24,24,24,0,0,44,44,44,44,44,0,44,0,,,,,,0,,25-03-22,25-03-22,13:33:24,Mon Apr 25 2022 13:33:24 GMT+0200 (közép-európai nyári idő),The main experiment item,yes,0,0,C:/Users/rrics/Documents/!!ResearchBMECOGSCI/gnet,0,0,0,prototype1.png,no,mono,no,18,no,black,no,no,768,1229,3.5.6,legacy,xpyriment,osweb,1.3.13,0,space,space,space,,15335,11640,15335,,2,legacy,680,1280,24,720,24,0,0,1280,1650886494961,1024,2,48000,-16,experiment,p2sarrsha1.png,1,odd,Win32,117,123495,120483,117,117,432453,433967,427453,125012,427453,117,,,,,,visual_patterns,0,0,0,yes,1366
undefined,undefined,undefined,undefined,white,no,Mozilla,Netscape,"5.0 (Windows NT 10.0; Win64; x64) AppleWebKit/537.36 (KHTML, like Gecko) Chrome/100.0.4896.127 Safari/537.36",xpyriment,legacy,legacy,0,uniform,0,0,0,0,24,24,24,0,0,45,45,45,45,45,0,45,0,,,,,,0,,25-03-22,25-03-22,13:33:24,Mon Apr 25 2022 13:33:24 GMT+0200 (közép-európai nyári idő),The main experiment item,yes,0,0,C:/Users/rrics/Documents/!!ResearchBMECOGSCI/gnet,0,0,0,prototype1.png,no,mono,no,18,no,black,no,no,768,1229,3.5.6,legacy,xpyriment,osweb,1.3.13,0,space,space,space,,15335,11640,15335,,2,legacy,680,1280,24,720,24,0,0,1280,1650886494961,1024,2,48000,-16,experiment,p4sarrsha1.png,1,odd,Win32,117,123495,120483,117,117,438992,440494,433994,125012,433994,117,,,,,,visual_patterns,0,0,0,yes,1366
undefined,undefined,undefined,undefined,white,no,Mozilla,Netscape,"5.0 (Windows NT 10.0; Win64; x64) AppleWebKit/537.36 (KHTML, like Gecko) Chrome/100.0.4896.127 Safari/537.36",xpyriment,legacy,legacy,0,uniform,0,0,0,0,24,24,24,0,0,46,46,46,46,46,0,46,0,,,,,,0,,25-03-22,25-03-22,13:33:24,Mon Apr 25 2022 13:33:24 GMT+0200 (közép-európai nyári idő),The main experiment item,yes,0,0,C:/Users/rrics/Documents/!!ResearchBMECOGSCI/gnet,0,0,0,prototype1.png,no,mono,no,18,no,black,no,no,768,1229,3.5.6,legacy,xpyriment,osweb,1.3.13,0,space,space,space,,15335,11640,15335,,2,legacy,680,1280,24,720,24,0,0,1280,1650886494961,1024,2,48000,-16,experiment,p1sarrcol1.png,1,odd,Win32,117,123495,120483,117,117,445502,447006,440505,125012,440505,117,,,,,,visual_patterns,0,0,0,yes,1366
undefined,undefined,undefined,undefined,white,no,Mozilla,Netscape,"5.0 (Windows NT 10.0; Win64; x64) AppleWebKit/537.36 (KHTML, like Gecko) Chrome/100.0.4896.127 Safari/537.36",xpyriment,legacy,legacy,0,uniform,0,0,0,0,24,24,24,0,0,47,47,47,47,47,0,47,0,,,,,,0,,25-03-22,25-03-22,13:33:24,Mon Apr 25 2022 13:33:24 GMT+0200 (közép-európai nyári idő),The main experiment item,yes,0,0,C:/Users/rrics/Documents/!!ResearchBMECOGSCI/gnet,0,0,0,prototype1.png,no,mono,no,18,no,black,no,no,768,1229,3.5.6,legacy,xpyriment,osweb,1.3.13,0,space,space,space,,15335,11640,15335,,2,legacy,680,1280,24,720,24,0,0,1280,1650886494961,1024,2,48000,-16,experiment,p1sarrsha2.png,1,odd,Win32,117,123495,120483,117,117,452019,453533,447018,125012,447018,117,,,,,,visual_patterns,0,0,0,yes,1366
undefined,undefined,undefined,undefined,white,no,Mozilla,Netscape,"5.0 (Windows NT 10.0; Win64; x64) AppleWebKit/537.36 (KHTML, like Gecko) Chrome/100.0.4896.127 Safari/537.36",xpyriment,legacy,legacy,0,uniform,0,0,0,0,24,24,24,0,0,48,48,48,48,48,0,48,0,,,,,,0,,25-03-22,25-03-22,13:33:24,Mon Apr 25 2022 13:33:24 GMT+0200 (közép-európai nyári idő),The main experiment item,yes,0,0,C:/Users/rrics/Documents/!!ResearchBMECOGSCI/gnet,0,0,0,prototype1.png,no,mono,no,18,no,black,no,no,768,1229,3.5.6,legacy,xpyriment,osweb,1.3.13,0,space,space,space,,15335,11640,15335,,2,legacy,680,1280,24,720,24,0,0,1280,1650886494961,1024,2,48000,-16,experiment,p7sarr2.png,1,odd,Win32,117,123495,120483,117,117,458544,460060,453544,125012,453544,117,,,,,,visual_patterns,0,0,0,yes,1366
undefined,undefined,undefined,undefined,white,no,Mozilla,Netscape,"5.0 (Windows NT 10.0; Win64; x64) AppleWebKit/537.36 (KHTML, like Gecko) Chrome/100.0.4896.127 Safari/537.36",xpyriment,legacy,legacy,0,uniform,0,0,0,0,24,24,24,0,0,49,49,49,49,49,0,49,0,,,,,,0,,25-03-22,25-03-22,13:33:24,Mon Apr 25 2022 13:33:24 GMT+0200 (közép-európai nyári idő),The main experiment item,yes,0,0,C:/Users/rrics/Documents/!!ResearchBMECOGSCI/gnet,0,0,0,prototype1.png,no,mono,no,18,no,black,no,no,768,1229,3.5.6,legacy,xpyriment,osweb,1.3.13,0,space,space,space,,15335,11640,15335,,2,legacy,680,1280,24,720,24,0,0,1280,1650886494961,1024,2,48000,-16,experiment,p4sarr1.png,1,odd,Win32,117,123495,120483,117,117,465070,466587,460072,125012,460072,117,,,,,,visual_patterns,0,0,0,yes,1366
undefined,undefined,undefined,undefined,white,no,Mozilla,Netscape,"5.0 (Windows NT 10.0; Win64; x64) AppleWebKit/537.36 (KHTML, like Gecko) Chrome/100.0.4896.127 Safari/537.36",xpyriment,legacy,legacy,0,uniform,0,0,0,0,24,24,24,0,0,50,50,50,50,50,0,50,0,,,,,,0,,25-03-22,25-03-22,13:33:24,Mon Apr 25 2022 13:33:24 GMT+0200 (közép-európai nyári idő),The main experiment item,yes,0,0,C:/Users/rrics/Documents/!!ResearchBMECOGSCI/gnet,0,0,0,prototype1.png,no,mono,no,18,no,black,no,no,768,1229,3.5.6,legacy,xpyriment,osweb,1.3.13,0,space,space,space,,15335,11640,15335,,2,legacy,680,1280,24,720,24,0,0,1280,1650886494961,1024,2,48000,-16,experiment,p10sarr1.png,1,odd,Win32,117,123495,120483,117,117,471613,473114,466613,125012,466613,117,,,,,,visual_patterns,0,0,0,yes,1366
undefined,undefined,undefined,undefined,white,no,Mozilla,Netscape,"5.0 (Windows NT 10.0; Win64; x64) AppleWebKit/537.36 (KHTML, like Gecko) Chrome/100.0.4896.127 Safari/537.36",xpyriment,legacy,legacy,0,uniform,0,0,0,0,24,24,24,0,0,51,51,51,51,51,0,51,0,,,,,,0,,25-03-22,25-03-22,13:33:24,Mon Apr 25 2022 13:33:24 GMT+0200 (közép-európai nyári idő),The main experiment item,yes,0,0,C:/Users/rrics/Documents/!!ResearchBMECOGSCI/gnet,0,0,0,prototype1.png,no,mono,no,18,no,black,no,no,768,1229,3.5.6,legacy,xpyriment,osweb,1.3.13,0,space,space,space,,15335,11640,15335,,2,legacy,680,1280,24,720,24,0,0,1280,1650886494961,1024,2,48000,-16,experiment,prototype3.png,1,odd,Win32,117,123495,120483,117,117,478126,479641,473126,125012,473126,117,,,,,,visual_patterns,0,0,0,yes,1366
undefined,undefined,undefined,undefined,white,no,Mozilla,Netscape,"5.0 (Windows NT 10.0; Win64; x64) AppleWebKit/537.36 (KHTML, like Gecko) Chrome/100.0.4896.127 Safari/537.36",xpyriment,legacy,legacy,0,uniform,0,0,0,0,24,24,24,0,0,52,52,52,52,52,0,52,0,,,,,,0,,25-03-22,25-03-22,13:33:24,Mon Apr 25 2022 13:33:24 GMT+0200 (közép-európai nyári idő),The main experiment item,yes,0,0,C:/Users/rrics/Documents/!!ResearchBMECOGSCI/gnet,0,0,0,prototype1.png,no,mono,no,18,no,black,no,no,768,1229,3.5.6,legacy,xpyriment,osweb,1.3.13,0,space,space,space,,15335,11640,15335,,2,legacy,680,1280,24,720,24,0,0,1280,1650886494961,1024,2,48000,-16,experiment,p1sarr1.png,1,odd,Win32,117,123495,120483,117,117,484650,486151,479654,125012,479654,117,,,,,,visual_patterns,0,0,0,yes,1366
undefined,undefined,undefined,undefined,white,no,Mozilla,Netscape,"5.0 (Windows NT 10.0; Win64; x64) AppleWebKit/537.36 (KHTML, like Gecko) Chrome/100.0.4896.127 Safari/537.36",xpyriment,legacy,legacy,0,uniform,0,0,0,0,24,24,24,0,0,53,53,53,53,53,0,53,0,,,,,,0,,25-03-22,25-03-22,13:33:24,Mon Apr 25 2022 13:33:24 GMT+0200 (közép-európai nyári idő),The main experiment item,yes,0,0,C:/Users/rrics/Documents/!!ResearchBMECOGSCI/gnet,0,0,0,prototype1.png,no,mono,no,18,no,black,no,no,768,1229,3.5.6,legacy,xpyriment,osweb,1.3.13,0,space,space,space,,15335,11640,15335,,2,legacy,680,1280,24,720,24,0,0,1280,1650886494961,1024,2,48000,-16,experiment,p1sarrcol2.png,1,odd,Win32,117,123495,120483,117,117,491163,492679,486163,125012,486163,117,,,,,,visual_patterns,0,0,0,yes,1366
undefined,undefined,undefined,undefined,white,no,Mozilla,Netscape,"5.0 (Windows NT 10.0; Win64; x64) AppleWebKit/537.36 (KHTML, like Gecko) Chrome/100.0.4896.127 Safari/537.36",xpyriment,legacy,legacy,0,uniform,0,0,0,0,24,24,24,0,0,54,54,54,54,54,0,54,0,,,,,,0,,25-03-22,25-03-22,13:33:24,Mon Apr 25 2022 13:33:24 GMT+0200 (közép-európai nyári idő),The main experiment item,yes,0,0,C:/Users/rrics/Documents/!!ResearchBMECOGSCI/gnet,0,0,0,prototype1.png,no,mono,no,18,no,black,no,no,768,1229,3.5.6,legacy,xpyriment,osweb,1.3.13,0,space,space,space,,15335,11640,15335,,2,legacy,680,1280,24,720,24,0,0,1280,1650886494961,1024,2,48000,-16,experiment,p2sarrcol2.png,1,odd,Win32,117,123495,120483,117,117,497692,499206,492692,125012,492692,117,,,,,,visual_patterns,0,0,0,yes,1366
undefined,undefined,undefined,undefined,white,no,Mozilla,Netscape,"5.0 (Windows NT 10.0; Win64; x64) AppleWebKit/537.36 (KHTML, like Gecko) Chrome/100.0.4896.127 Safari/537.36",xpyriment,legacy,legacy,0,uniform,0,0,0,0,24,24,24,0,0,55,55,55,55,55,0,55,0,,,,,,0,,25-03-22,25-03-22,13:33:24,Mon Apr 25 2022 13:33:24 GMT+0200 (közép-európai nyári idő),The main experiment item,yes,0,0,C:/Users/rrics/Documents/!!ResearchBMECOGSCI/gnet,0,0,0,prototype1.png,no,mono,no,18,no,black,no,no,768,1229,3.5.6,legacy,xpyriment,osweb,1.3.13,0,space,space,space,,15335,11640,15335,,2,legacy,680,1280,24,720,24,0,0,1280,1650886494961,1024,2,48000,-16,experiment,prototype4.png,1,odd,Win32,117,123495,120483,117,117,504233,505750,499233,125012,499233,117,,,,,,visual_patterns,0,0,0,yes,1366
undefined,undefined,undefined,undefined,white,no,Mozilla,Netscape,"5.0 (Windows NT 10.0; Win64; x64) AppleWebKit/537.36 (KHTML, like Gecko) Chrome/100.0.4896.127 Safari/537.36",xpyriment,legacy,legacy,0,uniform,0,0,0,0,24,24,24,0,0,56,56,56,56,56,0,56,0,,,,,,0,,25-03-22,25-03-22,13:33:24,Mon Apr 25 2022 13:33:24 GMT+0200 (közép-európai nyári idő),The main experiment item,yes,0,0,C:/Users/rrics/Documents/!!ResearchBMECOGSCI/gnet,0,0,0,prototype1.png,no,mono,no,18,no,black,no,no,768,1229,3.5.6,legacy,xpyriment,osweb,1.3.13,0,space,space,space,,15335,11640,15335,,2,legacy,680,1280,24,720,24,0,0,1280,1650886494961,1024,2,48000,-16,experiment,p2sarrshacol1.png,1,odd,Win32,117,123495,120483,117,117,510758,512262,505761,125012,505761,117,,,,,,visual_patterns,0,0,0,yes,1366
undefined,undefined,undefined,undefined,white,no,Mozilla,Netscape,"5.0 (Windows NT 10.0; Win64; x64) AppleWebKit/537.36 (KHTML, like Gecko) Chrome/100.0.4896.127 Safari/537.36",xpyriment,legacy,legacy,0,uniform,0,0,0,0,24,24,24,0,0,57,57,57,57,57,0,57,0,,,,,,0,,25-03-22,25-03-22,13:33:24,Mon Apr 25 2022 13:33:24 GMT+0200 (közép-európai nyári idő),The main experiment item,yes,0,0,C:/Users/rrics/Documents/!!ResearchBMECOGSCI/gnet,0,0,0,prototype1.png,no,mono,no,18,no,black,no,no,768,1229,3.5.6,legacy,xpyriment,osweb,1.3.13,0,space,space,space,,15335,11640,15335,,2,legacy,680,1280,24,720,24,0,0,1280,1650886494961,1024,2,48000,-16,experiment,prototype5.png,1,odd,Win32,117,123495,120483,117,117,517271,518787,512270,125012,512270,117,,,,,,visual_patterns,0,0,0,yes,1366
undefined,undefined,undefined,undefined,white,no,Mozilla,Netscape,"5.0 (Windows NT 10.0; Win64; x64) AppleWebKit/537.36 (KHTML, like Gecko) Chrome/100.0.4896.127 Safari/537.36",xpyriment,legacy,legacy,0,uniform,0,0,0,0,24,24,24,0,0,58,58,58,58,58,0,58,0,,,,,,0,,25-03-22,25-03-22,13:33:24,Mon Apr 25 2022 13:33:24 GMT+0200 (közép-európai nyári idő),The main experiment item,yes,0,0,C:/Users/rrics/Documents/!!ResearchBMECOGSCI/gnet,0,0,0,prototype1.png,no,mono,no,18,no,black,no,no,768,1229,3.5.6,legacy,xpyriment,osweb,1.3.13,0,space,space,space,,15335,11640,15335,,2,legacy,680,1280,24,720,24,0,0,1280,1650886494961,1024,2,48000,-16,experiment,prototype2.png,1,odd,Win32,117,123495,120483,117,117,523798,525314,518796,125012,518796,117,,,,,,visual_patterns,0,0,0,yes,1366
undefined,undefined,undefined,undefined,white,no,Mozilla,Netscape,"5.0 (Windows NT 10.0; Win64; x64) AppleWebKit/537.36 (KHTML, like Gecko) Chrome/100.0.4896.127 Safari/537.36",xpyriment,legacy,legacy,0,uniform,0,0,0,0,24,24,24,0,0,59,59,59,59,59,0,59,0,,,,,,0,,25-03-22,25-03-22,13:33:24,Mon Apr 25 2022 13:33:24 GMT+0200 (közép-európai nyári idő),The main experiment item,yes,0,0,C:/Users/rrics/Documents/!!ResearchBMECOGSCI/gnet,0,0,0,prototype1.png,no,mono,no,18,no,black,no,no,768,1229,3.5.6,legacy,xpyriment,osweb,1.3.13,0,space,space,space,,15335,11640,15335,,2,legacy,680,1280,24,720,24,0,0,1280,1650886494961,1024,2,48000,-16,experiment,prototype5.png,1,odd,Win32,117,123495,120483,117,117,530322,531825,525322,125012,525322,117,,,,,,visual_patterns,0,0,0,yes,1366
undefined,undefined,undefined,undefined,white,no,Mozilla,Netscape,"5.0 (Windows NT 10.0; Win64; x64) AppleWebKit/537.36 (KHTML, like Gecko) Chrome/100.0.4896.127 Safari/537.36",xpyriment,legacy,legacy,0,uniform,0,0,0,0,24,24,24,0,0,60,60,60,60,60,0,60,0,,,,,,0,,25-03-22,25-03-22,13:33:24,Mon Apr 25 2022 13:33:24 GMT+0200 (közép-európai nyári idő),The main experiment item,yes,0,0,C:/Users/rrics/Documents/!!ResearchBMECOGSCI/gnet,0,0,0,prototype1.png,no,mono,no,18,no,black,no,no,768,1229,3.5.6,legacy,xpyriment,osweb,1.3.13,0,space,space,space,,15335,11640,15335,,2,legacy,680,1280,24,720,24,0,0,1280,1650886494961,1024,2,48000,-16,experiment,p1sarrshacol2.png,1,odd,Win32,117,123495,120483,117,117,536834,538335,531837,125012,531837,117,,,,,,visual_patterns,0,0,0,yes,1366
undefined,undefined,undefined,undefined,white,no,Mozilla,Netscape,"5.0 (Windows NT 10.0; Win64; x64) AppleWebKit/537.36 (KHTML, like Gecko) Chrome/100.0.4896.127 Safari/537.36",xpyriment,legacy,legacy,0,uniform,0,0,0,0,24,24,24,0,0,61,61,61,61,61,0,61,0,,,,,,0,,25-03-22,25-03-22,13:33:24,Mon Apr 25 2022 13:33:24 GMT+0200 (közép-európai nyári idő),The main experiment item,yes,0,0,C:/Users/rrics/Documents/!!ResearchBMECOGSCI/gnet,0,0,0,prototype1.png,no,mono,no,18,no,black,no,no,768,1229,3.5.6,legacy,xpyriment,osweb,1.3.13,0,space,space,space,,15335,11640,15335,,2,legacy,680,1280,24,720,24,0,0,1280,1650886494961,1024,2,48000,-16,experiment,p2sarrcol1.png,1,odd,Win32,117,123495,120483,117,117,543348,544862,538347,125012,538347,117,,,,,,visual_patterns,0,0,0,yes,1366
undefined,undefined,undefined,undefined,white,no,Mozilla,Netscape,"5.0 (Windows NT 10.0; Win64; x64) AppleWebKit/537.36 (KHTML, like Gecko) Chrome/100.0.4896.127 Safari/537.36",xpyriment,legacy,legacy,0,uniform,0,0,0,0,24,24,24,0,0,62,62,62,62,62,0,62,0,,,,,,0,,25-03-22,25-03-22,13:33:24,Mon Apr 25 2022 13:33:24 GMT+0200 (közép-európai nyári idő),The main experiment item,yes,0,0,C:/Users/rrics/Documents/!!ResearchBMECOGSCI/gnet,0,0,0,prototype1.png,no,mono,no,18,no,black,no,no,768,1229,3.5.6,legacy,xpyriment,osweb,1.3.13,0,space,space,space,,15335,11640,15335,,2,legacy,680,1280,24,720,24,0,0,1280,1650886494961,1024,2,48000,-16,experiment,p5sarr2.png,1,odd,Win32,117,123495,120483,117,117,549872,551374,544876,125012,544876,117,,,,,,visual_patterns,0,0,0,yes,1366
undefined,undefined,undefined,undefined,white,no,Mozilla,Netscape,"5.0 (Windows NT 10.0; Win64; x64) AppleWebKit/537.36 (KHTML, like Gecko) Chrome/100.0.4896.127 Safari/537.36",xpyriment,legacy,legacy,0,uniform,0,0,0,0,24,24,24,0,0,63,63,63,63,63,0,63,0,,,,,,0,,25-03-22,25-03-22,13:33:24,Mon Apr 25 2022 13:33:24 GMT+0200 (közép-európai nyári idő),The main experiment item,yes,0,0,C:/Users/rrics/Documents/!!ResearchBMECOGSCI/gnet,0,0,0,prototype1.png,no,mono,no,18,no,black,no,no,768,1229,3.5.6,legacy,xpyriment,osweb,1.3.13,0,space,space,space,,15335,11640,15335,,2,legacy,680,1280,24,720,24,0,0,1280,1650886494961,1024,2,48000,-16,experiment,p10sarr2.png,1,odd,Win32,117,123495,120483,117,117,556385,557901,551387,125012,551387,117,,,,,,visual_patterns,0,0,0,yes,1366
undefined,undefined,undefined,undefined,white,no,Mozilla,Netscape,"5.0 (Windows NT 10.0; Win64; x64) AppleWebKit/537.36 (KHTML, like Gecko) Chrome/100.0.4896.127 Safari/537.36",xpyriment,legacy,legacy,0,uniform,0,0,0,0,24,24,24,0,0,64,64,64,64,64,0,64,0,,,,,,0,,25-03-22,25-03-22,13:33:24,Mon Apr 25 2022 13:33:24 GMT+0200 (közép-európai nyári idő),The main experiment item,yes,0,0,C:/Users/rrics/Documents/!!ResearchBMECOGSCI/gnet,0,0,0,prototype1.png,no,mono,no,18,no,black,no,no,768,1229,3.5.6,legacy,xpyriment,osweb,1.3.13,0,space,space,space,,15335,11640,15335,,2,legacy,680,1280,24,720,24,0,0,1280,1650886494961,1024,2,48000,-16,experiment,prototype1.png,1,odd,Win32,117,123495,120483,117,117,562916,564427,557913,125012,557913,117,,,,,,visual_patterns,0,0,0,yes,1366
undefined,undefined,undefined,undefined,white,no,Mozilla,Netscape,"5.0 (Windows NT 10.0; Win64; x64) AppleWebKit/537.36 (KHTML, like Gecko) Chrome/100.0.4896.127 Safari/537.36",xpyriment,legacy,legacy,0,uniform,0,0,0,0,24,24,24,0,0,65,65,65,65,65,0,65,0,,,,,,0,,25-03-22,25-03-22,13:33:24,Mon Apr 25 2022 13:33:24 GMT+0200 (közép-európai nyári idő),The main experiment item,yes,0,0,C:/Users/rrics/Documents/!!ResearchBMECOGSCI/gnet,0,0,0,prototype1.png,no,mono,no,18,no,black,no,no,768,1229,3.5.6,legacy,xpyriment,osweb,1.3.13,0,space,space,space,,15335,11640,15335,,2,legacy,680,1280,24,720,24,0,0,1280,1650886494961,1024,2,48000,-16,experiment,prototype4.png,1,odd,Win32,117,123495,120483,117,117,569440,570955,564436,125012,564436,117,,,,,,visual_patterns,0,0,0,yes,1366
undefined,undefined,undefined,undefined,white,no,Mozilla,Netscape,"5.0 (Windows NT 10.0; Win64; x64) AppleWebKit/537.36 (KHTML, like Gecko) Chrome/100.0.4896.127 Safari/537.36",xpyriment,legacy,legacy,0,uniform,0,0,0,0,24,24,24,0,0,66,66,66,66,66,0,66,0,,,,,,0,,25-03-22,25-03-22,13:33:24,Mon Apr 25 2022 13:33:24 GMT+0200 (közép-európai nyári idő),The main experiment item,yes,0,0,C:/Users/rrics/Documents/!!ResearchBMECOGSCI/gnet,0,0,0,prototype1.png,no,mono,no,18,no,black,no,no,768,1229,3.5.6,legacy,xpyriment,osweb,1.3.13,0,space,space,space,,15335,11640,15335,,2,legacy,680,1280,24,720,24,0,0,1280,1650886494961,1024,2,48000,-16,experiment,p2sarrshacol2.png,1,odd,Win32,117,123495,120483,117,117,575964,577466,570967,125012,570967,117,,,,,,visual_patterns,0,0,0,yes,1366
undefined,undefined,undefined,undefined,white,no,Mozilla,Netscape,"5.0 (Windows NT 10.0; Win64; x64) AppleWebKit/537.36 (KHTML, like Gecko) Chrome/100.0.4896.127 Safari/537.36",xpyriment,legacy,legacy,0,uniform,0,0,0,0,24,24,24,0,0,67,67,67,67,67,0,67,0,,,,,,0,,25-03-22,25-03-22,13:33:24,Mon Apr 25 2022 13:33:24 GMT+0200 (közép-európai nyári idő),The main experiment item,yes,0,0,C:/Users/rrics/Documents/!!ResearchBMECOGSCI/gnet,0,0,0,prototype1.png,no,mono,no,18,no,black,no,no,768,1229,3.5.6,legacy,xpyriment,osweb,1.3.13,0,space,space,space,,15335,11640,15335,,2,legacy,680,1280,24,720,24,0,0,1280,1650886494961,1024,2,48000,-16,experiment,p1sarr2.png,1,odd,Win32,117,123495,120483,117,117,582477,583992,577477,125012,577476,117,,,,,,visual_patterns,0,0,0,yes,1366
undefined,undefined,undefined,undefined,white,no,Mozilla,Netscape,"5.0 (Windows NT 10.0; Win64; x64) AppleWebKit/537.36 (KHTML, like Gecko) Chrome/100.0.4896.127 Safari/537.36",xpyriment,legacy,legacy,0,uniform,0,0,0,0,24,24,24,0,0,68,68,68,68,68,0,68,0,,,,,,0,,25-03-22,25-03-22,13:33:24,Mon Apr 25 2022 13:33:24 GMT+0200 (közép-európai nyári idő),The main experiment item,yes,0,0,C:/Users/rrics/Documents/!!ResearchBMECOGSCI/gnet,0,0,0,prototype1.png,no,mono,no,18,no,black,no,no,768,1229,3.5.6,legacy,xpyriment,osweb,1.3.13,0,space,space,space,,15335,11640,15335,,2,legacy,680,1280,24,720,24,0,0,1280,1650886494961,1024,2,48000,-16,experiment,p6sarr2.png,1,odd,Win32,117,123495,120483,117,117,589002,590503,584005,125012,584005,117,,,,,,visual_patterns,0,0,0,yes,1366
undefined,undefined,undefined,undefined,white,no,Mozilla,Netscape,"5.0 (Windows NT 10.0; Win64; x64) AppleWebKit/537.36 (KHTML, like Gecko) Chrome/100.0.4896.127 Safari/537.36",xpyriment,legacy,legacy,0,uniform,0,0,0,0,24,24,24,0,0,69,69,69,69,69,0,69,0,,,,,,0,,25-03-22,25-03-22,13:33:24,Mon Apr 25 2022 13:33:24 GMT+0200 (közép-európai nyári idő),The main experiment item,yes,0,0,C:/Users/rrics/Documents/!!ResearchBMECOGSCI/gnet,0,0,0,prototype1.png,no,mono,no,18,no,black,no,no,768,1229,3.5.6,legacy,xpyriment,osweb,1.3.13,0,space,space,space,,15335,11640,15335,,2,legacy,680,1280,24,720,24,0,0,1280,1650886494961,1024,2,48000,-16,experiment,prototype2.png,1,odd,Win32,117,123495,120483,117,117,595514,597030,590511,125012,590511,117,,,,,,visual_patterns,0,0,0,yes,1366
undefined,undefined,undefined,undefined,white,no,Mozilla,Netscape,"5.0 (Windows NT 10.0; Win64; x64) AppleWebKit/537.36 (KHTML, like Gecko) Chrome/100.0.4896.127 Safari/537.36",xpyriment,legacy,legacy,0,uniform,0,0,0,0,24,24,24,0,0,70,70,70,70,70,0,70,0,,,,,,0,,25-03-22,25-03-22,13:33:24,Mon Apr 25 2022 13:33:24 GMT+0200 (közép-európai nyári idő),The main experiment item,yes,0,0,C:/Users/rrics/Documents/!!ResearchBMECOGSCI/gnet,0,0,0,prototype1.png,no,mono,no,18,no,black,no,no,768,1229,3.5.6,legacy,xpyriment,osweb,1.3.13,0,space,space,space,,15335,11640,15335,,2,legacy,680,1280,24,720,24,0,0,1280,1650886494961,1024,2,48000,-16,experiment,p1sarrshacol1.png,1,odd,Win32,117,123495,120483,117,117,602055,603558,597058,125012,597058,117,,,,,,visual_patterns,0,0,0,yes,1366
undefined,undefined,undefined,undefined,white,no,Mozilla,Netscape,"5.0 (Windows NT 10.0; Win64; x64) AppleWebKit/537.36 (KHTML, like Gecko) Chrome/100.0.4896.127 Safari/537.36",xpyriment,legacy,legacy,0,uniform,0,0,0,0,24,24,24,0,0,71,71,71,71,71,0,71,0,,,,,,0,,25-03-22,25-03-22,13:33:24,Mon Apr 25 2022 13:33:24 GMT+0200 (közép-európai nyári idő),The main experiment item,yes,0,0,C:/Users/rrics/Documents/!!ResearchBMECOGSCI/gnet,0,0,0,prototype1.png,no,mono,no,18,no,black,no,no,768,1229,3.5.6,legacy,xpyriment,osweb,1.3.13,0,space,space,space,,15335,11640,15335,,2,legacy,680,1280,24,720,24,0,0,1280,1650886494961,1024,2,48000,-16,experiment,prototype1.png,1,odd,Win32,117,123495,120483,117,117,608566,610069,603567,125012,603567,117,,,,,,visual_patterns,0,0,0,yes,1366
undefined,undefined,undefined,undefined,white,no,Mozilla,Netscape,"5.0 (Windows NT 10.0; Win64; x64) AppleWebKit/537.36 (KHTML, like Gecko) Chrome/100.0.4896.127 Safari/537.36",xpyriment,legacy,legacy,0,uniform,0,0,0,0,24,24,24,0,0,72,72,72,72,72,0,72,0,,,,,,0,,25-03-22,25-03-22,13:33:24,Mon Apr 25 2022 13:33:24 GMT+0200 (közép-európai nyári idő),The main experiment item,yes,0,0,C:/Users/rrics/Documents/!!ResearchBMECOGSCI/gnet,0,0,0,prototype1.png,no,mono,no,18,no,black,no,no,768,1229,3.5.6,legacy,xpyriment,osweb,1.3.13,0,space,space,space,,15335,11640,15335,,2,legacy,680,1280,24,720,24,0,0,1280,1650886494961,1024,2,48000,-16,experiment,prototype5.png,1,odd,Win32,117,123495,120483,117,117,615077,616579,610077,125012,610077,117,,,,,,visual_patterns,0,0,0,yes,1366
undefined,undefined,undefined,undefined,white,no,Mozilla,Netscape,"5.0 (Windows NT 10.0; Win64; x64) AppleWebKit/537.36 (KHTML, like Gecko) Chrome/100.0.4896.127 Safari/537.36",xpyriment,legacy,legacy,0,uniform,0,0,0,0,24,24,24,0,0,73,73,73,73,73,0,73,0,,,,,,0,,25-03-22,25-03-22,13:33:24,Mon Apr 25 2022 13:33:24 GMT+0200 (közép-európai nyári idő),The main experiment item,yes,0,0,C:/Users/rrics/Documents/!!ResearchBMECOGSCI/gnet,0,0,0,prototype1.png,no,mono,no,18,no,black,no,no,768,1229,3.5.6,legacy,xpyriment,osweb,1.3.13,0,space,space,space,,15335,11640,15335,,2,legacy,680,1280,24,720,24,0,0,1280,1650886494961,1024,2,48000,-16,experiment,prototype3.png,1,odd,Win32,117,123495,120483,117,117,621590,623106,616589,125012,616589,117,,,,,,visual_patterns,0,0,0,yes,1366
undefined,undefined,undefined,undefined,white,no,Mozilla,Netscape,"5.0 (Windows NT 10.0; Win64; x64) AppleWebKit/537.36 (KHTML, like Gecko) Chrome/100.0.4896.127 Safari/537.36",xpyriment,legacy,legacy,0,uniform,0,0,0,0,24,24,24,0,0,74,74,74,74,74,0,74,0,,,,,,0,,25-03-22,25-03-22,13:33:24,Mon Apr 25 2022 13:33:24 GMT+0200 (közép-európai nyári idő),The main experiment item,yes,0,0,C:/Users/rrics/Documents/!!ResearchBMECOGSCI/gnet,0,0,0,prototype1.png,no,mono,no,18,no,black,no,no,768,1229,3.5.6,legacy,xpyriment,osweb,1.3.13,0,space,space,space,,15335,11640,15335,,2,legacy,680,1280,24,720,24,0,0,1280,1650886494961,1024,2,48000,-16,experiment,prototype2.png,1,odd,Win32,117,123495,120483,117,117,628119,629633,623116,125012,623116,117,,,,,,visual_patterns,0,0,0,yes,1366
undefined,undefined,undefined,undefined,white,no,Mozilla,Netscape,"5.0 (Windows NT 10.0; Win64; x64) AppleWebKit/537.36 (KHTML, like Gecko) Chrome/100.0.4896.127 Safari/537.36",xpyriment,legacy,legacy,0,uniform,0,0,0,0,24,24,24,0,0,74,74,74,74,74,0,74,0,0,0,0,0,0,0,0,25-03-22,25-03-22,13:33:24,Mon Apr 25 2022 13:33:24 GMT+0200 (közép-európai nyári idő),The main experiment item,yes,0,0,C:/Users/rrics/Documents/!!ResearchBMECOGSCI/gnet,0,0,0,prototype1.png,no,mono,no,18,no,black,no,no,768,1229,3.5.6,legacy,xpyriment,osweb,1.3.13,0,space,space,space,space,18705,11640,15335,18705,2,legacy,680,1280,24,720,24,0,0,1280,1650886494961,1024,2,48000,-16,experiment,p5sarrsha3.png,1,odd,Win32,117,123495,120483,117,117,628119,629633,623116,125012,623116,117,651395,652911,648396,629637,648396,visual_patterns,0,0,0,yes,1366
undefined,undefined,undefined,undefined,white,no,Mozilla,Netscape,"5.0 (Windows NT 10.0; Win64; x64) AppleWebKit/537.36 (KHTML, like Gecko) Chrome/100.0.4896.127 Safari/537.36",xpyriment,legacy,legacy,0,uniform,0,0,0,0,24,24,24,0,0,74,74,74,74,74,0,74,0,1,1,1,1,1,0,1,25-03-22,25-03-22,13:33:24,Mon Apr 25 2022 13:33:24 GMT+0200 (közép-európai nyári idő),The main experiment item,yes,0,0,C:/Users/rrics/Documents/!!ResearchBMECOGSCI/gnet,0,0,0,prototype1.png,no,mono,no,18,no,black,no,no,768,1229,3.5.6,legacy,xpyriment,osweb,1.3.13,0,space,space,space,space,18705,11640,15335,18705,2,legacy,680,1280,24,720,24,0,0,1280,1650886494961,1024,2,48000,-16,experiment,p2sarrshacol1.png,1,odd,Win32,117,123495,120483,117,117,628119,629633,623116,125012,623116,117,655925,657440,652924,629637,652924,visual_patterns,0,0,0,yes,1366
undefined,undefined,undefined,undefined,white,no,Mozilla,Netscape,"5.0 (Windows NT 10.0; Win64; x64) AppleWebKit/537.36 (KHTML, like Gecko) Chrome/100.0.4896.127 Safari/537.36",xpyriment,legacy,legacy,0,uniform,0,0,0,0,24,24,24,0,0,74,74,74,74,74,0,74,0,2,2,2,2,2,0,2,25-03-22,25-03-22,13:33:24,Mon Apr 25 2022 13:33:24 GMT+0200 (közép-európai nyári idő),The main experiment item,yes,0,0,C:/Users/rrics/Documents/!!ResearchBMECOGSCI/gnet,0,0,0,prototype1.png,no,mono,no,18,no,black,no,no,768,1229,3.5.6,legacy,xpyriment,osweb,1.3.13,0,space,space,space,space,18705,11640,15335,18705,2,legacy,680,1280,24,720,24,0,0,1280,1650886494961,1024,2,48000,-16,experiment,p4sarr4.png,1,odd,Win32,117,123495,120483,117,117,628119,629633,623116,125012,623116,117,660451,661952,657453,629637,657453,visual_patterns,0,0,0,yes,1366
undefined,undefined,undefined,undefined,white,no,Mozilla,Netscape,"5.0 (Windows NT 10.0; Win64; x64) AppleWebKit/537.36 (KHTML, like Gecko) Chrome/100.0.4896.127 Safari/537.36",xpyriment,legacy,legacy,0,uniform,0,0,0,0,24,24,24,0,0,74,74,74,74,74,0,74,0,3,3,3,3,3,0,3,25-03-22,25-03-22,13:33:24,Mon Apr 25 2022 13:33:24 GMT+0200 (közép-európai nyári idő),The main experiment item,yes,0,0,C:/Users/rrics/Documents/!!ResearchBMECOGSCI/gnet,0,0,0,prototype1.png,no,mono,no,18,no,black,no,no,768,1229,3.5.6,legacy,xpyriment,osweb,1.3.13,0,space,space,space,space,18705,11640,15335,18705,2,legacy,680,1280,24,720,24,0,0,1280,1650886494961,1024,2,48000,-16,experiment,p5sarrsha2.png,1,odd,Win32,117,123495,120483,117,117,628119,629633,623116,125012,623116,117,664964,666465,661963,629637,661963,visual_patterns,0,0,0,yes,1366
undefined,undefined,undefined,undefined,white,no,Mozilla,Netscape,"5.0 (Windows NT 10.0; Win64; x64) AppleWebKit/537.36 (KHTML, like Gecko) Chrome/100.0.4896.127 Safari/537.36",xpyriment,legacy,legacy,0,uniform,0,0,0,0,24,24,24,0,0,74,74,74,74,74,0,74,0,4,4,4,4,4,0,4,25-03-22,25-03-22,13:33:24,Mon Apr 25 2022 13:33:24 GMT+0200 (közép-európai nyári idő),The main experiment item,yes,0,0,C:/Users/rrics/Documents/!!ResearchBMECOGSCI/gnet,0,0,0,prototype1.png,no,mono,no,18,no,black,no,no,768,1229,3.5.6,legacy,xpyriment,osweb,1.3.13,0,space,space,space,space,18705,11640,15335,18705,2,legacy,680,1280,24,720,24,0,0,1280,1650886494961,1024,2,48000,-16,experiment,p7sarr2.png,1,odd,Win32,117,123495,120483,117,117,628119,629633,623116,125012,623116,117,669478,670994,666477,629637,666477,visual_patterns,0,0,0,yes,1366
undefined,undefined,undefined,undefined,white,no,Mozilla,Netscape,"5.0 (Windows NT 10.0; Win64; x64) AppleWebKit/537.36 (KHTML, like Gecko) Chrome/100.0.4896.127 Safari/537.36",xpyriment,legacy,legacy,0,uniform,0,0,0,0,24,24,24,0,0,74,74,74,74,74,0,74,0,5,5,5,5,5,0,5,25-03-22,25-03-22,13:33:24,Mon Apr 25 2022 13:33:24 GMT+0200 (közép-európai nyári idő),The main experiment item,yes,0,0,C:/Users/rrics/Documents/!!ResearchBMECOGSCI/gnet,0,0,0,prototype1.png,no,mono,no,18,no,black,no,no,768,1229,3.5.6,legacy,xpyriment,osweb,1.3.13,0,space,space,space,space,18705,11640,15335,18705,2,legacy,680,1280,24,720,24,0,0,1280,1650886494961,1024,2,48000,-16,experiment,p1sarrsha4.png,1,odd,Win32,117,123495,120483,117,117,628119,629633,623116,125012,623116,117,674023,675539,671026,629637,671026,visual_patterns,0,0,0,yes,1366
undefined,undefined,undefined,undefined,white,no,Mozilla,Netscape,"5.0 (Windows NT 10.0; Win64; x64) AppleWebKit/537.36 (KHTML, like Gecko) Chrome/100.0.4896.127 Safari/537.36",xpyriment,legacy,legacy,0,uniform,0,0,0,0,24,24,24,0,0,74,74,74,74,74,0,74,0,6,6,6,6,6,0,6,25-03-22,25-03-22,13:33:24,Mon Apr 25 2022 13:33:24 GMT+0200 (közép-európai nyári idő),The main experiment item,yes,0,0,C:/Users/rrics/Documents/!!ResearchBMECOGSCI/gnet,0,0,0,prototype1.png,no,mono,no,18,no,black,no,no,768,1229,3.5.6,legacy,xpyriment,osweb,1.3.13,0,space,space,space,space,18705,11640,15335,18705,2,legacy,680,1280,24,720,24,0,0,1280,1650886494961,1024,2,48000,-16,experiment,p3sarrcol2.png,1,odd,Win32,117,123495,120483,117,117,628119,629633,623116,125012,623116,117,678553,680068,675551,629637,675551,visual_patterns,0,0,0,yes,1366
undefined,undefined,undefined,undefined,white,no,Mozilla,Netscape,"5.0 (Windows NT 10.0; Win64; x64) AppleWebKit/537.36 (KHTML, like Gecko) Chrome/100.0.4896.127 Safari/537.36",xpyriment,legacy,legacy,0,uniform,0,0,0,0,24,24,24,0,0,74,74,74,74,74,0,74,0,7,7,7,7,7,0,7,25-03-22,25-03-22,13:33:24,Mon Apr 25 2022 13:33:24 GMT+0200 (közép-európai nyári idő),The main experiment item,yes,0,0,C:/Users/rrics/Documents/!!ResearchBMECOGSCI/gnet,0,0,0,prototype1.png,no,mono,no,18,no,black,no,no,768,1229,3.5.6,legacy,xpyriment,osweb,1.3.13,0,space,space,space,space,18705,11640,15335,18705,2,legacy,680,1280,24,720,24,0,0,1280,1650886494961,1024,2,48000,-16,experiment,p3sarrcol3.png,1,odd,Win32,117,123495,120483,117,117,628119,629633,623116,125012,623116,117,683083,684598,680083,629637,680083,visual_patterns,0,0,0,yes,1366
undefined,undefined,undefined,undefined,white,no,Mozilla,Netscape,"5.0 (Windows NT 10.0; Win64; x64) AppleWebKit/537.36 (KHTML, like Gecko) Chrome/100.0.4896.127 Safari/537.36",xpyriment,legacy,legacy,0,uniform,0,0,0,0,24,24,24,0,0,74,74,74,74,74,0,74,0,8,8,8,8,8,0,8,25-03-22,25-03-22,13:33:24,Mon Apr 25 2022 13:33:24 GMT+0200 (közép-európai nyári idő),The main experiment item,yes,0,0,C:/Users/rrics/Documents/!!ResearchBMECOGSCI/gnet,0,0,0,prototype1.png,no,mono,no,18,no,black,no,no,768,1229,3.5.6,legacy,xpyriment,osweb,1.3.13,0,space,space,space,space,18705,11640,15335,18705,2,legacy,680,1280,24,720,24,0,0,1280,1650886494961,1024,2,48000,-16,experiment,p1sarrsha1.png,1,odd,Win32,117,123495,120483,117,117,628119,629633,623116,125012,623116,117,687612,689126,684609,629637,684609,visual_patterns,0,0,0,yes,1366
undefined,undefined,undefined,undefined,white,no,Mozilla,Netscape,"5.0 (Windows NT 10.0; Win64; x64) AppleWebKit/537.36 (KHTML, like Gecko) Chrome/100.0.4896.127 Safari/537.36",xpyriment,legacy,legacy,0,uniform,0,0,0,0,24,24,24,0,0,74,74,74,74,74,0,74,0,9,9,9,9,9,0,9,25-03-22,25-03-22,13:33:24,Mon Apr 25 2022 13:33:24 GMT+0200 (közép-európai nyári idő),The main experiment item,yes,0,0,C:/Users/rrics/Documents/!!ResearchBMECOGSCI/gnet,0,0,0,prototype1.png,no,mono,no,18,no,black,no,no,768,1229,3.5.6,legacy,xpyriment,osweb,1.3.13,0,space,space,space,space,18705,11640,15335,18705,2,legacy,680,1280,24,720,24,0,0,1280,1650886494961,1024,2,48000,-16,experiment,p4sarr1.png,1,odd,Win32,117,123495,120483,117,117,628119,629633,623116,125012,623116,117,692140,693656,689139,629637,689139,visual_patterns,0,0,0,yes,1366
undefined,undefined,undefined,undefined,white,no,Mozilla,Netscape,"5.0 (Windows NT 10.0; Win64; x64) AppleWebKit/537.36 (KHTML, like Gecko) Chrome/100.0.4896.127 Safari/537.36",xpyriment,legacy,legacy,0,uniform,0,0,0,0,24,24,24,0,0,74,74,74,74,74,0,74,0,10,10,10,10,10,0,10,25-03-22,25-03-22,13:33:24,Mon Apr 25 2022 13:33:24 GMT+0200 (közép-európai nyári idő),The main experiment item,yes,0,0,C:/Users/rrics/Documents/!!ResearchBMECOGSCI/gnet,0,0,0,prototype1.png,no,mono,no,18,no,black,no,no,768,1229,3.5.6,legacy,xpyriment,osweb,1.3.13,0,space,space,space,space,18705,11640,15335,18705,2,legacy,680,1280,24,720,24,0,0,1280,1650886494961,1024,2,48000,-16,experiment,p9sarr2.png,1,odd,Win32,117,123495,120483,117,117,628119,629633,623116,125012,623116,117,696669,698186,693668,629637,693668,visual_patterns,0,0,0,yes,1366
undefined,undefined,undefined,undefined,white,no,Mozilla,Netscape,"5.0 (Windows NT 10.0; Win64; x64) AppleWebKit/537.36 (KHTML, like Gecko) Chrome/100.0.4896.127 Safari/537.36",xpyriment,legacy,legacy,0,uniform,0,0,0,0,24,24,24,0,0,74,74,74,74,74,0,74,0,11,11,11,11,11,0,11,25-03-22,25-03-22,13:33:24,Mon Apr 25 2022 13:33:24 GMT+0200 (közép-európai nyári idő),The main experiment item,yes,0,0,C:/Users/rrics/Documents/!!ResearchBMECOGSCI/gnet,0,0,0,prototype1.png,no,mono,no,18,no,black,no,no,768,1229,3.5.6,legacy,xpyriment,osweb,1.3.13,0,space,space,space,space,18705,11640,15335,18705,2,legacy,680,1280,24,720,24,0,0,1280,1650886494961,1024,2,48000,-16,experiment,p1sarr2.png,1,odd,Win32,117,123495,120483,117,117,628119,629633,623116,125012,623116,117,701200,702714,698198,629637,698198,visual_patterns,0,0,0,yes,1366
undefined,undefined,undefined,undefined,white,no,Mozilla,Netscape,"5.0 (Windows NT 10.0; Win64; x64) AppleWebKit/537.36 (KHTML, like Gecko) Chrome/100.0.4896.127 Safari/537.36",xpyriment,legacy,legacy,0,uniform,0,0,0,0,24,24,24,0,0,74,74,74,74,74,0,74,0,12,12,12,12,12,0,12,25-03-22,25-03-22,13:33:24,Mon Apr 25 2022 13:33:24 GMT+0200 (közép-európai nyári idő),The main experiment item,yes,0,0,C:/Users/rrics/Documents/!!ResearchBMECOGSCI/gnet,0,0,0,prototype1.png,no,mono,no,18,no,black,no,no,768,1229,3.5.6,legacy,xpyriment,osweb,1.3.13,0,space,space,space,space,18705,11640,15335,18705,2,legacy,680,1280,24,720,24,0,0,1280,1650886494961,1024,2,48000,-16,experiment,p3sarrcol4.png,1,odd,Win32,117,123495,120483,117,117,628119,629633,623116,125012,623116,117,705724,707226,702727,629637,702727,visual_patterns,0,0,0,yes,1366
undefined,undefined,undefined,undefined,white,no,Mozilla,Netscape,"5.0 (Windows NT 10.0; Win64; x64) AppleWebKit/537.36 (KHTML, like Gecko) Chrome/100.0.4896.127 Safari/537.36",xpyriment,legacy,legacy,0,uniform,0,0,0,0,24,24,24,0,0,74,74,74,74,74,0,74,0,13,13,13,13,13,0,13,25-03-22,25-03-22,13:33:24,Mon Apr 25 2022 13:33:24 GMT+0200 (közép-európai nyári idő),The main experiment item,yes,0,0,C:/Users/rrics/Documents/!!ResearchBMECOGSCI/gnet,0,0,0,prototype1.png,no,mono,no,18,no,black,no,no,768,1229,3.5.6,legacy,xpyriment,osweb,1.3.13,0,space,space,space,space,18705,11640,15335,18705,2,legacy,680,1280,24,720,24,0,0,1280,1650886494961,1024,2,48000,-16,experiment,p2sarrshacol2.png,1,odd,Win32,117,123495,120483,117,117,628119,629633,623116,125012,623116,117,710237,711739,707238,629637,707238,visual_patterns,0,0,0,yes,1366
undefined,undefined,undefined,undefined,white,no,Mozilla,Netscape,"5.0 (Windows NT 10.0; Win64; x64) AppleWebKit/537.36 (KHTML, like Gecko) Chrome/100.0.4896.127 Safari/537.36",xpyriment,legacy,legacy,0,uniform,0,0,0,0,24,24,24,0,0,74,74,74,74,74,0,74,0,14,14,14,14,14,0,14,25-03-22,25-03-22,13:33:24,Mon Apr 25 2022 13:33:24 GMT+0200 (közép-európai nyári idő),The main experiment item,yes,0,0,C:/Users/rrics/Documents/!!ResearchBMECOGSCI/gnet,0,0,0,prototype1.png,no,mono,no,18,no,black,no,no,768,1229,3.5.6,legacy,xpyriment,osweb,1.3.13,0,space,space,space,space,18705,11640,15335,18705,2,legacy,680,1280,24,720,24,0,0,1280,1650886494961,1024,2,48000,-16,experiment,p6sarr1.png,1,odd,Win32,117,123495,120483,117,117,628119,629633,623116,125012,623116,117,714751,716268,711750,629637,711749,visual_patterns,0,0,0,yes,1366
undefined,undefined,undefined,undefined,white,no,Mozilla,Netscape,"5.0 (Windows NT 10.0; Win64; x64) AppleWebKit/537.36 (KHTML, like Gecko) Chrome/100.0.4896.127 Safari/537.36",xpyriment,legacy,legacy,0,uniform,0,0,0,0,24,24,24,0,0,74,74,74,74,74,0,74,0,15,15,15,15,15,0,15,25-03-22,25-03-22,13:33:24,Mon Apr 25 2022 13:33:24 GMT+0200 (közép-európai nyári idő),The main experiment item,yes,0,0,C:/Users/rrics/Documents/!!ResearchBMECOGSCI/gnet,0,0,0,prototype1.png,no,mono,no,18,no,black,no,no,768,1229,3.5.6,legacy,xpyriment,osweb,1.3.13,0,space,space,space,space,18705,11640,15335,18705,2,legacy,680,1280,24,720,24,0,0,1280,1650886494961,1024,2,48000,-16,experiment,p4sarrshacol3.png,1,odd,Win32,117,123495,120483,117,117,628119,629633,623116,125012,623116,117,719294,720797,716299,629637,716299,visual_patterns,0,0,0,yes,1366
undefined,undefined,undefined,undefined,white,no,Mozilla,Netscape,"5.0 (Windows NT 10.0; Win64; x64) AppleWebKit/537.36 (KHTML, like Gecko) Chrome/100.0.4896.127 Safari/537.36",xpyriment,legacy,legacy,0,uniform,0,0,0,0,24,24,24,0,0,74,74,74,74,74,0,74,0,16,16,16,16,16,0,16,25-03-22,25-03-22,13:33:24,Mon Apr 25 2022 13:33:24 GMT+0200 (közép-európai nyári idő),The main experiment item,yes,0,0,C:/Users/rrics/Documents/!!ResearchBMECOGSCI/gnet,0,0,0,prototype1.png,no,mono,no,18,no,black,no,no,768,1229,3.5.6,legacy,xpyriment,osweb,1.3.13,0,space,space,space,space,18705,11640,15335,18705,2,legacy,680,1280,24,720,24,0,0,1280,1650886494961,1024,2,48000,-16,experiment,p4sarrshacol4.png,1,odd,Win32,117,123495,120483,117,117,628119,629633,623116,125012,623116,117,723809,725326,720811,629637,720811,visual_patterns,0,0,0,yes,1366
undefined,undefined,undefined,undefined,white,no,Mozilla,Netscape,"5.0 (Windows NT 10.0; Win64; x64) AppleWebKit/537.36 (KHTML, like Gecko) Chrome/100.0.4896.127 Safari/537.36",xpyriment,legacy,legacy,0,uniform,0,0,0,0,24,24,24,0,0,74,74,74,74,74,0,74,0,17,17,17,17,17,0,17,25-03-22,25-03-22,13:33:24,Mon Apr 25 2022 13:33:24 GMT+0200 (közép-európai nyári idő),The main experiment item,yes,0,0,C:/Users/rrics/Documents/!!ResearchBMECOGSCI/gnet,0,0,0,prototype1.png,no,mono,no,18,no,black,no,no,768,1229,3.5.6,legacy,xpyriment,osweb,1.3.13,0,space,space,space,space,18705,11640,15335,18705,2,legacy,680,1280,24,720,24,0,0,1280,1650886494961,1024,2,48000,-16,experiment,p2sarrcol1.png,1,odd,Win32,117,123495,120483,117,117,628119,629633,623116,125012,623116,117,728340,729855,725337,629637,725337,visual_patterns,0,0,0,yes,1366
undefined,undefined,undefined,undefined,white,no,Mozilla,Netscape,"5.0 (Windows NT 10.0; Win64; x64) AppleWebKit/537.36 (KHTML, like Gecko) Chrome/100.0.4896.127 Safari/537.36",xpyriment,legacy,legacy,0,uniform,0,0,0,0,24,24,24,0,0,74,74,74,74,74,0,74,0,18,18,18,18,18,0,18,25-03-22,25-03-22,13:33:24,Mon Apr 25 2022 13:33:24 GMT+0200 (közép-európai nyári idő),The main experiment item,yes,0,0,C:/Users/rrics/Documents/!!ResearchBMECOGSCI/gnet,0,0,0,prototype1.png,no,mono,no,18,no,black,no,no,768,1229,3.5.6,legacy,xpyriment,osweb,1.3.13,0,space,space,space,space,18705,11640,15335,18705,2,legacy,680,1280,24,720,24,0,0,1280,1650886494961,1024,2,48000,-16,experiment,p1sarr4.png,1,odd,Win32,117,123495,120483,117,117,628119,629633,623116,125012,623116,117,732868,734384,729868,629637,729867,visual_patterns,0,0,0,yes,1366
undefined,undefined,undefined,undefined,white,no,Mozilla,Netscape,"5.0 (Windows NT 10.0; Win64; x64) AppleWebKit/537.36 (KHTML, like Gecko) Chrome/100.0.4896.127 Safari/537.36",xpyriment,legacy,legacy,0,uniform,0,0,0,0,24,24,24,0,0,74,74,74,74,74,0,74,0,19,19,19,19,19,0,19,25-03-22,25-03-22,13:33:24,Mon Apr 25 2022 13:33:24 GMT+0200 (közép-európai nyári idő),The main experiment item,yes,0,0,C:/Users/rrics/Documents/!!ResearchBMECOGSCI/gnet,0,0,0,prototype1.png,no,mono,no,18,no,black,no,no,768,1229,3.5.6,legacy,xpyriment,osweb,1.3.13,0,space,space,space,space,18705,11640,15335,18705,2,legacy,680,1280,24,720,24,0,0,1280,1650886494961,1024,2,48000,-16,experiment,p10sarr1.png,1,odd,Win32,117,123495,120483,117,117,628119,629633,623116,125012,623116,117,737396,738913,734394,629637,734394,visual_patterns,0,0,0,yes,1366
undefined,undefined,undefined,undefined,white,no,Mozilla,Netscape,"5.0 (Windows NT 10.0; Win64; x64) AppleWebKit/537.36 (KHTML, like Gecko) Chrome/100.0.4896.127 Safari/537.36",xpyriment,legacy,legacy,0,uniform,0,0,0,0,24,24,24,0,0,74,74,74,74,74,0,74,0,20,20,20,20,20,0,20,25-03-22,25-03-22,13:33:24,Mon Apr 25 2022 13:33:24 GMT+0200 (közép-európai nyári idő),The main experiment item,yes,0,0,C:/Users/rrics/Documents/!!ResearchBMECOGSCI/gnet,0,0,0,prototype1.png,no,mono,no,18,no,black,no,no,768,1229,3.5.6,legacy,xpyriment,osweb,1.3.13,0,space,space,space,space,18705,11640,15335,18705,2,legacy,680,1280,24,720,24,0,0,1280,1650886494961,1024,2,48000,-16,experiment,p8sarr3.png,1,odd,Win32,117,123495,120483,117,117,628119,629633,623116,125012,623116,117,741944,743458,738944,629637,738944,visual_patterns,0,0,0,yes,1366
undefined,undefined,undefined,undefined,white,no,Mozilla,Netscape,"5.0 (Windows NT 10.0; Win64; x64) AppleWebKit/537.36 (KHTML, like Gecko) Chrome/100.0.4896.127 Safari/537.36",xpyriment,legacy,legacy,0,uniform,0,0,0,0,24,24,24,0,0,74,74,74,74,74,0,74,0,21,21,21,21,21,0,21,25-03-22,25-03-22,13:33:24,Mon Apr 25 2022 13:33:24 GMT+0200 (közép-európai nyári idő),The main experiment item,yes,0,0,C:/Users/rrics/Documents/!!ResearchBMECOGSCI/gnet,0,0,0,prototype1.png,no,mono,no,18,no,black,no,no,768,1229,3.5.6,legacy,xpyriment,osweb,1.3.13,0,space,space,space,space,18705,11640,15335,18705,2,legacy,680,1280,24,720,24,0,0,1280,1650886494961,1024,2,48000,-16,experiment,p9sarr4.png,1,odd,Win32,117,123495,120483,117,117,628119,629633,623116,125012,623116,117,746470,747972,743473,629637,743473,visual_patterns,0,0,0,yes,1366
undefined,undefined,undefined,undefined,white,no,Mozilla,Netscape,"5.0 (Windows NT 10.0; Win64; x64) AppleWebKit/537.36 (KHTML, like Gecko) Chrome/100.0.4896.127 Safari/537.36",xpyriment,legacy,legacy,0,uniform,0,0,0,0,24,24,24,0,0,74,74,74,74,74,0,74,0,22,22,22,22,22,0,22,25-03-22,25-03-22,13:33:24,Mon Apr 25 2022 13:33:24 GMT+0200 (közép-európai nyári idő),The main experiment item,yes,0,0,C:/Users/rrics/Documents/!!ResearchBMECOGSCI/gnet,0,0,0,prototype1.png,no,mono,no,18,no,black,no,no,768,1229,3.5.6,legacy,xpyriment,osweb,1.3.13,0,space,space,space,space,18705,11640,15335,18705,2,legacy,680,1280,24,720,24,0,0,1280,1650886494961,1024,2,48000,-16,experiment,p5sarrcol2.png,1,odd,Win32,117,123495,120483,117,117,628119,629633,623116,125012,623116,117,750988,752500,747985,629637,747985,visual_patterns,0,0,0,yes,1366
undefined,undefined,undefined,undefined,white,no,Mozilla,Netscape,"5.0 (Windows NT 10.0; Win64; x64) AppleWebKit/537.36 (KHTML, like Gecko) Chrome/100.0.4896.127 Safari/537.36",xpyriment,legacy,legacy,0,uniform,0,0,0,0,24,24,24,0,0,74,74,74,74,74,0,74,0,23,23,23,23,23,0,23,25-03-22,25-03-22,13:33:24,Mon Apr 25 2022 13:33:24 GMT+0200 (közép-európai nyári idő),The main experiment item,yes,0,0,C:/Users/rrics/Documents/!!ResearchBMECOGSCI/gnet,0,0,0,prototype1.png,no,mono,no,18,no,black,no,no,768,1229,3.5.6,legacy,xpyriment,osweb,1.3.13,0,space,space,space,space,18705,11640,15335,18705,2,legacy,680,1280,24,720,24,0,0,1280,1650886494961,1024,2,48000,-16,experiment,p7sarr4.png,1,odd,Win32,117,123495,120483,117,117,628119,629633,623116,125012,623116,117,755516,757029,752515,629637,752515,visual_patterns,0,0,0,yes,1366
undefined,undefined,undefined,undefined,white,no,Mozilla,Netscape,"5.0 (Windows NT 10.0; Win64; x64) AppleWebKit/537.36 (KHTML, like Gecko) Chrome/100.0.4896.127 Safari/537.36",xpyriment,legacy,legacy,0,uniform,0,0,0,0,24,24,24,0,0,74,74,74,74,74,0,74,0,24,24,24,24,24,0,24,25-03-22,25-03-22,13:33:24,Mon Apr 25 2022 13:33:24 GMT+0200 (közép-európai nyári idő),The main experiment item,yes,0,0,C:/Users/rrics/Documents/!!ResearchBMECOGSCI/gnet,0,0,0,prototype1.png,no,mono,no,18,no,black,no,no,768,1229,3.5.6,legacy,xpyriment,osweb,1.3.13,0,space,space,space,space,18705,11640,15335,18705,2,legacy,680,1280,24,720,24,0,0,1280,1650886494961,1024,2,48000,-16,experiment,p3sarrsha3.png,1,odd,Win32,117,123495,120483,117,117,628119,629633,623116,125012,623116,117,760043,761558,757043,629637,757043,visual_patterns,0,0,0,yes,1366
undefined,undefined,undefined,undefined,white,no,Mozilla,Netscape,"5.0 (Windows NT 10.0; Win64; x64) AppleWebKit/537.36 (KHTML, like Gecko) Chrome/100.0.4896.127 Safari/537.36",xpyriment,legacy,legacy,0,uniform,0,0,0,0,24,24,24,0,0,74,74,74,74,74,0,74,0,25,25,25,25,25,0,25,25-03-22,25-03-22,13:33:24,Mon Apr 25 2022 13:33:24 GMT+0200 (közép-európai nyári idő),The main experiment item,yes,0,0,C:/Users/rrics/Documents/!!ResearchBMECOGSCI/gnet,0,0,0,prototype1.png,no,mono,no,18,no,black,no,no,768,1229,3.5.6,legacy,xpyriment,osweb,1.3.13,0,space,space,space,space,18705,11640,15335,18705,2,legacy,680,1280,24,720,24,0,0,1280,1650886494961,1024,2,48000,-16,experiment,p8sarr4.png,1,odd,Win32,117,123495,120483,117,117,628119,629633,623116,125012,623116,117,764588,766104,761589,629637,761589,visual_patterns,0,0,0,yes,1366
undefined,undefined,undefined,undefined,white,no,Mozilla,Netscape,"5.0 (Windows NT 10.0; Win64; x64) AppleWebKit/537.36 (KHTML, like Gecko) Chrome/100.0.4896.127 Safari/537.36",xpyriment,legacy,legacy,0,uniform,0,0,0,0,24,24,24,0,0,74,74,74,74,74,0,74,0,26,26,26,26,26,0,26,25-03-22,25-03-22,13:33:24,Mon Apr 25 2022 13:33:24 GMT+0200 (közép-európai nyári idő),The main experiment item,yes,0,0,C:/Users/rrics/Documents/!!ResearchBMECOGSCI/gnet,0,0,0,prototype1.png,no,mono,no,18,no,black,no,no,768,1229,3.5.6,legacy,xpyriment,osweb,1.3.13,0,space,space,space,space,18705,11640,15335,18705,2,legacy,680,1280,24,720,24,0,0,1280,1650886494961,1024,2,48000,-16,experiment,p2sarrshacol4.png,1,odd,Win32,117,123495,120483,117,117,628119,629633,623116,125012,623116,117,769118,770633,766118,629637,766118,visual_patterns,0,0,0,yes,1366
undefined,undefined,undefined,undefined,white,no,Mozilla,Netscape,"5.0 (Windows NT 10.0; Win64; x64) AppleWebKit/537.36 (KHTML, like Gecko) Chrome/100.0.4896.127 Safari/537.36",xpyriment,legacy,legacy,0,uniform,0,0,0,0,24,24,24,0,0,74,74,74,74,74,0,74,0,27,27,27,27,27,0,27,25-03-22,25-03-22,13:33:24,Mon Apr 25 2022 13:33:24 GMT+0200 (közép-európai nyári idő),The main experiment item,yes,0,0,C:/Users/rrics/Documents/!!ResearchBMECOGSCI/gnet,0,0,0,prototype1.png,no,mono,no,18,no,black,no,no,768,1229,3.5.6,legacy,xpyriment,osweb,1.3.13,0,space,space,space,space,18705,11640,15335,18705,2,legacy,680,1280,24,720,24,0,0,1280,1650886494961,1024,2,48000,-16,experiment,p4sarrshacol1.png,1,odd,Win32,117,123495,120483,117,117,628119,629633,623116,125012,623116,117,773645,775162,770646,629637,770646,visual_patterns,0,0,0,yes,1366
undefined,undefined,undefined,undefined,white,no,Mozilla,Netscape,"5.0 (Windows NT 10.0; Win64; x64) AppleWebKit/537.36 (KHTML, like Gecko) Chrome/100.0.4896.127 Safari/537.36",xpyriment,legacy,legacy,0,uniform,0,0,0,0,24,24,24,0,0,74,74,74,74,74,0,74,0,28,28,28,28,28,0,28,25-03-22,25-03-22,13:33:24,Mon Apr 25 2022 13:33:24 GMT+0200 (közép-európai nyári idő),The main experiment item,yes,0,0,C:/Users/rrics/Documents/!!ResearchBMECOGSCI/gnet,0,0,0,prototype1.png,no,mono,no,18,no,black,no,no,768,1229,3.5.6,legacy,xpyriment,osweb,1.3.13,0,space,space,space,space,18705,11640,15335,18705,2,legacy,680,1280,24,720,24,0,0,1280,1650886494961,1024,2,48000,-16,experiment,p1sarrshacol3.png,1,odd,Win32,117,123495,120483,117,117,628119,629633,623116,125012,623116,117,778177,779691,775176,629637,775176,visual_patterns,0,0,0,yes,1366
undefined,undefined,undefined,undefined,white,no,Mozilla,Netscape,"5.0 (Windows NT 10.0; Win64; x64) AppleWebKit/537.36 (KHTML, like Gecko) Chrome/100.0.4896.127 Safari/537.36",xpyriment,legacy,legacy,0,uniform,0,0,0,0,24,24,24,0,0,74,74,74,74,74,0,74,0,29,29,29,29,29,0,29,25-03-22,25-03-22,13:33:24,Mon Apr 25 2022 13:33:24 GMT+0200 (közép-európai nyári idő),The main experiment item,yes,0,0,C:/Users/rrics/Documents/!!ResearchBMECOGSCI/gnet,0,0,0,prototype1.png,no,mono,no,18,no,black,no,no,768,1229,3.5.6,legacy,xpyriment,osweb,1.3.13,0,space,space,space,space,18705,11640,15335,18705,2,legacy,680,1280,24,720,24,0,0,1280,1650886494961,1024,2,48000,-16,experiment,p2sarrsha1.png,1,odd,Win32,117,123495,120483,117,117,628119,629633,623116,125012,623116,117,782705,784219,779701,629637,779701,visual_patterns,0,0,0,yes,1366
undefined,undefined,undefined,undefined,white,no,Mozilla,Netscape,"5.0 (Windows NT 10.0; Win64; x64) AppleWebKit/537.36 (KHTML, like Gecko) Chrome/100.0.4896.127 Safari/537.36",xpyriment,legacy,legacy,0,uniform,0,0,0,0,24,24,24,0,0,74,74,74,74,74,0,74,0,30,30,30,30,30,0,30,25-03-22,25-03-22,13:33:24,Mon Apr 25 2022 13:33:24 GMT+0200 (közép-európai nyári idő),The main experiment item,yes,0,0,C:/Users/rrics/Documents/!!ResearchBMECOGSCI/gnet,0,0,0,prototype1.png,no,mono,no,18,no,black,no,no,768,1229,3.5.6,legacy,xpyriment,osweb,1.3.13,0,space,space,space,space,18705,11640,15335,18705,2,legacy,680,1280,24,720,24,0,0,1280,1650886494961,1024,2,48000,-16,experiment,p3sarr2.png,1,odd,Win32,117,123495,120483,117,117,628119,629633,623116,125012,623116,117,787248,788749,784247,629637,784247,visual_patterns,0,0,0,yes,1366
undefined,undefined,undefined,undefined,white,no,Mozilla,Netscape,"5.0 (Windows NT 10.0; Win64; x64) AppleWebKit/537.36 (KHTML, like Gecko) Chrome/100.0.4896.127 Safari/537.36",xpyriment,legacy,legacy,0,uniform,0,0,0,0,24,24,24,0,0,74,74,74,74,74,0,74,0,31,31,31,31,31,0,31,25-03-22,25-03-22,13:33:24,Mon Apr 25 2022 13:33:24 GMT+0200 (közép-európai nyári idő),The main experiment item,yes,0,0,C:/Users/rrics/Documents/!!ResearchBMECOGSCI/gnet,0,0,0,prototype1.png,no,mono,no,18,no,black,no,no,768,1229,3.5.6,legacy,xpyriment,osweb,1.3.13,0,space,space,space,space,18705,11640,15335,18705,2,legacy,680,1280,24,720,24,0,0,1280,1650886494961,1024,2,48000,-16,experiment,p3sarrshacol3.png,1,odd,Win32,117,123495,120483,117,117,628119,629633,623116,125012,623116,117,791760,793262,788764,629637,788764,visual_patterns,0,0,0,yes,1366
undefined,undefined,undefined,undefined,white,no,Mozilla,Netscape,"5.0 (Windows NT 10.0; Win64; x64) AppleWebKit/537.36 (KHTML, like Gecko) Chrome/100.0.4896.127 Safari/537.36",xpyriment,legacy,legacy,0,uniform,0,0,0,0,24,24,24,0,0,74,74,74,74,74,0,74,0,32,32,32,32,32,0,32,25-03-22,25-03-22,13:33:24,Mon Apr 25 2022 13:33:24 GMT+0200 (közép-európai nyári idő),The main experiment item,yes,0,0,C:/Users/rrics/Documents/!!ResearchBMECOGSCI/gnet,0,0,0,prototype1.png,no,mono,no,18,no,black,no,no,768,1229,3.5.6,legacy,xpyriment,osweb,1.3.13,0,space,space,space,space,18705,11640,15335,18705,2,legacy,680,1280,24,720,24,0,0,1280,1650886494961,1024,2,48000,-16,experiment,p2sarrcol4.png,1,odd,Win32,117,123495,120483,117,117,628119,629633,623116,125012,623116,117,796275,797790,793279,629637,793279,visual_patterns,0,0,0,yes,1366
undefined,undefined,undefined,undefined,white,no,Mozilla,Netscape,"5.0 (Windows NT 10.0; Win64; x64) AppleWebKit/537.36 (KHTML, like Gecko) Chrome/100.0.4896.127 Safari/537.36",xpyriment,legacy,legacy,0,uniform,0,0,0,0,24,24,24,0,0,74,74,74,74,74,0,74,0,33,33,33,33,33,0,33,25-03-22,25-03-22,13:33:24,Mon Apr 25 2022 13:33:24 GMT+0200 (közép-európai nyári idő),The main experiment item,yes,0,0,C:/Users/rrics/Documents/!!ResearchBMECOGSCI/gnet,0,0,0,prototype1.png,no,mono,no,18,no,black,no,no,768,1229,3.5.6,legacy,xpyriment,osweb,1.3.13,0,space,space,space,space,18705,11640,15335,18705,2,legacy,680,1280,24,720,24,0,0,1280,1650886494961,1024,2,48000,-16,experiment,p5sarrcol1.png,1,odd,Win32,117,123495,120483,117,117,628119,629633,623116,125012,623116,117,800804,802319,797804,629637,797804,visual_patterns,0,0,0,yes,1366
undefined,undefined,undefined,undefined,white,no,Mozilla,Netscape,"5.0 (Windows NT 10.0; Win64; x64) AppleWebKit/537.36 (KHTML, like Gecko) Chrome/100.0.4896.127 Safari/537.36",xpyriment,legacy,legacy,0,uniform,0,0,0,0,24,24,24,0,0,74,74,74,74,74,0,74,0,34,34,34,34,34,0,34,25-03-22,25-03-22,13:33:24,Mon Apr 25 2022 13:33:24 GMT+0200 (közép-európai nyári idő),The main experiment item,yes,0,0,C:/Users/rrics/Documents/!!ResearchBMECOGSCI/gnet,0,0,0,prototype1.png,no,mono,no,18,no,black,no,no,768,1229,3.5.6,legacy,xpyriment,osweb,1.3.13,0,space,space,space,space,18705,11640,15335,18705,2,legacy,680,1280,24,720,24,0,0,1280,1650886494961,1024,2,48000,-16,experiment,p8sarr2.png,1,odd,Win32,117,123495,120483,117,117,628119,629633,623116,125012,623116,117,805330,806831,802331,629637,802331,visual_patterns,0,0,0,yes,1366
undefined,undefined,undefined,undefined,white,no,Mozilla,Netscape,"5.0 (Windows NT 10.0; Win64; x64) AppleWebKit/537.36 (KHTML, like Gecko) Chrome/100.0.4896.127 Safari/537.36",xpyriment,legacy,legacy,0,uniform,0,0,0,0,24,24,24,0,0,74,74,74,74,74,0,74,0,35,35,35,35,35,0,35,25-03-22,25-03-22,13:33:24,Mon Apr 25 2022 13:33:24 GMT+0200 (közép-európai nyári idő),The main experiment item,yes,0,0,C:/Users/rrics/Documents/!!ResearchBMECOGSCI/gnet,0,0,0,prototype1.png,no,mono,no,18,no,black,no,no,768,1229,3.5.6,legacy,xpyriment,osweb,1.3.13,0,space,space,space,space,18705,11640,15335,18705,2,legacy,680,1280,24,720,24,0,0,1280,1650886494961,1024,2,48000,-16,experiment,p5sarr3.png,1,odd,Win32,117,123495,120483,117,117,628119,629633,623116,125012,623116,117,809861,811377,806861,629637,806861,visual_patterns,0,0,0,yes,1366
undefined,undefined,undefined,undefined,white,no,Mozilla,Netscape,"5.0 (Windows NT 10.0; Win64; x64) AppleWebKit/537.36 (KHTML, like Gecko) Chrome/100.0.4896.127 Safari/537.36",xpyriment,legacy,legacy,0,uniform,0,0,0,0,24,24,24,0,0,74,74,74,74,74,0,74,0,36,36,36,36,36,0,36,25-03-22,25-03-22,13:33:24,Mon Apr 25 2022 13:33:24 GMT+0200 (közép-európai nyári idő),The main experiment item,yes,0,0,C:/Users/rrics/Documents/!!ResearchBMECOGSCI/gnet,0,0,0,prototype1.png,no,mono,no,18,no,black,no,no,768,1229,3.5.6,legacy,xpyriment,osweb,1.3.13,0,space,space,space,space,18705,11640,15335,18705,2,legacy,680,1280,24,720,24,0,0,1280,1650886494961,1024,2,48000,-16,experiment,p7sarr1.png,1,odd,Win32,117,123495,120483,117,117,628119,629633,623116,125012,623116,117,814389,815906,811389,629637,811389,visual_patterns,0,0,0,yes,1366
undefined,undefined,undefined,undefined,white,no,Mozilla,Netscape,"5.0 (Windows NT 10.0; Win64; x64) AppleWebKit/537.36 (KHTML, like Gecko) Chrome/100.0.4896.127 Safari/537.36",xpyriment,legacy,legacy,0,uniform,0,0,0,0,24,24,24,0,0,74,74,74,74,74,0,74,0,37,37,37,37,37,0,37,25-03-22,25-03-22,13:33:24,Mon Apr 25 2022 13:33:24 GMT+0200 (közép-európai nyári idő),The main experiment item,yes,0,0,C:/Users/rrics/Documents/!!ResearchBMECOGSCI/gnet,0,0,0,prototype1.png,no,mono,no,18,no,black,no,no,768,1229,3.5.6,legacy,xpyriment,osweb,1.3.13,0,space,space,space,space,18705,11640,15335,18705,2,legacy,680,1280,24,720,24,0,0,1280,1650886494961,1024,2,48000,-16,experiment,p1sarrcol4.png,1,odd,Win32,117,123495,120483,117,117,628119,629633,623116,125012,623116,117,818920,820435,815921,629637,815921,visual_patterns,0,0,0,yes,1366
undefined,undefined,undefined,undefined,white,no,Mozilla,Netscape,"5.0 (Windows NT 10.0; Win64; x64) AppleWebKit/537.36 (KHTML, like Gecko) Chrome/100.0.4896.127 Safari/537.36",xpyriment,legacy,legacy,0,uniform,0,0,0,0,24,24,24,0,0,74,74,74,74,74,0,74,0,38,38,38,38,38,0,38,25-03-22,25-03-22,13:33:24,Mon Apr 25 2022 13:33:24 GMT+0200 (közép-európai nyári idő),The main experiment item,yes,0,0,C:/Users/rrics/Documents/!!ResearchBMECOGSCI/gnet,0,0,0,prototype1.png,no,mono,no,18,no,black,no,no,768,1229,3.5.6,legacy,xpyriment,osweb,1.3.13,0,space,space,space,space,18705,11640,15335,18705,2,legacy,680,1280,24,720,24,0,0,1280,1650886494961,1024,2,48000,-16,experiment,p3sarrsha4.png,1,odd,Win32,117,123495,120483,117,117,628119,629633,623116,125012,623116,117,823447,824948,820449,629637,820449,visual_patterns,0,0,0,yes,1366
undefined,undefined,undefined,undefined,white,no,Mozilla,Netscape,"5.0 (Windows NT 10.0; Win64; x64) AppleWebKit/537.36 (KHTML, like Gecko) Chrome/100.0.4896.127 Safari/537.36",xpyriment,legacy,legacy,0,uniform,0,0,0,0,24,24,24,0,0,74,74,74,74,74,0,74,0,39,39,39,39,39,0,39,25-03-22,25-03-22,13:33:24,Mon Apr 25 2022 13:33:24 GMT+0200 (közép-európai nyári idő),The main experiment item,yes,0,0,C:/Users/rrics/Documents/!!ResearchBMECOGSCI/gnet,0,0,0,prototype1.png,no,mono,no,18,no,black,no,no,768,1229,3.5.6,legacy,xpyriment,osweb,1.3.13,0,space,space,space,space,18705,11640,15335,18705,2,legacy,680,1280,24,720,24,0,0,1280,1650886494961,1024,2,48000,-16,experiment,p3sarr1.png,1,odd,Win32,117,123495,120483,117,117,628119,629633,623116,125012,623116,117,827959,829461,824959,629637,824959,visual_patterns,0,0,0,yes,1366
undefined,undefined,undefined,undefined,white,no,Mozilla,Netscape,"5.0 (Windows NT 10.0; Win64; x64) AppleWebKit/537.36 (KHTML, like Gecko) Chrome/100.0.4896.127 Safari/537.36",xpyriment,legacy,legacy,0,uniform,0,0,0,0,24,24,24,0,0,74,74,74,74,74,0,74,0,40,40,40,40,40,0,40,25-03-22,25-03-22,13:33:24,Mon Apr 25 2022 13:33:24 GMT+0200 (közép-európai nyári idő),The main experiment item,yes,0,0,C:/Users/rrics/Documents/!!ResearchBMECOGSCI/gnet,0,0,0,prototype1.png,no,mono,no,18,no,black,no,no,768,1229,3.5.6,legacy,xpyriment,osweb,1.3.13,0,space,space,space,space,18705,11640,15335,18705,2,legacy,680,1280,24,720,24,0,0,1280,1650886494961,1024,2,48000,-16,experiment,p2sarrsha3.png,1,odd,Win32,117,123495,120483,117,117,628119,629633,623116,125012,623116,117,832494,834006,829492,629637,829492,visual_patterns,0,0,0,yes,1366
undefined,undefined,undefined,undefined,white,no,Mozilla,Netscape,"5.0 (Windows NT 10.0; Win64; x64) AppleWebKit/537.36 (KHTML, like Gecko) Chrome/100.0.4896.127 Safari/537.36",xpyriment,legacy,legacy,0,uniform,0,0,0,0,24,24,24,0,0,74,74,74,74,74,0,74,0,41,41,41,41,41,0,41,25-03-22,25-03-22,13:33:24,Mon Apr 25 2022 13:33:24 GMT+0200 (közép-európai nyári idő),The main experiment item,yes,0,0,C:/Users/rrics/Documents/!!ResearchBMECOGSCI/gnet,0,0,0,prototype1.png,no,mono,no,18,no,black,no,no,768,1229,3.5.6,legacy,xpyriment,osweb,1.3.13,0,space,space,space,space,18705,11640,15335,18705,2,legacy,680,1280,24,720,24,0,0,1280,1650886494961,1024,2,48000,-16,experiment,p9sarr3.png,1,odd,Win32,117,123495,120483,117,117,628119,629633,623116,125012,623116,117,837016,838518,834019,629637,834019,visual_patterns,0,0,0,yes,1366
undefined,undefined,undefined,undefined,white,no,Mozilla,Netscape,"5.0 (Windows NT 10.0; Win64; x64) AppleWebKit/537.36 (KHTML, like Gecko) Chrome/100.0.4896.127 Safari/537.36",xpyriment,legacy,legacy,0,uniform,0,0,0,0,24,24,24,0,0,74,74,74,74,74,0,74,0,42,42,42,42,42,0,42,25-03-22,25-03-22,13:33:24,Mon Apr 25 2022 13:33:24 GMT+0200 (közép-európai nyári idő),The main experiment item,yes,0,0,C:/Users/rrics/Documents/!!ResearchBMECOGSCI/gnet,0,0,0,prototype1.png,no,mono,no,18,no,black,no,no,768,1229,3.5.6,legacy,xpyriment,osweb,1.3.13,0,space,space,space,space,18705,11640,15335,18705,2,legacy,680,1280,24,720,24,0,0,1280,1650886494961,1024,2,48000,-16,experiment,p10sarr4.png,1,odd,Win32,117,123495,120483,117,117,628119,629633,623116,125012,623116,117,841535,843048,838534,629637,838534,visual_patterns,0,0,0,yes,1366
undefined,undefined,undefined,undefined,white,no,Mozilla,Netscape,"5.0 (Windows NT 10.0; Win64; x64) AppleWebKit/537.36 (KHTML, like Gecko) Chrome/100.0.4896.127 Safari/537.36",xpyriment,legacy,legacy,0,uniform,0,0,0,0,24,24,24,0,0,74,74,74,74,74,0,74,0,43,43,43,43,43,0,43,25-03-22,25-03-22,13:33:24,Mon Apr 25 2022 13:33:24 GMT+0200 (közép-európai nyári idő),The main experiment item,yes,0,0,C:/Users/rrics/Documents/!!ResearchBMECOGSCI/gnet,0,0,0,prototype1.png,no,mono,no,18,no,black,no,no,768,1229,3.5.6,legacy,xpyriment,osweb,1.3.13,0,space,space,space,space,18705,11640,15335,18705,2,legacy,680,1280,24,720,24,0,0,1280,1650886494961,1024,2,48000,-16,experiment,p4sarrcol1.png,1,odd,Win32,117,123495,120483,117,117,628119,629633,623116,125012,623116,117,846060,847561,843060,629637,843060,visual_patterns,0,0,0,yes,1366
undefined,undefined,undefined,undefined,white,no,Mozilla,Netscape,"5.0 (Windows NT 10.0; Win64; x64) AppleWebKit/537.36 (KHTML, like Gecko) Chrome/100.0.4896.127 Safari/537.36",xpyriment,legacy,legacy,0,uniform,0,0,0,0,24,24,24,0,0,74,74,74,74,74,0,74,0,44,44,44,44,44,0,44,25-03-22,25-03-22,13:33:24,Mon Apr 25 2022 13:33:24 GMT+0200 (közép-európai nyári idő),The main experiment item,yes,0,0,C:/Users/rrics/Documents/!!ResearchBMECOGSCI/gnet,0,0,0,prototype1.png,no,mono,no,18,no,black,no,no,768,1229,3.5.6,legacy,xpyriment,osweb,1.3.13,0,space,space,space,space,18705,11640,15335,18705,2,legacy,680,1280,24,720,24,0,0,1280,1650886494961,1024,2,48000,-16,experiment,p5sarrshacol4.png,1,odd,Win32,117,123495,120483,117,117,628119,629633,623116,125012,623116,117,850575,852089,847576,629637,847576,visual_patterns,0,0,0,yes,1366
undefined,undefined,undefined,undefined,white,no,Mozilla,Netscape,"5.0 (Windows NT 10.0; Win64; x64) AppleWebKit/537.36 (KHTML, like Gecko) Chrome/100.0.4896.127 Safari/537.36",xpyriment,legacy,legacy,0,uniform,0,0,0,0,24,24,24,0,0,74,74,74,74,74,0,74,0,45,45,45,45,45,0,45,25-03-22,25-03-22,13:33:24,Mon Apr 25 2022 13:33:24 GMT+0200 (közép-európai nyári idő),The main experiment item,yes,0,0,C:/Users/rrics/Documents/!!ResearchBMECOGSCI/gnet,0,0,0,prototype1.png,no,mono,no,18,no,black,no,no,768,1229,3.5.6,legacy,xpyriment,osweb,1.3.13,0,space,space,space,space,18705,11640,15335,18705,2,legacy,680,1280,24,720,24,0,0,1280,1650886494961,1024,2,48000,-16,experiment,p3sarr3.png,1,odd,Win32,117,123495,120483,117,117,628119,629633,623116,125012,623116,117,855104,856618,852104,629637,852104,visual_patterns,0,0,0,yes,1366
undefined,undefined,undefined,undefined,white,no,Mozilla,Netscape,"5.0 (Windows NT 10.0; Win64; x64) AppleWebKit/537.36 (KHTML, like Gecko) Chrome/100.0.4896.127 Safari/537.36",xpyriment,legacy,legacy,0,uniform,0,0,0,0,24,24,24,0,0,74,74,74,74,74,0,74,0,46,46,46,46,46,0,46,25-03-22,25-03-22,13:33:24,Mon Apr 25 2022 13:33:24 GMT+0200 (közép-európai nyári idő),The main experiment item,yes,0,0,C:/Users/rrics/Documents/!!ResearchBMECOGSCI/gnet,0,0,0,prototype1.png,no,mono,no,18,no,black,no,no,768,1229,3.5.6,legacy,xpyriment,osweb,1.3.13,0,space,space,space,space,18705,11640,15335,18705,2,legacy,680,1280,24,720,24,0,0,1280,1650886494961,1024,2,48000,-16,experiment,p2sarr3.png,1,odd,Win32,117,123495,120483,117,117,628119,629633,623116,125012,623116,117,859631,861148,856632,629637,856632,visual_patterns,0,0,0,yes,1366
undefined,undefined,undefined,undefined,white,no,Mozilla,Netscape,"5.0 (Windows NT 10.0; Win64; x64) AppleWebKit/537.36 (KHTML, like Gecko) Chrome/100.0.4896.127 Safari/537.36",xpyriment,legacy,legacy,0,uniform,0,0,0,0,24,24,24,0,0,74,74,74,74,74,0,74,0,47,47,47,47,47,0,47,25-03-22,25-03-22,13:33:24,Mon Apr 25 2022 13:33:24 GMT+0200 (közép-európai nyári idő),The main experiment item,yes,0,0,C:/Users/rrics/Documents/!!ResearchBMECOGSCI/gnet,0,0,0,prototype1.png,no,mono,no,18,no,black,no,no,768,1229,3.5.6,legacy,xpyriment,osweb,1.3.13,0,space,space,space,space,18705,11640,15335,18705,2,legacy,680,1280,24,720,24,0,0,1280,1650886494961,1024,2,48000,-16,experiment,p4sarr2.png,1,odd,Win32,117,123495,120483,117,117,628119,629633,623116,125012,623116,117,864158,865661,861158,629637,861158,visual_patterns,0,0,0,yes,1366
