acc,accuracy,average_response_time,avg_rt,background,bidi,browser_codename,browser_name,browser_version,canvas_backend,clock_backend,color_backend,compensation,coordinates,count_end,count_experiment,count_osweb,count_prestudy,count_prestudy_isi,count_prestudy_sequence,count_prestudy_stimpres,count_start,count_study,count_study_coroutines,count_study_isi,count_study_logger,count_study_response,count_study_sequence,count_study_start,count_study_stimpres,count_test,count_test_coroutines,count_test_isi,count_test_logger,count_test_response,count_test_sequence,count_test_start,count_test_stimpres,date_startdate,date_startdateUTC,date_starttime,datetime,description,disable_garbage_collection,experiment_debug,experiment_parameters,experiment_path,experiment_pilot,experiment_taskname,experiment_taskversion,fampict,font_bold,font_family,font_italic,font_size,font_underline,foreground,form_clicks,fullscreen,height,jatosStudyResultId,jatosVersion,keyboard_backend,mouse_backend,opensesame_codename,opensesame_version,queryParams_fbclid,repeat_cycle,response,response_start,response_study_start,response_test_start,response_time,response_time_start,response_time_study_start,response_time_test_start,round_decimals,sampler_backend,screen_availableHeight,screen_availableWidth,screen_colorDepth,screen_height,screen_pixelDepth,screen_screenX,screen_screenY,screen_width,sessionid,sound_buf_size,sound_channels,sound_freq,sound_sample_size,start,stim,subject_nr,subject_parity,system_os,time_prestudy,time_prestudy_isi,time_prestudy_stimpres,time_start,time_study,time_study_isi,time_study_logger,time_study_response,time_study_start,time_study_stimpres,time_test,time_test_isi,time_test_logger,time_test_response,time_test_start,time_test_stimpres,title,total_correct,total_response_time,total_responses,uniform_coordinates,width
undefined,undefined,undefined,undefined,white,no,Mozilla,Netscape,"5.0 (Windows NT 10.0; Win64; x64) AppleWebKit/537.36 (KHTML, like Gecko) Chrome/100.0.4896.127 Safari/537.36",xpyriment,legacy,legacy,0,uniform,0,0,0,0,24,24,24,0,0,0,0,0,0,0,0,0,0,,,,,,0,,26-03-22,26-03-22,19:34:34,Tue Apr 26 2022 19:34:34 GMT+0200 (közép-európai nyári idő),The main experiment item,yes,0,0,C:/Users/rrics/Documents/!!ResearchBMECOGSCI/gnet,0,0,0,prototype4.png,no,mono,no,18,no,black,no,no,768,1235,3.5.6,legacy,xpyriment,osweb,1.3.13,IwAR3ubu1nz9YYoeZnUCkLOGd9tO1sNHtzrxf65DA8U9DYs5_Q-IF85hB4R9c,0,right,right,right,,28644,14860,28644,,2,legacy,1040,1920,24,1080,24,0,0,1920,1650994505768,1024,2,48000,-16,experiment,p6sarr1.png,0,even,Win32,177,126839,123825,177,177,162069,163577,157067,128357,157066,177,,,,,,visual_patterns,0,0,0,yes,1366
undefined,undefined,undefined,undefined,white,no,Mozilla,Netscape,"5.0 (Windows NT 10.0; Win64; x64) AppleWebKit/537.36 (KHTML, like Gecko) Chrome/100.0.4896.127 Safari/537.36",xpyriment,legacy,legacy,0,uniform,0,0,0,0,24,24,24,0,0,1,1,1,1,1,0,1,0,,,,,,0,,26-03-22,26-03-22,19:34:34,Tue Apr 26 2022 19:34:34 GMT+0200 (közép-európai nyári idő),The main experiment item,yes,0,0,C:/Users/rrics/Documents/!!ResearchBMECOGSCI/gnet,0,0,0,prototype4.png,no,mono,no,18,no,black,no,no,768,1235,3.5.6,legacy,xpyriment,osweb,1.3.13,IwAR3ubu1nz9YYoeZnUCkLOGd9tO1sNHtzrxf65DA8U9DYs5_Q-IF85hB4R9c,0,right,right,right,,28644,14860,28644,,2,legacy,1040,1920,24,1080,24,0,0,1920,1650994505768,1024,2,48000,-16,experiment,prototype3.png,0,even,Win32,177,126839,123825,177,177,168594,170107,163594,128357,163594,177,,,,,,visual_patterns,0,0,0,yes,1366
undefined,undefined,undefined,undefined,white,no,Mozilla,Netscape,"5.0 (Windows NT 10.0; Win64; x64) AppleWebKit/537.36 (KHTML, like Gecko) Chrome/100.0.4896.127 Safari/537.36",xpyriment,legacy,legacy,0,uniform,0,0,0,0,24,24,24,0,0,2,2,2,2,2,0,2,0,,,,,,0,,26-03-22,26-03-22,19:34:34,Tue Apr 26 2022 19:34:34 GMT+0200 (közép-európai nyári idő),The main experiment item,yes,0,0,C:/Users/rrics/Documents/!!ResearchBMECOGSCI/gnet,0,0,0,prototype4.png,no,mono,no,18,no,black,no,no,768,1235,3.5.6,legacy,xpyriment,osweb,1.3.13,IwAR3ubu1nz9YYoeZnUCkLOGd9tO1sNHtzrxf65DA8U9DYs5_Q-IF85hB4R9c,0,right,right,right,,28644,14860,28644,,2,legacy,1040,1920,24,1080,24,0,0,1920,1650994505768,1024,2,48000,-16,experiment,p3sarr1.png,0,even,Win32,177,126839,123825,177,177,175120,176621,170123,128357,170123,177,,,,,,visual_patterns,0,0,0,yes,1366
undefined,undefined,undefined,undefined,white,no,Mozilla,Netscape,"5.0 (Windows NT 10.0; Win64; x64) AppleWebKit/537.36 (KHTML, like Gecko) Chrome/100.0.4896.127 Safari/537.36",xpyriment,legacy,legacy,0,uniform,0,0,0,0,24,24,24,0,0,3,3,3,3,3,0,3,0,,,,,,0,,26-03-22,26-03-22,19:34:34,Tue Apr 26 2022 19:34:34 GMT+0200 (közép-európai nyári idő),The main experiment item,yes,0,0,C:/Users/rrics/Documents/!!ResearchBMECOGSCI/gnet,0,0,0,prototype4.png,no,mono,no,18,no,black,no,no,768,1235,3.5.6,legacy,xpyriment,osweb,1.3.13,IwAR3ubu1nz9YYoeZnUCkLOGd9tO1sNHtzrxf65DA8U9DYs5_Q-IF85hB4R9c,0,right,right,right,,28644,14860,28644,,2,legacy,1040,1920,24,1080,24,0,0,1920,1650994505768,1024,2,48000,-16,experiment,p9sarr2.png,0,even,Win32,177,126839,123825,177,177,181634,183136,176637,128357,176637,177,,,,,,visual_patterns,0,0,0,yes,1366
undefined,undefined,undefined,undefined,white,no,Mozilla,Netscape,"5.0 (Windows NT 10.0; Win64; x64) AppleWebKit/537.36 (KHTML, like Gecko) Chrome/100.0.4896.127 Safari/537.36",xpyriment,legacy,legacy,0,uniform,0,0,0,0,24,24,24,0,0,4,4,4,4,4,0,4,0,,,,,,0,,26-03-22,26-03-22,19:34:34,Tue Apr 26 2022 19:34:34 GMT+0200 (közép-európai nyári idő),The main experiment item,yes,0,0,C:/Users/rrics/Documents/!!ResearchBMECOGSCI/gnet,0,0,0,prototype4.png,no,mono,no,18,no,black,no,no,768,1235,3.5.6,legacy,xpyriment,osweb,1.3.13,IwAR3ubu1nz9YYoeZnUCkLOGd9tO1sNHtzrxf65DA8U9DYs5_Q-IF85hB4R9c,0,right,right,right,,28644,14860,28644,,2,legacy,1040,1920,24,1080,24,0,0,1920,1650994505768,1024,2,48000,-16,experiment,p4sarr2.png,0,even,Win32,177,126839,123825,177,177,188149,189650,183152,128357,183152,177,,,,,,visual_patterns,0,0,0,yes,1366
undefined,undefined,undefined,undefined,white,no,Mozilla,Netscape,"5.0 (Windows NT 10.0; Win64; x64) AppleWebKit/537.36 (KHTML, like Gecko) Chrome/100.0.4896.127 Safari/537.36",xpyriment,legacy,legacy,0,uniform,0,0,0,0,24,24,24,0,0,5,5,5,5,5,0,5,0,,,,,,0,,26-03-22,26-03-22,19:34:34,Tue Apr 26 2022 19:34:34 GMT+0200 (közép-európai nyári idő),The main experiment item,yes,0,0,C:/Users/rrics/Documents/!!ResearchBMECOGSCI/gnet,0,0,0,prototype4.png,no,mono,no,18,no,black,no,no,768,1235,3.5.6,legacy,xpyriment,osweb,1.3.13,IwAR3ubu1nz9YYoeZnUCkLOGd9tO1sNHtzrxf65DA8U9DYs5_Q-IF85hB4R9c,0,right,right,right,,28644,14860,28644,,2,legacy,1040,1920,24,1080,24,0,0,1920,1650994505768,1024,2,48000,-16,experiment,p4sarrshacol2.png,0,even,Win32,177,126839,123825,177,177,194699,196215,189699,128357,189699,177,,,,,,visual_patterns,0,0,0,yes,1366
undefined,undefined,undefined,undefined,white,no,Mozilla,Netscape,"5.0 (Windows NT 10.0; Win64; x64) AppleWebKit/537.36 (KHTML, like Gecko) Chrome/100.0.4896.127 Safari/537.36",xpyriment,legacy,legacy,0,uniform,0,0,0,0,24,24,24,0,0,6,6,6,6,6,0,6,0,,,,,,0,,26-03-22,26-03-22,19:34:34,Tue Apr 26 2022 19:34:34 GMT+0200 (közép-európai nyári idő),The main experiment item,yes,0,0,C:/Users/rrics/Documents/!!ResearchBMECOGSCI/gnet,0,0,0,prototype4.png,no,mono,no,18,no,black,no,no,768,1235,3.5.6,legacy,xpyriment,osweb,1.3.13,IwAR3ubu1nz9YYoeZnUCkLOGd9tO1sNHtzrxf65DA8U9DYs5_Q-IF85hB4R9c,0,right,right,right,,28644,14860,28644,,2,legacy,1040,1920,24,1080,24,0,0,1920,1650994505768,1024,2,48000,-16,experiment,p5sarrsha2.png,0,even,Win32,177,126839,123825,177,177,201233,202746,196235,128357,196235,177,,,,,,visual_patterns,0,0,0,yes,1366
undefined,undefined,undefined,undefined,white,no,Mozilla,Netscape,"5.0 (Windows NT 10.0; Win64; x64) AppleWebKit/537.36 (KHTML, like Gecko) Chrome/100.0.4896.127 Safari/537.36",xpyriment,legacy,legacy,0,uniform,0,0,0,0,24,24,24,0,0,7,7,7,7,7,0,7,0,,,,,,0,,26-03-22,26-03-22,19:34:34,Tue Apr 26 2022 19:34:34 GMT+0200 (közép-európai nyári idő),The main experiment item,yes,0,0,C:/Users/rrics/Documents/!!ResearchBMECOGSCI/gnet,0,0,0,prototype4.png,no,mono,no,18,no,black,no,no,768,1235,3.5.6,legacy,xpyriment,osweb,1.3.13,IwAR3ubu1nz9YYoeZnUCkLOGd9tO1sNHtzrxf65DA8U9DYs5_Q-IF85hB4R9c,0,right,right,right,,28644,14860,28644,,2,legacy,1040,1920,24,1080,24,0,0,1920,1650994505768,1024,2,48000,-16,experiment,p2sarr1.png,0,even,Win32,177,126839,123825,177,177,207758,209260,202763,128357,202763,177,,,,,,visual_patterns,0,0,0,yes,1366
undefined,undefined,undefined,undefined,white,no,Mozilla,Netscape,"5.0 (Windows NT 10.0; Win64; x64) AppleWebKit/537.36 (KHTML, like Gecko) Chrome/100.0.4896.127 Safari/537.36",xpyriment,legacy,legacy,0,uniform,0,0,0,0,24,24,24,0,0,8,8,8,8,8,0,8,0,,,,,,0,,26-03-22,26-03-22,19:34:34,Tue Apr 26 2022 19:34:34 GMT+0200 (közép-európai nyári idő),The main experiment item,yes,0,0,C:/Users/rrics/Documents/!!ResearchBMECOGSCI/gnet,0,0,0,prototype4.png,no,mono,no,18,no,black,no,no,768,1235,3.5.6,legacy,xpyriment,osweb,1.3.13,IwAR3ubu1nz9YYoeZnUCkLOGd9tO1sNHtzrxf65DA8U9DYs5_Q-IF85hB4R9c,0,right,right,right,,28644,14860,28644,,2,legacy,1040,1920,24,1080,24,0,0,1920,1650994505768,1024,2,48000,-16,experiment,prototype4.png,0,even,Win32,177,126839,123825,177,177,214275,215791,209273,128357,209273,177,,,,,,visual_patterns,0,0,0,yes,1366
undefined,undefined,undefined,undefined,white,no,Mozilla,Netscape,"5.0 (Windows NT 10.0; Win64; x64) AppleWebKit/537.36 (KHTML, like Gecko) Chrome/100.0.4896.127 Safari/537.36",xpyriment,legacy,legacy,0,uniform,0,0,0,0,24,24,24,0,0,9,9,9,9,9,0,9,0,,,,,,0,,26-03-22,26-03-22,19:34:34,Tue Apr 26 2022 19:34:34 GMT+0200 (közép-európai nyári idő),The main experiment item,yes,0,0,C:/Users/rrics/Documents/!!ResearchBMECOGSCI/gnet,0,0,0,prototype4.png,no,mono,no,18,no,black,no,no,768,1235,3.5.6,legacy,xpyriment,osweb,1.3.13,IwAR3ubu1nz9YYoeZnUCkLOGd9tO1sNHtzrxf65DA8U9DYs5_Q-IF85hB4R9c,0,right,right,right,,28644,14860,28644,,2,legacy,1040,1920,24,1080,24,0,0,1920,1650994505768,1024,2,48000,-16,experiment,p5sarrsha1.png,0,even,Win32,177,126839,123825,177,177,220804,222306,215809,128357,215809,177,,,,,,visual_patterns,0,0,0,yes,1366
undefined,undefined,undefined,undefined,white,no,Mozilla,Netscape,"5.0 (Windows NT 10.0; Win64; x64) AppleWebKit/537.36 (KHTML, like Gecko) Chrome/100.0.4896.127 Safari/537.36",xpyriment,legacy,legacy,0,uniform,0,0,0,0,24,24,24,0,0,10,10,10,10,10,0,10,0,,,,,,0,,26-03-22,26-03-22,19:34:34,Tue Apr 26 2022 19:34:34 GMT+0200 (közép-európai nyári idő),The main experiment item,yes,0,0,C:/Users/rrics/Documents/!!ResearchBMECOGSCI/gnet,0,0,0,prototype4.png,no,mono,no,18,no,black,no,no,768,1235,3.5.6,legacy,xpyriment,osweb,1.3.13,IwAR3ubu1nz9YYoeZnUCkLOGd9tO1sNHtzrxf65DA8U9DYs5_Q-IF85hB4R9c,0,right,right,right,,28644,14860,28644,,2,legacy,1040,1920,24,1080,24,0,0,1920,1650994505768,1024,2,48000,-16,experiment,p5sarrcol1.png,0,even,Win32,177,126839,123825,177,177,227319,228820,222322,128357,222322,177,,,,,,visual_patterns,0,0,0,yes,1366
undefined,undefined,undefined,undefined,white,no,Mozilla,Netscape,"5.0 (Windows NT 10.0; Win64; x64) AppleWebKit/537.36 (KHTML, like Gecko) Chrome/100.0.4896.127 Safari/537.36",xpyriment,legacy,legacy,0,uniform,0,0,0,0,24,24,24,0,0,11,11,11,11,11,0,11,0,,,,,,0,,26-03-22,26-03-22,19:34:34,Tue Apr 26 2022 19:34:34 GMT+0200 (közép-európai nyári idő),The main experiment item,yes,0,0,C:/Users/rrics/Documents/!!ResearchBMECOGSCI/gnet,0,0,0,prototype4.png,no,mono,no,18,no,black,no,no,768,1235,3.5.6,legacy,xpyriment,osweb,1.3.13,IwAR3ubu1nz9YYoeZnUCkLOGd9tO1sNHtzrxf65DA8U9DYs5_Q-IF85hB4R9c,0,right,right,right,,28644,14860,28644,,2,legacy,1040,1920,24,1080,24,0,0,1920,1650994505768,1024,2,48000,-16,experiment,p8sarr2.png,0,even,Win32,177,126839,123825,177,177,233834,235335,228837,128357,228837,177,,,,,,visual_patterns,0,0,0,yes,1366
undefined,undefined,undefined,undefined,white,no,Mozilla,Netscape,"5.0 (Windows NT 10.0; Win64; x64) AppleWebKit/537.36 (KHTML, like Gecko) Chrome/100.0.4896.127 Safari/537.36",xpyriment,legacy,legacy,0,uniform,0,0,0,0,24,24,24,0,0,12,12,12,12,12,0,12,0,,,,,,0,,26-03-22,26-03-22,19:34:34,Tue Apr 26 2022 19:34:34 GMT+0200 (közép-európai nyári idő),The main experiment item,yes,0,0,C:/Users/rrics/Documents/!!ResearchBMECOGSCI/gnet,0,0,0,prototype4.png,no,mono,no,18,no,black,no,no,768,1235,3.5.6,legacy,xpyriment,osweb,1.3.13,IwAR3ubu1nz9YYoeZnUCkLOGd9tO1sNHtzrxf65DA8U9DYs5_Q-IF85hB4R9c,0,right,right,right,,28644,14860,28644,,2,legacy,1040,1920,24,1080,24,0,0,1920,1650994505768,1024,2,48000,-16,experiment,p5sarrshacol2.png,0,even,Win32,177,126839,123825,177,177,240349,241866,235352,128357,235352,177,,,,,,visual_patterns,0,0,0,yes,1366
undefined,undefined,undefined,undefined,white,no,Mozilla,Netscape,"5.0 (Windows NT 10.0; Win64; x64) AppleWebKit/537.36 (KHTML, like Gecko) Chrome/100.0.4896.127 Safari/537.36",xpyriment,legacy,legacy,0,uniform,0,0,0,0,24,24,24,0,0,13,13,13,13,13,0,13,0,,,,,,0,,26-03-22,26-03-22,19:34:34,Tue Apr 26 2022 19:34:34 GMT+0200 (közép-európai nyári idő),The main experiment item,yes,0,0,C:/Users/rrics/Documents/!!ResearchBMECOGSCI/gnet,0,0,0,prototype4.png,no,mono,no,18,no,black,no,no,768,1235,3.5.6,legacy,xpyriment,osweb,1.3.13,IwAR3ubu1nz9YYoeZnUCkLOGd9tO1sNHtzrxf65DA8U9DYs5_Q-IF85hB4R9c,0,right,right,right,,28644,14860,28644,,2,legacy,1040,1920,24,1080,24,0,0,1920,1650994505768,1024,2,48000,-16,experiment,p8sarr1.png,0,even,Win32,177,126839,123825,177,177,246878,248380,241881,128357,241881,177,,,,,,visual_patterns,0,0,0,yes,1366
undefined,undefined,undefined,undefined,white,no,Mozilla,Netscape,"5.0 (Windows NT 10.0; Win64; x64) AppleWebKit/537.36 (KHTML, like Gecko) Chrome/100.0.4896.127 Safari/537.36",xpyriment,legacy,legacy,0,uniform,0,0,0,0,24,24,24,0,0,14,14,14,14,14,0,14,0,,,,,,0,,26-03-22,26-03-22,19:34:34,Tue Apr 26 2022 19:34:34 GMT+0200 (közép-európai nyári idő),The main experiment item,yes,0,0,C:/Users/rrics/Documents/!!ResearchBMECOGSCI/gnet,0,0,0,prototype4.png,no,mono,no,18,no,black,no,no,768,1235,3.5.6,legacy,xpyriment,osweb,1.3.13,IwAR3ubu1nz9YYoeZnUCkLOGd9tO1sNHtzrxf65DA8U9DYs5_Q-IF85hB4R9c,0,right,right,right,,28644,14860,28644,,2,legacy,1040,1920,24,1080,24,0,0,1920,1650994505768,1024,2,48000,-16,experiment,p3sarrcol1.png,0,even,Win32,177,126839,123825,177,177,253393,254895,248396,128357,248396,177,,,,,,visual_patterns,0,0,0,yes,1366
undefined,undefined,undefined,undefined,white,no,Mozilla,Netscape,"5.0 (Windows NT 10.0; Win64; x64) AppleWebKit/537.36 (KHTML, like Gecko) Chrome/100.0.4896.127 Safari/537.36",xpyriment,legacy,legacy,0,uniform,0,0,0,0,24,24,24,0,0,15,15,15,15,15,0,15,0,,,,,,0,,26-03-22,26-03-22,19:34:34,Tue Apr 26 2022 19:34:34 GMT+0200 (közép-európai nyári idő),The main experiment item,yes,0,0,C:/Users/rrics/Documents/!!ResearchBMECOGSCI/gnet,0,0,0,prototype4.png,no,mono,no,18,no,black,no,no,768,1235,3.5.6,legacy,xpyriment,osweb,1.3.13,IwAR3ubu1nz9YYoeZnUCkLOGd9tO1sNHtzrxf65DA8U9DYs5_Q-IF85hB4R9c,0,right,right,right,,28644,14860,28644,,2,legacy,1040,1920,24,1080,24,0,0,1920,1650994505768,1024,2,48000,-16,experiment,prototype1.png,0,even,Win32,177,126839,123825,177,177,259932,261443,254928,128357,254928,177,,,,,,visual_patterns,0,0,0,yes,1366
undefined,undefined,undefined,undefined,white,no,Mozilla,Netscape,"5.0 (Windows NT 10.0; Win64; x64) AppleWebKit/537.36 (KHTML, like Gecko) Chrome/100.0.4896.127 Safari/537.36",xpyriment,legacy,legacy,0,uniform,0,0,0,0,24,24,24,0,0,16,16,16,16,16,0,16,0,,,,,,0,,26-03-22,26-03-22,19:34:34,Tue Apr 26 2022 19:34:34 GMT+0200 (közép-európai nyári idő),The main experiment item,yes,0,0,C:/Users/rrics/Documents/!!ResearchBMECOGSCI/gnet,0,0,0,prototype4.png,no,mono,no,18,no,black,no,no,768,1235,3.5.6,legacy,xpyriment,osweb,1.3.13,IwAR3ubu1nz9YYoeZnUCkLOGd9tO1sNHtzrxf65DA8U9DYs5_Q-IF85hB4R9c,0,right,right,right,,28644,14860,28644,,2,legacy,1040,1920,24,1080,24,0,0,1920,1650994505768,1024,2,48000,-16,experiment,p2sarr2.png,0,even,Win32,177,126839,123825,177,177,266460,267974,261460,128357,261460,177,,,,,,visual_patterns,0,0,0,yes,1366
undefined,undefined,undefined,undefined,white,no,Mozilla,Netscape,"5.0 (Windows NT 10.0; Win64; x64) AppleWebKit/537.36 (KHTML, like Gecko) Chrome/100.0.4896.127 Safari/537.36",xpyriment,legacy,legacy,0,uniform,0,0,0,0,24,24,24,0,0,17,17,17,17,17,0,17,0,,,,,,0,,26-03-22,26-03-22,19:34:34,Tue Apr 26 2022 19:34:34 GMT+0200 (közép-európai nyári idő),The main experiment item,yes,0,0,C:/Users/rrics/Documents/!!ResearchBMECOGSCI/gnet,0,0,0,prototype4.png,no,mono,no,18,no,black,no,no,768,1235,3.5.6,legacy,xpyriment,osweb,1.3.13,IwAR3ubu1nz9YYoeZnUCkLOGd9tO1sNHtzrxf65DA8U9DYs5_Q-IF85hB4R9c,0,right,right,right,,28644,14860,28644,,2,legacy,1040,1920,24,1080,24,0,0,1920,1650994505768,1024,2,48000,-16,experiment,p3sarrsha2.png,0,even,Win32,177,126839,123825,177,177,272985,274488,267990,128357,267989,177,,,,,,visual_patterns,0,0,0,yes,1366
undefined,undefined,undefined,undefined,white,no,Mozilla,Netscape,"5.0 (Windows NT 10.0; Win64; x64) AppleWebKit/537.36 (KHTML, like Gecko) Chrome/100.0.4896.127 Safari/537.36",xpyriment,legacy,legacy,0,uniform,0,0,0,0,24,24,24,0,0,18,18,18,18,18,0,18,0,,,,,,0,,26-03-22,26-03-22,19:34:34,Tue Apr 26 2022 19:34:34 GMT+0200 (közép-európai nyári idő),The main experiment item,yes,0,0,C:/Users/rrics/Documents/!!ResearchBMECOGSCI/gnet,0,0,0,prototype4.png,no,mono,no,18,no,black,no,no,768,1235,3.5.6,legacy,xpyriment,osweb,1.3.13,IwAR3ubu1nz9YYoeZnUCkLOGd9tO1sNHtzrxf65DA8U9DYs5_Q-IF85hB4R9c,0,right,right,right,,28644,14860,28644,,2,legacy,1040,1920,24,1080,24,0,0,1920,1650994505768,1024,2,48000,-16,experiment,prototype4.png,0,even,Win32,177,126839,123825,177,177,279502,281003,274500,128357,274500,177,,,,,,visual_patterns,0,0,0,yes,1366
undefined,undefined,undefined,undefined,white,no,Mozilla,Netscape,"5.0 (Windows NT 10.0; Win64; x64) AppleWebKit/537.36 (KHTML, like Gecko) Chrome/100.0.4896.127 Safari/537.36",xpyriment,legacy,legacy,0,uniform,0,0,0,0,24,24,24,0,0,19,19,19,19,19,0,19,0,,,,,,0,,26-03-22,26-03-22,19:34:34,Tue Apr 26 2022 19:34:34 GMT+0200 (közép-európai nyári idő),The main experiment item,yes,0,0,C:/Users/rrics/Documents/!!ResearchBMECOGSCI/gnet,0,0,0,prototype4.png,no,mono,no,18,no,black,no,no,768,1235,3.5.6,legacy,xpyriment,osweb,1.3.13,IwAR3ubu1nz9YYoeZnUCkLOGd9tO1sNHtzrxf65DA8U9DYs5_Q-IF85hB4R9c,0,right,right,right,,28644,14860,28644,,2,legacy,1040,1920,24,1080,24,0,0,1920,1650994505768,1024,2,48000,-16,experiment,p3sarrsha1.png,0,even,Win32,177,126839,123825,177,177,286021,287534,281021,128357,281021,177,,,,,,visual_patterns,0,0,0,yes,1366
undefined,undefined,undefined,undefined,white,no,Mozilla,Netscape,"5.0 (Windows NT 10.0; Win64; x64) AppleWebKit/537.36 (KHTML, like Gecko) Chrome/100.0.4896.127 Safari/537.36",xpyriment,legacy,legacy,0,uniform,0,0,0,0,24,24,24,0,0,20,20,20,20,20,0,20,0,,,,,,0,,26-03-22,26-03-22,19:34:34,Tue Apr 26 2022 19:34:34 GMT+0200 (közép-európai nyári idő),The main experiment item,yes,0,0,C:/Users/rrics/Documents/!!ResearchBMECOGSCI/gnet,0,0,0,prototype4.png,no,mono,no,18,no,black,no,no,768,1235,3.5.6,legacy,xpyriment,osweb,1.3.13,IwAR3ubu1nz9YYoeZnUCkLOGd9tO1sNHtzrxf65DA8U9DYs5_Q-IF85hB4R9c,0,right,right,right,,28644,14860,28644,,2,legacy,1040,1920,24,1080,24,0,0,1920,1650994505768,1024,2,48000,-16,experiment,prototype2.png,0,even,Win32,177,126839,123825,177,177,292573,294082,287570,128357,287570,177,,,,,,visual_patterns,0,0,0,yes,1366
undefined,undefined,undefined,undefined,white,no,Mozilla,Netscape,"5.0 (Windows NT 10.0; Win64; x64) AppleWebKit/537.36 (KHTML, like Gecko) Chrome/100.0.4896.127 Safari/537.36",xpyriment,legacy,legacy,0,uniform,0,0,0,0,24,24,24,0,0,21,21,21,21,21,0,21,0,,,,,,0,,26-03-22,26-03-22,19:34:34,Tue Apr 26 2022 19:34:34 GMT+0200 (közép-európai nyári idő),The main experiment item,yes,0,0,C:/Users/rrics/Documents/!!ResearchBMECOGSCI/gnet,0,0,0,prototype4.png,no,mono,no,18,no,black,no,no,768,1235,3.5.6,legacy,xpyriment,osweb,1.3.13,IwAR3ubu1nz9YYoeZnUCkLOGd9tO1sNHtzrxf65DA8U9DYs5_Q-IF85hB4R9c,0,right,right,right,,28644,14860,28644,,2,legacy,1040,1920,24,1080,24,0,0,1920,1650994505768,1024,2,48000,-16,experiment,p4sarrcol2.png,0,even,Win32,177,126839,123825,177,177,299097,300613,294099,128357,294099,177,,,,,,visual_patterns,0,0,0,yes,1366
undefined,undefined,undefined,undefined,white,no,Mozilla,Netscape,"5.0 (Windows NT 10.0; Win64; x64) AppleWebKit/537.36 (KHTML, like Gecko) Chrome/100.0.4896.127 Safari/537.36",xpyriment,legacy,legacy,0,uniform,0,0,0,0,24,24,24,0,0,22,22,22,22,22,0,22,0,,,,,,0,,26-03-22,26-03-22,19:34:34,Tue Apr 26 2022 19:34:34 GMT+0200 (közép-európai nyári idő),The main experiment item,yes,0,0,C:/Users/rrics/Documents/!!ResearchBMECOGSCI/gnet,0,0,0,prototype4.png,no,mono,no,18,no,black,no,no,768,1235,3.5.6,legacy,xpyriment,osweb,1.3.13,IwAR3ubu1nz9YYoeZnUCkLOGd9tO1sNHtzrxf65DA8U9DYs5_Q-IF85hB4R9c,0,right,right,right,,28644,14860,28644,,2,legacy,1040,1920,24,1080,24,0,0,1920,1650994505768,1024,2,48000,-16,experiment,p5sarrshacol1.png,0,even,Win32,177,126839,123825,177,177,305623,307127,300628,128357,300628,177,,,,,,visual_patterns,0,0,0,yes,1366
undefined,undefined,undefined,undefined,white,no,Mozilla,Netscape,"5.0 (Windows NT 10.0; Win64; x64) AppleWebKit/537.36 (KHTML, like Gecko) Chrome/100.0.4896.127 Safari/537.36",xpyriment,legacy,legacy,0,uniform,0,0,0,0,24,24,24,0,0,23,23,23,23,23,0,23,0,,,,,,0,,26-03-22,26-03-22,19:34:34,Tue Apr 26 2022 19:34:34 GMT+0200 (közép-európai nyári idő),The main experiment item,yes,0,0,C:/Users/rrics/Documents/!!ResearchBMECOGSCI/gnet,0,0,0,prototype4.png,no,mono,no,18,no,black,no,no,768,1235,3.5.6,legacy,xpyriment,osweb,1.3.13,IwAR3ubu1nz9YYoeZnUCkLOGd9tO1sNHtzrxf65DA8U9DYs5_Q-IF85hB4R9c,0,right,right,right,,28644,14860,28644,,2,legacy,1040,1920,24,1080,24,0,0,1920,1650994505768,1024,2,48000,-16,experiment,prototype2.png,0,even,Win32,177,126839,123825,177,177,312140,313642,307140,128357,307139,177,,,,,,visual_patterns,0,0,0,yes,1366
undefined,undefined,undefined,undefined,white,no,Mozilla,Netscape,"5.0 (Windows NT 10.0; Win64; x64) AppleWebKit/537.36 (KHTML, like Gecko) Chrome/100.0.4896.127 Safari/537.36",xpyriment,legacy,legacy,0,uniform,0,0,0,0,24,24,24,0,0,24,24,24,24,24,0,24,0,,,,,,0,,26-03-22,26-03-22,19:34:34,Tue Apr 26 2022 19:34:34 GMT+0200 (közép-európai nyári idő),The main experiment item,yes,0,0,C:/Users/rrics/Documents/!!ResearchBMECOGSCI/gnet,0,0,0,prototype4.png,no,mono,no,18,no,black,no,no,768,1235,3.5.6,legacy,xpyriment,osweb,1.3.13,IwAR3ubu1nz9YYoeZnUCkLOGd9tO1sNHtzrxf65DA8U9DYs5_Q-IF85hB4R9c,0,right,right,right,,28644,14860,28644,,2,legacy,1040,1920,24,1080,24,0,0,1920,1650994505768,1024,2,48000,-16,experiment,p4sarrsha2.png,0,even,Win32,177,126839,123825,177,177,318657,320173,313657,128357,313657,177,,,,,,visual_patterns,0,0,0,yes,1366
undefined,undefined,undefined,undefined,white,no,Mozilla,Netscape,"5.0 (Windows NT 10.0; Win64; x64) AppleWebKit/537.36 (KHTML, like Gecko) Chrome/100.0.4896.127 Safari/537.36",xpyriment,legacy,legacy,0,uniform,0,0,0,0,24,24,24,0,0,25,25,25,25,25,0,25,0,,,,,,0,,26-03-22,26-03-22,19:34:34,Tue Apr 26 2022 19:34:34 GMT+0200 (közép-európai nyári idő),The main experiment item,yes,0,0,C:/Users/rrics/Documents/!!ResearchBMECOGSCI/gnet,0,0,0,prototype4.png,no,mono,no,18,no,black,no,no,768,1235,3.5.6,legacy,xpyriment,osweb,1.3.13,IwAR3ubu1nz9YYoeZnUCkLOGd9tO1sNHtzrxf65DA8U9DYs5_Q-IF85hB4R9c,0,right,right,right,,28644,14860,28644,,2,legacy,1040,1920,24,1080,24,0,0,1920,1650994505768,1024,2,48000,-16,experiment,p9sarr1.png,0,even,Win32,177,126839,123825,177,177,325202,326704,320200,128357,320199,177,,,,,,visual_patterns,0,0,0,yes,1366
undefined,undefined,undefined,undefined,white,no,Mozilla,Netscape,"5.0 (Windows NT 10.0; Win64; x64) AppleWebKit/537.36 (KHTML, like Gecko) Chrome/100.0.4896.127 Safari/537.36",xpyriment,legacy,legacy,0,uniform,0,0,0,0,24,24,24,0,0,26,26,26,26,26,0,26,0,,,,,,0,,26-03-22,26-03-22,19:34:34,Tue Apr 26 2022 19:34:34 GMT+0200 (közép-európai nyári idő),The main experiment item,yes,0,0,C:/Users/rrics/Documents/!!ResearchBMECOGSCI/gnet,0,0,0,prototype4.png,no,mono,no,18,no,black,no,no,768,1235,3.5.6,legacy,xpyriment,osweb,1.3.13,IwAR3ubu1nz9YYoeZnUCkLOGd9tO1sNHtzrxf65DA8U9DYs5_Q-IF85hB4R9c,0,right,right,right,,28644,14860,28644,,2,legacy,1040,1920,24,1080,24,0,0,1920,1650994505768,1024,2,48000,-16,experiment,prototype1.png,0,even,Win32,177,126839,123825,177,177,331716,333218,326715,128357,326715,177,,,,,,visual_patterns,0,0,0,yes,1366
undefined,undefined,undefined,undefined,white,no,Mozilla,Netscape,"5.0 (Windows NT 10.0; Win64; x64) AppleWebKit/537.36 (KHTML, like Gecko) Chrome/100.0.4896.127 Safari/537.36",xpyriment,legacy,legacy,0,uniform,0,0,0,0,24,24,24,0,0,27,27,27,27,27,0,27,0,,,,,,0,,26-03-22,26-03-22,19:34:34,Tue Apr 26 2022 19:34:34 GMT+0200 (közép-európai nyári idő),The main experiment item,yes,0,0,C:/Users/rrics/Documents/!!ResearchBMECOGSCI/gnet,0,0,0,prototype4.png,no,mono,no,18,no,black,no,no,768,1235,3.5.6,legacy,xpyriment,osweb,1.3.13,IwAR3ubu1nz9YYoeZnUCkLOGd9tO1sNHtzrxf65DA8U9DYs5_Q-IF85hB4R9c,0,right,right,right,,28644,14860,28644,,2,legacy,1040,1920,24,1080,24,0,0,1920,1650994505768,1024,2,48000,-16,experiment,p4sarrcol1.png,0,even,Win32,177,126839,123825,177,177,338230,339733,333234,128357,333234,177,,,,,,visual_patterns,0,0,0,yes,1366
undefined,undefined,undefined,undefined,white,no,Mozilla,Netscape,"5.0 (Windows NT 10.0; Win64; x64) AppleWebKit/537.36 (KHTML, like Gecko) Chrome/100.0.4896.127 Safari/537.36",xpyriment,legacy,legacy,0,uniform,0,0,0,0,24,24,24,0,0,28,28,28,28,28,0,28,0,,,,,,0,,26-03-22,26-03-22,19:34:34,Tue Apr 26 2022 19:34:34 GMT+0200 (közép-európai nyári idő),The main experiment item,yes,0,0,C:/Users/rrics/Documents/!!ResearchBMECOGSCI/gnet,0,0,0,prototype4.png,no,mono,no,18,no,black,no,no,768,1235,3.5.6,legacy,xpyriment,osweb,1.3.13,IwAR3ubu1nz9YYoeZnUCkLOGd9tO1sNHtzrxf65DA8U9DYs5_Q-IF85hB4R9c,0,right,right,right,,28644,14860,28644,,2,legacy,1040,1920,24,1080,24,0,0,1920,1650994505768,1024,2,48000,-16,experiment,prototype4.png,0,even,Win32,177,126839,123825,177,177,344746,346247,339745,128357,339745,177,,,,,,visual_patterns,0,0,0,yes,1366
undefined,undefined,undefined,undefined,white,no,Mozilla,Netscape,"5.0 (Windows NT 10.0; Win64; x64) AppleWebKit/537.36 (KHTML, like Gecko) Chrome/100.0.4896.127 Safari/537.36",xpyriment,legacy,legacy,0,uniform,0,0,0,0,24,24,24,0,0,29,29,29,29,29,0,29,0,,,,,,0,,26-03-22,26-03-22,19:34:34,Tue Apr 26 2022 19:34:34 GMT+0200 (közép-európai nyári idő),The main experiment item,yes,0,0,C:/Users/rrics/Documents/!!ResearchBMECOGSCI/gnet,0,0,0,prototype4.png,no,mono,no,18,no,black,no,no,768,1235,3.5.6,legacy,xpyriment,osweb,1.3.13,IwAR3ubu1nz9YYoeZnUCkLOGd9tO1sNHtzrxf65DA8U9DYs5_Q-IF85hB4R9c,0,right,right,right,,28644,14860,28644,,2,legacy,1040,1920,24,1080,24,0,0,1920,1650994505768,1024,2,48000,-16,experiment,prototype5.png,0,even,Win32,177,126839,123825,177,177,351263,352778,346260,128357,346260,177,,,,,,visual_patterns,0,0,0,yes,1366
undefined,undefined,undefined,undefined,white,no,Mozilla,Netscape,"5.0 (Windows NT 10.0; Win64; x64) AppleWebKit/537.36 (KHTML, like Gecko) Chrome/100.0.4896.127 Safari/537.36",xpyriment,legacy,legacy,0,uniform,0,0,0,0,24,24,24,0,0,30,30,30,30,30,0,30,0,,,,,,0,,26-03-22,26-03-22,19:34:34,Tue Apr 26 2022 19:34:34 GMT+0200 (közép-európai nyári idő),The main experiment item,yes,0,0,C:/Users/rrics/Documents/!!ResearchBMECOGSCI/gnet,0,0,0,prototype4.png,no,mono,no,18,no,black,no,no,768,1235,3.5.6,legacy,xpyriment,osweb,1.3.13,IwAR3ubu1nz9YYoeZnUCkLOGd9tO1sNHtzrxf65DA8U9DYs5_Q-IF85hB4R9c,0,right,right,right,,28644,14860,28644,,2,legacy,1040,1920,24,1080,24,0,0,1920,1650994505768,1024,2,48000,-16,experiment,p5sarrcol2.png,0,even,Win32,177,126839,123825,177,177,357794,359310,352796,128357,352796,177,,,,,,visual_patterns,0,0,0,yes,1366
undefined,undefined,undefined,undefined,white,no,Mozilla,Netscape,"5.0 (Windows NT 10.0; Win64; x64) AppleWebKit/537.36 (KHTML, like Gecko) Chrome/100.0.4896.127 Safari/537.36",xpyriment,legacy,legacy,0,uniform,0,0,0,0,24,24,24,0,0,31,31,31,31,31,0,31,0,,,,,,0,,26-03-22,26-03-22,19:34:34,Tue Apr 26 2022 19:34:34 GMT+0200 (közép-európai nyári idő),The main experiment item,yes,0,0,C:/Users/rrics/Documents/!!ResearchBMECOGSCI/gnet,0,0,0,prototype4.png,no,mono,no,18,no,black,no,no,768,1235,3.5.6,legacy,xpyriment,osweb,1.3.13,IwAR3ubu1nz9YYoeZnUCkLOGd9tO1sNHtzrxf65DA8U9DYs5_Q-IF85hB4R9c,0,right,right,right,,28644,14860,28644,,2,legacy,1040,1920,24,1080,24,0,0,1920,1650994505768,1024,2,48000,-16,experiment,p2sarrsha2.png,0,even,Win32,177,126839,123825,177,177,364321,365824,359326,128357,359326,177,,,,,,visual_patterns,0,0,0,yes,1366
undefined,undefined,undefined,undefined,white,no,Mozilla,Netscape,"5.0 (Windows NT 10.0; Win64; x64) AppleWebKit/537.36 (KHTML, like Gecko) Chrome/100.0.4896.127 Safari/537.36",xpyriment,legacy,legacy,0,uniform,0,0,0,0,24,24,24,0,0,32,32,32,32,32,0,32,0,,,,,,0,,26-03-22,26-03-22,19:34:34,Tue Apr 26 2022 19:34:34 GMT+0200 (közép-európai nyári idő),The main experiment item,yes,0,0,C:/Users/rrics/Documents/!!ResearchBMECOGSCI/gnet,0,0,0,prototype4.png,no,mono,no,18,no,black,no,no,768,1235,3.5.6,legacy,xpyriment,osweb,1.3.13,IwAR3ubu1nz9YYoeZnUCkLOGd9tO1sNHtzrxf65DA8U9DYs5_Q-IF85hB4R9c,0,right,right,right,,28644,14860,28644,,2,legacy,1040,1920,24,1080,24,0,0,1920,1650994505768,1024,2,48000,-16,experiment,p5sarr1.png,0,even,Win32,177,126839,123825,177,177,370839,372355,365839,128357,365839,177,,,,,,visual_patterns,0,0,0,yes,1366
undefined,undefined,undefined,undefined,white,no,Mozilla,Netscape,"5.0 (Windows NT 10.0; Win64; x64) AppleWebKit/537.36 (KHTML, like Gecko) Chrome/100.0.4896.127 Safari/537.36",xpyriment,legacy,legacy,0,uniform,0,0,0,0,24,24,24,0,0,33,33,33,33,33,0,33,0,,,,,,0,,26-03-22,26-03-22,19:34:34,Tue Apr 26 2022 19:34:34 GMT+0200 (közép-európai nyári idő),The main experiment item,yes,0,0,C:/Users/rrics/Documents/!!ResearchBMECOGSCI/gnet,0,0,0,prototype4.png,no,mono,no,18,no,black,no,no,768,1235,3.5.6,legacy,xpyriment,osweb,1.3.13,IwAR3ubu1nz9YYoeZnUCkLOGd9tO1sNHtzrxf65DA8U9DYs5_Q-IF85hB4R9c,0,right,right,right,,28644,14860,28644,,2,legacy,1040,1920,24,1080,24,0,0,1920,1650994505768,1024,2,48000,-16,experiment,p3sarrshacol1.png,0,even,Win32,177,126839,123825,177,177,377369,378870,372370,128357,372370,177,,,,,,visual_patterns,0,0,0,yes,1366
undefined,undefined,undefined,undefined,white,no,Mozilla,Netscape,"5.0 (Windows NT 10.0; Win64; x64) AppleWebKit/537.36 (KHTML, like Gecko) Chrome/100.0.4896.127 Safari/537.36",xpyriment,legacy,legacy,0,uniform,0,0,0,0,24,24,24,0,0,34,34,34,34,34,0,34,0,,,,,,0,,26-03-22,26-03-22,19:34:34,Tue Apr 26 2022 19:34:34 GMT+0200 (közép-európai nyári idő),The main experiment item,yes,0,0,C:/Users/rrics/Documents/!!ResearchBMECOGSCI/gnet,0,0,0,prototype4.png,no,mono,no,18,no,black,no,no,768,1235,3.5.6,legacy,xpyriment,osweb,1.3.13,IwAR3ubu1nz9YYoeZnUCkLOGd9tO1sNHtzrxf65DA8U9DYs5_Q-IF85hB4R9c,0,right,right,right,,28644,14860,28644,,2,legacy,1040,1920,24,1080,24,0,0,1920,1650994505768,1024,2,48000,-16,experiment,prototype1.png,0,even,Win32,177,126839,123825,177,177,383882,385384,378883,128357,378883,177,,,,,,visual_patterns,0,0,0,yes,1366
undefined,undefined,undefined,undefined,white,no,Mozilla,Netscape,"5.0 (Windows NT 10.0; Win64; x64) AppleWebKit/537.36 (KHTML, like Gecko) Chrome/100.0.4896.127 Safari/537.36",xpyriment,legacy,legacy,0,uniform,0,0,0,0,24,24,24,0,0,35,35,35,35,35,0,35,0,,,,,,0,,26-03-22,26-03-22,19:34:34,Tue Apr 26 2022 19:34:34 GMT+0200 (közép-európai nyári idő),The main experiment item,yes,0,0,C:/Users/rrics/Documents/!!ResearchBMECOGSCI/gnet,0,0,0,prototype4.png,no,mono,no,18,no,black,no,no,768,1235,3.5.6,legacy,xpyriment,osweb,1.3.13,IwAR3ubu1nz9YYoeZnUCkLOGd9tO1sNHtzrxf65DA8U9DYs5_Q-IF85hB4R9c,0,right,right,right,,28644,14860,28644,,2,legacy,1040,1920,24,1080,24,0,0,1920,1650994505768,1024,2,48000,-16,experiment,p4sarrshacol1.png,0,even,Win32,177,126839,123825,177,177,390415,391932,385416,128357,385416,177,,,,,,visual_patterns,0,0,0,yes,1366
undefined,undefined,undefined,undefined,white,no,Mozilla,Netscape,"5.0 (Windows NT 10.0; Win64; x64) AppleWebKit/537.36 (KHTML, like Gecko) Chrome/100.0.4896.127 Safari/537.36",xpyriment,legacy,legacy,0,uniform,0,0,0,0,24,24,24,0,0,36,36,36,36,36,0,36,0,,,,,,0,,26-03-22,26-03-22,19:34:34,Tue Apr 26 2022 19:34:34 GMT+0200 (közép-európai nyári idő),The main experiment item,yes,0,0,C:/Users/rrics/Documents/!!ResearchBMECOGSCI/gnet,0,0,0,prototype4.png,no,mono,no,18,no,black,no,no,768,1235,3.5.6,legacy,xpyriment,osweb,1.3.13,IwAR3ubu1nz9YYoeZnUCkLOGd9tO1sNHtzrxf65DA8U9DYs5_Q-IF85hB4R9c,0,right,right,right,,28644,14860,28644,,2,legacy,1040,1920,24,1080,24,0,0,1920,1650994505768,1024,2,48000,-16,experiment,prototype3.png,0,even,Win32,177,126839,123825,177,177,396947,398463,391944,128357,391944,177,,,,,,visual_patterns,0,0,0,yes,1366
undefined,undefined,undefined,undefined,white,no,Mozilla,Netscape,"5.0 (Windows NT 10.0; Win64; x64) AppleWebKit/537.36 (KHTML, like Gecko) Chrome/100.0.4896.127 Safari/537.36",xpyriment,legacy,legacy,0,uniform,0,0,0,0,24,24,24,0,0,37,37,37,37,37,0,37,0,,,,,,0,,26-03-22,26-03-22,19:34:34,Tue Apr 26 2022 19:34:34 GMT+0200 (közép-európai nyári idő),The main experiment item,yes,0,0,C:/Users/rrics/Documents/!!ResearchBMECOGSCI/gnet,0,0,0,prototype4.png,no,mono,no,18,no,black,no,no,768,1235,3.5.6,legacy,xpyriment,osweb,1.3.13,IwAR3ubu1nz9YYoeZnUCkLOGd9tO1sNHtzrxf65DA8U9DYs5_Q-IF85hB4R9c,0,right,right,right,,28644,14860,28644,,2,legacy,1040,1920,24,1080,24,0,0,1920,1650994505768,1024,2,48000,-16,experiment,prototype3.png,0,even,Win32,177,126839,123825,177,177,403478,404994,398476,128357,398476,177,,,,,,visual_patterns,0,0,0,yes,1366
undefined,undefined,undefined,undefined,white,no,Mozilla,Netscape,"5.0 (Windows NT 10.0; Win64; x64) AppleWebKit/537.36 (KHTML, like Gecko) Chrome/100.0.4896.127 Safari/537.36",xpyriment,legacy,legacy,0,uniform,0,0,0,0,24,24,24,0,0,38,38,38,38,38,0,38,0,,,,,,0,,26-03-22,26-03-22,19:34:34,Tue Apr 26 2022 19:34:34 GMT+0200 (közép-európai nyári idő),The main experiment item,yes,0,0,C:/Users/rrics/Documents/!!ResearchBMECOGSCI/gnet,0,0,0,prototype4.png,no,mono,no,18,no,black,no,no,768,1235,3.5.6,legacy,xpyriment,osweb,1.3.13,IwAR3ubu1nz9YYoeZnUCkLOGd9tO1sNHtzrxf65DA8U9DYs5_Q-IF85hB4R9c,0,right,right,right,,28644,14860,28644,,2,legacy,1040,1920,24,1080,24,0,0,1920,1650994505768,1024,2,48000,-16,experiment,p7sarr1.png,0,even,Win32,177,126839,123825,177,177,410011,411525,405011,128357,405011,177,,,,,,visual_patterns,0,0,0,yes,1366
undefined,undefined,undefined,undefined,white,no,Mozilla,Netscape,"5.0 (Windows NT 10.0; Win64; x64) AppleWebKit/537.36 (KHTML, like Gecko) Chrome/100.0.4896.127 Safari/537.36",xpyriment,legacy,legacy,0,uniform,0,0,0,0,24,24,24,0,0,39,39,39,39,39,0,39,0,,,,,,0,,26-03-22,26-03-22,19:34:34,Tue Apr 26 2022 19:34:34 GMT+0200 (közép-európai nyári idő),The main experiment item,yes,0,0,C:/Users/rrics/Documents/!!ResearchBMECOGSCI/gnet,0,0,0,prototype4.png,no,mono,no,18,no,black,no,no,768,1235,3.5.6,legacy,xpyriment,osweb,1.3.13,IwAR3ubu1nz9YYoeZnUCkLOGd9tO1sNHtzrxf65DA8U9DYs5_Q-IF85hB4R9c,0,right,right,right,,28644,14860,28644,,2,legacy,1040,1920,24,1080,24,0,0,1920,1650994505768,1024,2,48000,-16,experiment,p1sarrsha1.png,0,even,Win32,177,126839,123825,177,177,416541,418057,411543,128357,411543,177,,,,,,visual_patterns,0,0,0,yes,1366
undefined,undefined,undefined,undefined,white,no,Mozilla,Netscape,"5.0 (Windows NT 10.0; Win64; x64) AppleWebKit/537.36 (KHTML, like Gecko) Chrome/100.0.4896.127 Safari/537.36",xpyriment,legacy,legacy,0,uniform,0,0,0,0,24,24,24,0,0,40,40,40,40,40,0,40,0,,,,,,0,,26-03-22,26-03-22,19:34:34,Tue Apr 26 2022 19:34:34 GMT+0200 (közép-európai nyári idő),The main experiment item,yes,0,0,C:/Users/rrics/Documents/!!ResearchBMECOGSCI/gnet,0,0,0,prototype4.png,no,mono,no,18,no,black,no,no,768,1235,3.5.6,legacy,xpyriment,osweb,1.3.13,IwAR3ubu1nz9YYoeZnUCkLOGd9tO1sNHtzrxf65DA8U9DYs5_Q-IF85hB4R9c,0,right,right,right,,28644,14860,28644,,2,legacy,1040,1920,24,1080,24,0,0,1920,1650994505768,1024,2,48000,-16,experiment,prototype5.png,0,even,Win32,177,126839,123825,177,177,423097,424604,418095,128357,418095,177,,,,,,visual_patterns,0,0,0,yes,1366
undefined,undefined,undefined,undefined,white,no,Mozilla,Netscape,"5.0 (Windows NT 10.0; Win64; x64) AppleWebKit/537.36 (KHTML, like Gecko) Chrome/100.0.4896.127 Safari/537.36",xpyriment,legacy,legacy,0,uniform,0,0,0,0,24,24,24,0,0,41,41,41,41,41,0,41,0,,,,,,0,,26-03-22,26-03-22,19:34:34,Tue Apr 26 2022 19:34:34 GMT+0200 (közép-európai nyári idő),The main experiment item,yes,0,0,C:/Users/rrics/Documents/!!ResearchBMECOGSCI/gnet,0,0,0,prototype4.png,no,mono,no,18,no,black,no,no,768,1235,3.5.6,legacy,xpyriment,osweb,1.3.13,IwAR3ubu1nz9YYoeZnUCkLOGd9tO1sNHtzrxf65DA8U9DYs5_Q-IF85hB4R9c,0,right,right,right,,28644,14860,28644,,2,legacy,1040,1920,24,1080,24,0,0,1920,1650994505768,1024,2,48000,-16,experiment,p3sarrshacol2.png,0,even,Win32,177,126839,123825,177,177,429620,431135,424623,128357,424623,177,,,,,,visual_patterns,0,0,0,yes,1366
undefined,undefined,undefined,undefined,white,no,Mozilla,Netscape,"5.0 (Windows NT 10.0; Win64; x64) AppleWebKit/537.36 (KHTML, like Gecko) Chrome/100.0.4896.127 Safari/537.36",xpyriment,legacy,legacy,0,uniform,0,0,0,0,24,24,24,0,0,42,42,42,42,42,0,42,0,,,,,,0,,26-03-22,26-03-22,19:34:34,Tue Apr 26 2022 19:34:34 GMT+0200 (közép-európai nyári idő),The main experiment item,yes,0,0,C:/Users/rrics/Documents/!!ResearchBMECOGSCI/gnet,0,0,0,prototype4.png,no,mono,no,18,no,black,no,no,768,1235,3.5.6,legacy,xpyriment,osweb,1.3.13,IwAR3ubu1nz9YYoeZnUCkLOGd9tO1sNHtzrxf65DA8U9DYs5_Q-IF85hB4R9c,0,right,right,right,,28644,14860,28644,,2,legacy,1040,1920,24,1080,24,0,0,1920,1650994505768,1024,2,48000,-16,experiment,p3sarrcol2.png,0,even,Win32,177,126839,123825,177,177,436146,437650,431149,128357,431149,177,,,,,,visual_patterns,0,0,0,yes,1366
undefined,undefined,undefined,undefined,white,no,Mozilla,Netscape,"5.0 (Windows NT 10.0; Win64; x64) AppleWebKit/537.36 (KHTML, like Gecko) Chrome/100.0.4896.127 Safari/537.36",xpyriment,legacy,legacy,0,uniform,0,0,0,0,24,24,24,0,0,43,43,43,43,43,0,43,0,,,,,,0,,26-03-22,26-03-22,19:34:34,Tue Apr 26 2022 19:34:34 GMT+0200 (közép-európai nyári idő),The main experiment item,yes,0,0,C:/Users/rrics/Documents/!!ResearchBMECOGSCI/gnet,0,0,0,prototype4.png,no,mono,no,18,no,black,no,no,768,1235,3.5.6,legacy,xpyriment,osweb,1.3.13,IwAR3ubu1nz9YYoeZnUCkLOGd9tO1sNHtzrxf65DA8U9DYs5_Q-IF85hB4R9c,0,right,right,right,,28644,14860,28644,,2,legacy,1040,1920,24,1080,24,0,0,1920,1650994505768,1024,2,48000,-16,experiment,p3sarr2.png,0,even,Win32,177,126839,123825,177,177,442665,444181,437669,128357,437669,177,,,,,,visual_patterns,0,0,0,yes,1366
undefined,undefined,undefined,undefined,white,no,Mozilla,Netscape,"5.0 (Windows NT 10.0; Win64; x64) AppleWebKit/537.36 (KHTML, like Gecko) Chrome/100.0.4896.127 Safari/537.36",xpyriment,legacy,legacy,0,uniform,0,0,0,0,24,24,24,0,0,44,44,44,44,44,0,44,0,,,,,,0,,26-03-22,26-03-22,19:34:34,Tue Apr 26 2022 19:34:34 GMT+0200 (közép-európai nyári idő),The main experiment item,yes,0,0,C:/Users/rrics/Documents/!!ResearchBMECOGSCI/gnet,0,0,0,prototype4.png,no,mono,no,18,no,black,no,no,768,1235,3.5.6,legacy,xpyriment,osweb,1.3.13,IwAR3ubu1nz9YYoeZnUCkLOGd9tO1sNHtzrxf65DA8U9DYs5_Q-IF85hB4R9c,0,right,right,right,,28644,14860,28644,,2,legacy,1040,1920,24,1080,24,0,0,1920,1650994505768,1024,2,48000,-16,experiment,p2sarrsha1.png,0,even,Win32,177,126839,123825,177,177,449198,450712,444202,128357,444202,177,,,,,,visual_patterns,0,0,0,yes,1366
undefined,undefined,undefined,undefined,white,no,Mozilla,Netscape,"5.0 (Windows NT 10.0; Win64; x64) AppleWebKit/537.36 (KHTML, like Gecko) Chrome/100.0.4896.127 Safari/537.36",xpyriment,legacy,legacy,0,uniform,0,0,0,0,24,24,24,0,0,45,45,45,45,45,0,45,0,,,,,,0,,26-03-22,26-03-22,19:34:34,Tue Apr 26 2022 19:34:34 GMT+0200 (közép-európai nyári idő),The main experiment item,yes,0,0,C:/Users/rrics/Documents/!!ResearchBMECOGSCI/gnet,0,0,0,prototype4.png,no,mono,no,18,no,black,no,no,768,1235,3.5.6,legacy,xpyriment,osweb,1.3.13,IwAR3ubu1nz9YYoeZnUCkLOGd9tO1sNHtzrxf65DA8U9DYs5_Q-IF85hB4R9c,0,right,right,right,,28644,14860,28644,,2,legacy,1040,1920,24,1080,24,0,0,1920,1650994505768,1024,2,48000,-16,experiment,p4sarrsha1.png,0,even,Win32,177,126839,123825,177,177,455743,457260,450744,128357,450744,177,,,,,,visual_patterns,0,0,0,yes,1366
undefined,undefined,undefined,undefined,white,no,Mozilla,Netscape,"5.0 (Windows NT 10.0; Win64; x64) AppleWebKit/537.36 (KHTML, like Gecko) Chrome/100.0.4896.127 Safari/537.36",xpyriment,legacy,legacy,0,uniform,0,0,0,0,24,24,24,0,0,46,46,46,46,46,0,46,0,,,,,,0,,26-03-22,26-03-22,19:34:34,Tue Apr 26 2022 19:34:34 GMT+0200 (közép-európai nyári idő),The main experiment item,yes,0,0,C:/Users/rrics/Documents/!!ResearchBMECOGSCI/gnet,0,0,0,prototype4.png,no,mono,no,18,no,black,no,no,768,1235,3.5.6,legacy,xpyriment,osweb,1.3.13,IwAR3ubu1nz9YYoeZnUCkLOGd9tO1sNHtzrxf65DA8U9DYs5_Q-IF85hB4R9c,0,right,right,right,,28644,14860,28644,,2,legacy,1040,1920,24,1080,24,0,0,1920,1650994505768,1024,2,48000,-16,experiment,p1sarrcol1.png,0,even,Win32,177,126839,123825,177,177,462275,463791,457275,128357,457275,177,,,,,,visual_patterns,0,0,0,yes,1366
undefined,undefined,undefined,undefined,white,no,Mozilla,Netscape,"5.0 (Windows NT 10.0; Win64; x64) AppleWebKit/537.36 (KHTML, like Gecko) Chrome/100.0.4896.127 Safari/537.36",xpyriment,legacy,legacy,0,uniform,0,0,0,0,24,24,24,0,0,47,47,47,47,47,0,47,0,,,,,,0,,26-03-22,26-03-22,19:34:34,Tue Apr 26 2022 19:34:34 GMT+0200 (közép-európai nyári idő),The main experiment item,yes,0,0,C:/Users/rrics/Documents/!!ResearchBMECOGSCI/gnet,0,0,0,prototype4.png,no,mono,no,18,no,black,no,no,768,1235,3.5.6,legacy,xpyriment,osweb,1.3.13,IwAR3ubu1nz9YYoeZnUCkLOGd9tO1sNHtzrxf65DA8U9DYs5_Q-IF85hB4R9c,0,right,right,right,,28644,14860,28644,,2,legacy,1040,1920,24,1080,24,0,0,1920,1650994505768,1024,2,48000,-16,experiment,p1sarrsha2.png,0,even,Win32,177,126839,123825,177,177,468805,470322,463808,128357,463807,177,,,,,,visual_patterns,0,0,0,yes,1366
undefined,undefined,undefined,undefined,white,no,Mozilla,Netscape,"5.0 (Windows NT 10.0; Win64; x64) AppleWebKit/537.36 (KHTML, like Gecko) Chrome/100.0.4896.127 Safari/537.36",xpyriment,legacy,legacy,0,uniform,0,0,0,0,24,24,24,0,0,48,48,48,48,48,0,48,0,,,,,,0,,26-03-22,26-03-22,19:34:34,Tue Apr 26 2022 19:34:34 GMT+0200 (közép-európai nyári idő),The main experiment item,yes,0,0,C:/Users/rrics/Documents/!!ResearchBMECOGSCI/gnet,0,0,0,prototype4.png,no,mono,no,18,no,black,no,no,768,1235,3.5.6,legacy,xpyriment,osweb,1.3.13,IwAR3ubu1nz9YYoeZnUCkLOGd9tO1sNHtzrxf65DA8U9DYs5_Q-IF85hB4R9c,0,right,right,right,,28644,14860,28644,,2,legacy,1040,1920,24,1080,24,0,0,1920,1650994505768,1024,2,48000,-16,experiment,p7sarr2.png,0,even,Win32,177,126839,123825,177,177,475335,476836,470338,128357,470338,177,,,,,,visual_patterns,0,0,0,yes,1366
undefined,undefined,undefined,undefined,white,no,Mozilla,Netscape,"5.0 (Windows NT 10.0; Win64; x64) AppleWebKit/537.36 (KHTML, like Gecko) Chrome/100.0.4896.127 Safari/537.36",xpyriment,legacy,legacy,0,uniform,0,0,0,0,24,24,24,0,0,49,49,49,49,49,0,49,0,,,,,,0,,26-03-22,26-03-22,19:34:34,Tue Apr 26 2022 19:34:34 GMT+0200 (közép-európai nyári idő),The main experiment item,yes,0,0,C:/Users/rrics/Documents/!!ResearchBMECOGSCI/gnet,0,0,0,prototype4.png,no,mono,no,18,no,black,no,no,768,1235,3.5.6,legacy,xpyriment,osweb,1.3.13,IwAR3ubu1nz9YYoeZnUCkLOGd9tO1sNHtzrxf65DA8U9DYs5_Q-IF85hB4R9c,0,right,right,right,,28644,14860,28644,,2,legacy,1040,1920,24,1080,24,0,0,1920,1650994505768,1024,2,48000,-16,experiment,p4sarr1.png,0,even,Win32,177,126839,123825,177,177,481848,483351,476851,128357,476851,177,,,,,,visual_patterns,0,0,0,yes,1366
undefined,undefined,undefined,undefined,white,no,Mozilla,Netscape,"5.0 (Windows NT 10.0; Win64; x64) AppleWebKit/537.36 (KHTML, like Gecko) Chrome/100.0.4896.127 Safari/537.36",xpyriment,legacy,legacy,0,uniform,0,0,0,0,24,24,24,0,0,50,50,50,50,50,0,50,0,,,,,,0,,26-03-22,26-03-22,19:34:34,Tue Apr 26 2022 19:34:34 GMT+0200 (közép-európai nyári idő),The main experiment item,yes,0,0,C:/Users/rrics/Documents/!!ResearchBMECOGSCI/gnet,0,0,0,prototype4.png,no,mono,no,18,no,black,no,no,768,1235,3.5.6,legacy,xpyriment,osweb,1.3.13,IwAR3ubu1nz9YYoeZnUCkLOGd9tO1sNHtzrxf65DA8U9DYs5_Q-IF85hB4R9c,0,right,right,right,,28644,14860,28644,,2,legacy,1040,1920,24,1080,24,0,0,1920,1650994505768,1024,2,48000,-16,experiment,p10sarr1.png,0,even,Win32,177,126839,123825,177,177,488370,489882,483368,128357,483368,177,,,,,,visual_patterns,0,0,0,yes,1366
undefined,undefined,undefined,undefined,white,no,Mozilla,Netscape,"5.0 (Windows NT 10.0; Win64; x64) AppleWebKit/537.36 (KHTML, like Gecko) Chrome/100.0.4896.127 Safari/537.36",xpyriment,legacy,legacy,0,uniform,0,0,0,0,24,24,24,0,0,51,51,51,51,51,0,51,0,,,,,,0,,26-03-22,26-03-22,19:34:34,Tue Apr 26 2022 19:34:34 GMT+0200 (közép-európai nyári idő),The main experiment item,yes,0,0,C:/Users/rrics/Documents/!!ResearchBMECOGSCI/gnet,0,0,0,prototype4.png,no,mono,no,18,no,black,no,no,768,1235,3.5.6,legacy,xpyriment,osweb,1.3.13,IwAR3ubu1nz9YYoeZnUCkLOGd9tO1sNHtzrxf65DA8U9DYs5_Q-IF85hB4R9c,0,right,right,right,,28644,14860,28644,,2,legacy,1040,1920,24,1080,24,0,0,1920,1650994505768,1024,2,48000,-16,experiment,prototype3.png,0,even,Win32,177,126839,123825,177,177,494893,496397,489894,128357,489894,177,,,,,,visual_patterns,0,0,0,yes,1366
undefined,undefined,undefined,undefined,white,no,Mozilla,Netscape,"5.0 (Windows NT 10.0; Win64; x64) AppleWebKit/537.36 (KHTML, like Gecko) Chrome/100.0.4896.127 Safari/537.36",xpyriment,legacy,legacy,0,uniform,0,0,0,0,24,24,24,0,0,52,52,52,52,52,0,52,0,,,,,,0,,26-03-22,26-03-22,19:34:34,Tue Apr 26 2022 19:34:34 GMT+0200 (közép-európai nyári idő),The main experiment item,yes,0,0,C:/Users/rrics/Documents/!!ResearchBMECOGSCI/gnet,0,0,0,prototype4.png,no,mono,no,18,no,black,no,no,768,1235,3.5.6,legacy,xpyriment,osweb,1.3.13,IwAR3ubu1nz9YYoeZnUCkLOGd9tO1sNHtzrxf65DA8U9DYs5_Q-IF85hB4R9c,0,right,right,right,,28644,14860,28644,,2,legacy,1040,1920,24,1080,24,0,0,1920,1650994505768,1024,2,48000,-16,experiment,p1sarr1.png,0,even,Win32,177,126839,123825,177,177,501412,502928,496415,128357,496415,177,,,,,,visual_patterns,0,0,0,yes,1366
undefined,undefined,undefined,undefined,white,no,Mozilla,Netscape,"5.0 (Windows NT 10.0; Win64; x64) AppleWebKit/537.36 (KHTML, like Gecko) Chrome/100.0.4896.127 Safari/537.36",xpyriment,legacy,legacy,0,uniform,0,0,0,0,24,24,24,0,0,53,53,53,53,53,0,53,0,,,,,,0,,26-03-22,26-03-22,19:34:34,Tue Apr 26 2022 19:34:34 GMT+0200 (közép-európai nyári idő),The main experiment item,yes,0,0,C:/Users/rrics/Documents/!!ResearchBMECOGSCI/gnet,0,0,0,prototype4.png,no,mono,no,18,no,black,no,no,768,1235,3.5.6,legacy,xpyriment,osweb,1.3.13,IwAR3ubu1nz9YYoeZnUCkLOGd9tO1sNHtzrxf65DA8U9DYs5_Q-IF85hB4R9c,0,right,right,right,,28644,14860,28644,,2,legacy,1040,1920,24,1080,24,0,0,1920,1650994505768,1024,2,48000,-16,experiment,p1sarrcol2.png,0,even,Win32,177,126839,123825,177,177,507938,509442,502941,128357,502941,177,,,,,,visual_patterns,0,0,0,yes,1366
undefined,undefined,undefined,undefined,white,no,Mozilla,Netscape,"5.0 (Windows NT 10.0; Win64; x64) AppleWebKit/537.36 (KHTML, like Gecko) Chrome/100.0.4896.127 Safari/537.36",xpyriment,legacy,legacy,0,uniform,0,0,0,0,24,24,24,0,0,54,54,54,54,54,0,54,0,,,,,,0,,26-03-22,26-03-22,19:34:34,Tue Apr 26 2022 19:34:34 GMT+0200 (közép-európai nyári idő),The main experiment item,yes,0,0,C:/Users/rrics/Documents/!!ResearchBMECOGSCI/gnet,0,0,0,prototype4.png,no,mono,no,18,no,black,no,no,768,1235,3.5.6,legacy,xpyriment,osweb,1.3.13,IwAR3ubu1nz9YYoeZnUCkLOGd9tO1sNHtzrxf65DA8U9DYs5_Q-IF85hB4R9c,0,right,right,right,,28644,14860,28644,,2,legacy,1040,1920,24,1080,24,0,0,1920,1650994505768,1024,2,48000,-16,experiment,p2sarrcol2.png,0,even,Win32,177,126839,123825,177,177,514457,515973,509459,128357,509459,177,,,,,,visual_patterns,0,0,0,yes,1366
undefined,undefined,undefined,undefined,white,no,Mozilla,Netscape,"5.0 (Windows NT 10.0; Win64; x64) AppleWebKit/537.36 (KHTML, like Gecko) Chrome/100.0.4896.127 Safari/537.36",xpyriment,legacy,legacy,0,uniform,0,0,0,0,24,24,24,0,0,55,55,55,55,55,0,55,0,,,,,,0,,26-03-22,26-03-22,19:34:34,Tue Apr 26 2022 19:34:34 GMT+0200 (közép-európai nyári idő),The main experiment item,yes,0,0,C:/Users/rrics/Documents/!!ResearchBMECOGSCI/gnet,0,0,0,prototype4.png,no,mono,no,18,no,black,no,no,768,1235,3.5.6,legacy,xpyriment,osweb,1.3.13,IwAR3ubu1nz9YYoeZnUCkLOGd9tO1sNHtzrxf65DA8U9DYs5_Q-IF85hB4R9c,0,right,right,right,,28644,14860,28644,,2,legacy,1040,1920,24,1080,24,0,0,1920,1650994505768,1024,2,48000,-16,experiment,prototype4.png,0,even,Win32,177,126839,123825,177,177,521020,522521,516015,128357,516015,177,,,,,,visual_patterns,0,0,0,yes,1366
undefined,undefined,undefined,undefined,white,no,Mozilla,Netscape,"5.0 (Windows NT 10.0; Win64; x64) AppleWebKit/537.36 (KHTML, like Gecko) Chrome/100.0.4896.127 Safari/537.36",xpyriment,legacy,legacy,0,uniform,0,0,0,0,24,24,24,0,0,56,56,56,56,56,0,56,0,,,,,,0,,26-03-22,26-03-22,19:34:34,Tue Apr 26 2022 19:34:34 GMT+0200 (közép-európai nyári idő),The main experiment item,yes,0,0,C:/Users/rrics/Documents/!!ResearchBMECOGSCI/gnet,0,0,0,prototype4.png,no,mono,no,18,no,black,no,no,768,1235,3.5.6,legacy,xpyriment,osweb,1.3.13,IwAR3ubu1nz9YYoeZnUCkLOGd9tO1sNHtzrxf65DA8U9DYs5_Q-IF85hB4R9c,0,right,right,right,,28644,14860,28644,,2,legacy,1040,1920,24,1080,24,0,0,1920,1650994505768,1024,2,48000,-16,experiment,p2sarrshacol1.png,0,even,Win32,177,126839,123825,177,177,527536,529052,522536,128357,522535,177,,,,,,visual_patterns,0,0,0,yes,1366
undefined,undefined,undefined,undefined,white,no,Mozilla,Netscape,"5.0 (Windows NT 10.0; Win64; x64) AppleWebKit/537.36 (KHTML, like Gecko) Chrome/100.0.4896.127 Safari/537.36",xpyriment,legacy,legacy,0,uniform,0,0,0,0,24,24,24,0,0,57,57,57,57,57,0,57,0,,,,,,0,,26-03-22,26-03-22,19:34:34,Tue Apr 26 2022 19:34:34 GMT+0200 (közép-európai nyári idő),The main experiment item,yes,0,0,C:/Users/rrics/Documents/!!ResearchBMECOGSCI/gnet,0,0,0,prototype4.png,no,mono,no,18,no,black,no,no,768,1235,3.5.6,legacy,xpyriment,osweb,1.3.13,IwAR3ubu1nz9YYoeZnUCkLOGd9tO1sNHtzrxf65DA8U9DYs5_Q-IF85hB4R9c,0,right,right,right,,28644,14860,28644,,2,legacy,1040,1920,24,1080,24,0,0,1920,1650994505768,1024,2,48000,-16,experiment,prototype5.png,0,even,Win32,177,126839,123825,177,177,534064,535567,529064,128357,529064,177,,,,,,visual_patterns,0,0,0,yes,1366
undefined,undefined,undefined,undefined,white,no,Mozilla,Netscape,"5.0 (Windows NT 10.0; Win64; x64) AppleWebKit/537.36 (KHTML, like Gecko) Chrome/100.0.4896.127 Safari/537.36",xpyriment,legacy,legacy,0,uniform,0,0,0,0,24,24,24,0,0,58,58,58,58,58,0,58,0,,,,,,0,,26-03-22,26-03-22,19:34:34,Tue Apr 26 2022 19:34:34 GMT+0200 (közép-európai nyári idő),The main experiment item,yes,0,0,C:/Users/rrics/Documents/!!ResearchBMECOGSCI/gnet,0,0,0,prototype4.png,no,mono,no,18,no,black,no,no,768,1235,3.5.6,legacy,xpyriment,osweb,1.3.13,IwAR3ubu1nz9YYoeZnUCkLOGd9tO1sNHtzrxf65DA8U9DYs5_Q-IF85hB4R9c,0,right,right,right,,28644,14860,28644,,2,legacy,1040,1920,24,1080,24,0,0,1920,1650994505768,1024,2,48000,-16,experiment,prototype2.png,0,even,Win32,177,126839,123825,177,177,540580,542081,535579,128357,535579,177,,,,,,visual_patterns,0,0,0,yes,1366
undefined,undefined,undefined,undefined,white,no,Mozilla,Netscape,"5.0 (Windows NT 10.0; Win64; x64) AppleWebKit/537.36 (KHTML, like Gecko) Chrome/100.0.4896.127 Safari/537.36",xpyriment,legacy,legacy,0,uniform,0,0,0,0,24,24,24,0,0,59,59,59,59,59,0,59,0,,,,,,0,,26-03-22,26-03-22,19:34:34,Tue Apr 26 2022 19:34:34 GMT+0200 (közép-európai nyári idő),The main experiment item,yes,0,0,C:/Users/rrics/Documents/!!ResearchBMECOGSCI/gnet,0,0,0,prototype4.png,no,mono,no,18,no,black,no,no,768,1235,3.5.6,legacy,xpyriment,osweb,1.3.13,IwAR3ubu1nz9YYoeZnUCkLOGd9tO1sNHtzrxf65DA8U9DYs5_Q-IF85hB4R9c,0,right,right,right,,28644,14860,28644,,2,legacy,1040,1920,24,1080,24,0,0,1920,1650994505768,1024,2,48000,-16,experiment,prototype5.png,0,even,Win32,177,126839,123825,177,177,547091,548596,542092,128357,542092,177,,,,,,visual_patterns,0,0,0,yes,1366
undefined,undefined,undefined,undefined,white,no,Mozilla,Netscape,"5.0 (Windows NT 10.0; Win64; x64) AppleWebKit/537.36 (KHTML, like Gecko) Chrome/100.0.4896.127 Safari/537.36",xpyriment,legacy,legacy,0,uniform,0,0,0,0,24,24,24,0,0,60,60,60,60,60,0,60,0,,,,,,0,,26-03-22,26-03-22,19:34:34,Tue Apr 26 2022 19:34:34 GMT+0200 (közép-európai nyári idő),The main experiment item,yes,0,0,C:/Users/rrics/Documents/!!ResearchBMECOGSCI/gnet,0,0,0,prototype4.png,no,mono,no,18,no,black,no,no,768,1235,3.5.6,legacy,xpyriment,osweb,1.3.13,IwAR3ubu1nz9YYoeZnUCkLOGd9tO1sNHtzrxf65DA8U9DYs5_Q-IF85hB4R9c,0,right,right,right,,28644,14860,28644,,2,legacy,1040,1920,24,1080,24,0,0,1920,1650994505768,1024,2,48000,-16,experiment,p1sarrshacol2.png,0,even,Win32,177,126839,123825,177,177,553631,555144,548634,128357,548634,177,,,,,,visual_patterns,0,0,0,yes,1366
undefined,undefined,undefined,undefined,white,no,Mozilla,Netscape,"5.0 (Windows NT 10.0; Win64; x64) AppleWebKit/537.36 (KHTML, like Gecko) Chrome/100.0.4896.127 Safari/537.36",xpyriment,legacy,legacy,0,uniform,0,0,0,0,24,24,24,0,0,61,61,61,61,61,0,61,0,,,,,,0,,26-03-22,26-03-22,19:34:34,Tue Apr 26 2022 19:34:34 GMT+0200 (közép-európai nyári idő),The main experiment item,yes,0,0,C:/Users/rrics/Documents/!!ResearchBMECOGSCI/gnet,0,0,0,prototype4.png,no,mono,no,18,no,black,no,no,768,1235,3.5.6,legacy,xpyriment,osweb,1.3.13,IwAR3ubu1nz9YYoeZnUCkLOGd9tO1sNHtzrxf65DA8U9DYs5_Q-IF85hB4R9c,0,right,right,right,,28644,14860,28644,,2,legacy,1040,1920,24,1080,24,0,0,1920,1650994505768,1024,2,48000,-16,experiment,p2sarrcol1.png,0,even,Win32,177,126839,123825,177,177,560159,561675,555159,128357,555159,177,,,,,,visual_patterns,0,0,0,yes,1366
undefined,undefined,undefined,undefined,white,no,Mozilla,Netscape,"5.0 (Windows NT 10.0; Win64; x64) AppleWebKit/537.36 (KHTML, like Gecko) Chrome/100.0.4896.127 Safari/537.36",xpyriment,legacy,legacy,0,uniform,0,0,0,0,24,24,24,0,0,62,62,62,62,62,0,62,0,,,,,,0,,26-03-22,26-03-22,19:34:34,Tue Apr 26 2022 19:34:34 GMT+0200 (közép-európai nyári idő),The main experiment item,yes,0,0,C:/Users/rrics/Documents/!!ResearchBMECOGSCI/gnet,0,0,0,prototype4.png,no,mono,no,18,no,black,no,no,768,1235,3.5.6,legacy,xpyriment,osweb,1.3.13,IwAR3ubu1nz9YYoeZnUCkLOGd9tO1sNHtzrxf65DA8U9DYs5_Q-IF85hB4R9c,0,right,right,right,,28644,14860,28644,,2,legacy,1040,1920,24,1080,24,0,0,1920,1650994505768,1024,2,48000,-16,experiment,p5sarr2.png,0,even,Win32,177,126839,123825,177,177,566687,568189,561692,128357,561692,177,,,,,,visual_patterns,0,0,0,yes,1366
undefined,undefined,undefined,undefined,white,no,Mozilla,Netscape,"5.0 (Windows NT 10.0; Win64; x64) AppleWebKit/537.36 (KHTML, like Gecko) Chrome/100.0.4896.127 Safari/537.36",xpyriment,legacy,legacy,0,uniform,0,0,0,0,24,24,24,0,0,63,63,63,63,63,0,63,0,,,,,,0,,26-03-22,26-03-22,19:34:34,Tue Apr 26 2022 19:34:34 GMT+0200 (közép-európai nyári idő),The main experiment item,yes,0,0,C:/Users/rrics/Documents/!!ResearchBMECOGSCI/gnet,0,0,0,prototype4.png,no,mono,no,18,no,black,no,no,768,1235,3.5.6,legacy,xpyriment,osweb,1.3.13,IwAR3ubu1nz9YYoeZnUCkLOGd9tO1sNHtzrxf65DA8U9DYs5_Q-IF85hB4R9c,0,right,right,right,,28644,14860,28644,,2,legacy,1040,1920,24,1080,24,0,0,1920,1650994505768,1024,2,48000,-16,experiment,p10sarr2.png,0,even,Win32,177,126839,123825,177,177,573204,574721,568206,128357,568206,177,,,,,,visual_patterns,0,0,0,yes,1366
undefined,undefined,undefined,undefined,white,no,Mozilla,Netscape,"5.0 (Windows NT 10.0; Win64; x64) AppleWebKit/537.36 (KHTML, like Gecko) Chrome/100.0.4896.127 Safari/537.36",xpyriment,legacy,legacy,0,uniform,0,0,0,0,24,24,24,0,0,64,64,64,64,64,0,64,0,,,,,,0,,26-03-22,26-03-22,19:34:34,Tue Apr 26 2022 19:34:34 GMT+0200 (közép-európai nyári idő),The main experiment item,yes,0,0,C:/Users/rrics/Documents/!!ResearchBMECOGSCI/gnet,0,0,0,prototype4.png,no,mono,no,18,no,black,no,no,768,1235,3.5.6,legacy,xpyriment,osweb,1.3.13,IwAR3ubu1nz9YYoeZnUCkLOGd9tO1sNHtzrxf65DA8U9DYs5_Q-IF85hB4R9c,0,right,right,right,,28644,14860,28644,,2,legacy,1040,1920,24,1080,24,0,0,1920,1650994505768,1024,2,48000,-16,experiment,prototype1.png,0,even,Win32,177,126839,123825,177,177,579733,581235,574733,128357,574733,177,,,,,,visual_patterns,0,0,0,yes,1366
undefined,undefined,undefined,undefined,white,no,Mozilla,Netscape,"5.0 (Windows NT 10.0; Win64; x64) AppleWebKit/537.36 (KHTML, like Gecko) Chrome/100.0.4896.127 Safari/537.36",xpyriment,legacy,legacy,0,uniform,0,0,0,0,24,24,24,0,0,65,65,65,65,65,0,65,0,,,,,,0,,26-03-22,26-03-22,19:34:34,Tue Apr 26 2022 19:34:34 GMT+0200 (közép-európai nyári idő),The main experiment item,yes,0,0,C:/Users/rrics/Documents/!!ResearchBMECOGSCI/gnet,0,0,0,prototype4.png,no,mono,no,18,no,black,no,no,768,1235,3.5.6,legacy,xpyriment,osweb,1.3.13,IwAR3ubu1nz9YYoeZnUCkLOGd9tO1sNHtzrxf65DA8U9DYs5_Q-IF85hB4R9c,0,right,right,right,,28644,14860,28644,,2,legacy,1040,1920,24,1080,24,0,0,1920,1650994505768,1024,2,48000,-16,experiment,prototype4.png,0,even,Win32,177,126839,123825,177,177,586248,587749,581248,128357,581248,177,,,,,,visual_patterns,0,0,0,yes,1366
undefined,undefined,undefined,undefined,white,no,Mozilla,Netscape,"5.0 (Windows NT 10.0; Win64; x64) AppleWebKit/537.36 (KHTML, like Gecko) Chrome/100.0.4896.127 Safari/537.36",xpyriment,legacy,legacy,0,uniform,0,0,0,0,24,24,24,0,0,66,66,66,66,66,0,66,0,,,,,,0,,26-03-22,26-03-22,19:34:34,Tue Apr 26 2022 19:34:34 GMT+0200 (közép-európai nyári idő),The main experiment item,yes,0,0,C:/Users/rrics/Documents/!!ResearchBMECOGSCI/gnet,0,0,0,prototype4.png,no,mono,no,18,no,black,no,no,768,1235,3.5.6,legacy,xpyriment,osweb,1.3.13,IwAR3ubu1nz9YYoeZnUCkLOGd9tO1sNHtzrxf65DA8U9DYs5_Q-IF85hB4R9c,0,right,right,right,,28644,14860,28644,,2,legacy,1040,1920,24,1080,24,0,0,1920,1650994505768,1024,2,48000,-16,experiment,p2sarrshacol2.png,0,even,Win32,177,126839,123825,177,177,592762,594264,587762,128357,587762,177,,,,,,visual_patterns,0,0,0,yes,1366
undefined,undefined,undefined,undefined,white,no,Mozilla,Netscape,"5.0 (Windows NT 10.0; Win64; x64) AppleWebKit/537.36 (KHTML, like Gecko) Chrome/100.0.4896.127 Safari/537.36",xpyriment,legacy,legacy,0,uniform,0,0,0,0,24,24,24,0,0,67,67,67,67,67,0,67,0,,,,,,0,,26-03-22,26-03-22,19:34:34,Tue Apr 26 2022 19:34:34 GMT+0200 (közép-európai nyári idő),The main experiment item,yes,0,0,C:/Users/rrics/Documents/!!ResearchBMECOGSCI/gnet,0,0,0,prototype4.png,no,mono,no,18,no,black,no,no,768,1235,3.5.6,legacy,xpyriment,osweb,1.3.13,IwAR3ubu1nz9YYoeZnUCkLOGd9tO1sNHtzrxf65DA8U9DYs5_Q-IF85hB4R9c,0,right,right,right,,28644,14860,28644,,2,legacy,1040,1920,24,1080,24,0,0,1920,1650994505768,1024,2,48000,-16,experiment,p1sarr2.png,0,even,Win32,177,126839,123825,177,177,599279,600795,594283,128357,594283,177,,,,,,visual_patterns,0,0,0,yes,1366
undefined,undefined,undefined,undefined,white,no,Mozilla,Netscape,"5.0 (Windows NT 10.0; Win64; x64) AppleWebKit/537.36 (KHTML, like Gecko) Chrome/100.0.4896.127 Safari/537.36",xpyriment,legacy,legacy,0,uniform,0,0,0,0,24,24,24,0,0,68,68,68,68,68,0,68,0,,,,,,0,,26-03-22,26-03-22,19:34:34,Tue Apr 26 2022 19:34:34 GMT+0200 (közép-európai nyári idő),The main experiment item,yes,0,0,C:/Users/rrics/Documents/!!ResearchBMECOGSCI/gnet,0,0,0,prototype4.png,no,mono,no,18,no,black,no,no,768,1235,3.5.6,legacy,xpyriment,osweb,1.3.13,IwAR3ubu1nz9YYoeZnUCkLOGd9tO1sNHtzrxf65DA8U9DYs5_Q-IF85hB4R9c,0,right,right,right,,28644,14860,28644,,2,legacy,1040,1920,24,1080,24,0,0,1920,1650994505768,1024,2,48000,-16,experiment,p6sarr2.png,0,even,Win32,177,126839,123825,177,177,605810,607326,600812,128357,600812,177,,,,,,visual_patterns,0,0,0,yes,1366
undefined,undefined,undefined,undefined,white,no,Mozilla,Netscape,"5.0 (Windows NT 10.0; Win64; x64) AppleWebKit/537.36 (KHTML, like Gecko) Chrome/100.0.4896.127 Safari/537.36",xpyriment,legacy,legacy,0,uniform,0,0,0,0,24,24,24,0,0,69,69,69,69,69,0,69,0,,,,,,0,,26-03-22,26-03-22,19:34:34,Tue Apr 26 2022 19:34:34 GMT+0200 (közép-európai nyári idő),The main experiment item,yes,0,0,C:/Users/rrics/Documents/!!ResearchBMECOGSCI/gnet,0,0,0,prototype4.png,no,mono,no,18,no,black,no,no,768,1235,3.5.6,legacy,xpyriment,osweb,1.3.13,IwAR3ubu1nz9YYoeZnUCkLOGd9tO1sNHtzrxf65DA8U9DYs5_Q-IF85hB4R9c,0,right,right,right,,28644,14860,28644,,2,legacy,1040,1920,24,1080,24,0,0,1920,1650994505768,1024,2,48000,-16,experiment,prototype2.png,0,even,Win32,177,126839,123825,177,177,612338,613841,607338,128357,607338,177,,,,,,visual_patterns,0,0,0,yes,1366
undefined,undefined,undefined,undefined,white,no,Mozilla,Netscape,"5.0 (Windows NT 10.0; Win64; x64) AppleWebKit/537.36 (KHTML, like Gecko) Chrome/100.0.4896.127 Safari/537.36",xpyriment,legacy,legacy,0,uniform,0,0,0,0,24,24,24,0,0,70,70,70,70,70,0,70,0,,,,,,0,,26-03-22,26-03-22,19:34:34,Tue Apr 26 2022 19:34:34 GMT+0200 (közép-európai nyári idő),The main experiment item,yes,0,0,C:/Users/rrics/Documents/!!ResearchBMECOGSCI/gnet,0,0,0,prototype4.png,no,mono,no,18,no,black,no,no,768,1235,3.5.6,legacy,xpyriment,osweb,1.3.13,IwAR3ubu1nz9YYoeZnUCkLOGd9tO1sNHtzrxf65DA8U9DYs5_Q-IF85hB4R9c,0,right,right,right,,28644,14860,28644,,2,legacy,1040,1920,24,1080,24,0,0,1920,1650994505768,1024,2,48000,-16,experiment,p1sarrshacol1.png,0,even,Win32,177,126839,123825,177,177,618888,620405,613886,128357,613886,177,,,,,,visual_patterns,0,0,0,yes,1366
undefined,undefined,undefined,undefined,white,no,Mozilla,Netscape,"5.0 (Windows NT 10.0; Win64; x64) AppleWebKit/537.36 (KHTML, like Gecko) Chrome/100.0.4896.127 Safari/537.36",xpyriment,legacy,legacy,0,uniform,0,0,0,0,24,24,24,0,0,71,71,71,71,71,0,71,0,,,,,,0,,26-03-22,26-03-22,19:34:34,Tue Apr 26 2022 19:34:34 GMT+0200 (közép-európai nyári idő),The main experiment item,yes,0,0,C:/Users/rrics/Documents/!!ResearchBMECOGSCI/gnet,0,0,0,prototype4.png,no,mono,no,18,no,black,no,no,768,1235,3.5.6,legacy,xpyriment,osweb,1.3.13,IwAR3ubu1nz9YYoeZnUCkLOGd9tO1sNHtzrxf65DA8U9DYs5_Q-IF85hB4R9c,0,right,right,right,,28644,14860,28644,,2,legacy,1040,1920,24,1080,24,0,0,1920,1650994505768,1024,2,48000,-16,experiment,prototype1.png,0,even,Win32,177,126839,123825,177,177,625417,626919,620417,128357,620417,177,,,,,,visual_patterns,0,0,0,yes,1366
undefined,undefined,undefined,undefined,white,no,Mozilla,Netscape,"5.0 (Windows NT 10.0; Win64; x64) AppleWebKit/537.36 (KHTML, like Gecko) Chrome/100.0.4896.127 Safari/537.36",xpyriment,legacy,legacy,0,uniform,0,0,0,0,24,24,24,0,0,72,72,72,72,72,0,72,0,,,,,,0,,26-03-22,26-03-22,19:34:34,Tue Apr 26 2022 19:34:34 GMT+0200 (közép-európai nyári idő),The main experiment item,yes,0,0,C:/Users/rrics/Documents/!!ResearchBMECOGSCI/gnet,0,0,0,prototype4.png,no,mono,no,18,no,black,no,no,768,1235,3.5.6,legacy,xpyriment,osweb,1.3.13,IwAR3ubu1nz9YYoeZnUCkLOGd9tO1sNHtzrxf65DA8U9DYs5_Q-IF85hB4R9c,0,right,right,right,,28644,14860,28644,,2,legacy,1040,1920,24,1080,24,0,0,1920,1650994505768,1024,2,48000,-16,experiment,prototype5.png,0,even,Win32,177,126839,123825,177,177,631930,633434,626930,128357,626930,177,,,,,,visual_patterns,0,0,0,yes,1366
undefined,undefined,undefined,undefined,white,no,Mozilla,Netscape,"5.0 (Windows NT 10.0; Win64; x64) AppleWebKit/537.36 (KHTML, like Gecko) Chrome/100.0.4896.127 Safari/537.36",xpyriment,legacy,legacy,0,uniform,0,0,0,0,24,24,24,0,0,73,73,73,73,73,0,73,0,,,,,,0,,26-03-22,26-03-22,19:34:34,Tue Apr 26 2022 19:34:34 GMT+0200 (közép-európai nyári idő),The main experiment item,yes,0,0,C:/Users/rrics/Documents/!!ResearchBMECOGSCI/gnet,0,0,0,prototype4.png,no,mono,no,18,no,black,no,no,768,1235,3.5.6,legacy,xpyriment,osweb,1.3.13,IwAR3ubu1nz9YYoeZnUCkLOGd9tO1sNHtzrxf65DA8U9DYs5_Q-IF85hB4R9c,0,right,right,right,,28644,14860,28644,,2,legacy,1040,1920,24,1080,24,0,0,1920,1650994505768,1024,2,48000,-16,experiment,prototype3.png,0,even,Win32,177,126839,123825,177,177,638447,639949,633446,128357,633446,177,,,,,,visual_patterns,0,0,0,yes,1366
undefined,undefined,undefined,undefined,white,no,Mozilla,Netscape,"5.0 (Windows NT 10.0; Win64; x64) AppleWebKit/537.36 (KHTML, like Gecko) Chrome/100.0.4896.127 Safari/537.36",xpyriment,legacy,legacy,0,uniform,0,0,0,0,24,24,24,0,0,74,74,74,74,74,0,74,0,,,,,,0,,26-03-22,26-03-22,19:34:34,Tue Apr 26 2022 19:34:34 GMT+0200 (közép-európai nyári idő),The main experiment item,yes,0,0,C:/Users/rrics/Documents/!!ResearchBMECOGSCI/gnet,0,0,0,prototype4.png,no,mono,no,18,no,black,no,no,768,1235,3.5.6,legacy,xpyriment,osweb,1.3.13,IwAR3ubu1nz9YYoeZnUCkLOGd9tO1sNHtzrxf65DA8U9DYs5_Q-IF85hB4R9c,0,right,right,right,,28644,14860,28644,,2,legacy,1040,1920,24,1080,24,0,0,1920,1650994505768,1024,2,48000,-16,experiment,prototype2.png,0,even,Win32,177,126839,123825,177,177,644966,646480,639962,128357,639962,177,,,,,,visual_patterns,0,0,0,yes,1366
undefined,undefined,undefined,undefined,white,no,Mozilla,Netscape,"5.0 (Windows NT 10.0; Win64; x64) AppleWebKit/537.36 (KHTML, like Gecko) Chrome/100.0.4896.127 Safari/537.36",xpyriment,legacy,legacy,0,uniform,0,0,0,0,24,24,24,0,0,74,74,74,74,74,0,74,0,0,0,0,0,0,0,0,26-03-22,26-03-22,19:34:34,Tue Apr 26 2022 19:34:34 GMT+0200 (közép-európai nyári idő),The main experiment item,yes,0,0,C:/Users/rrics/Documents/!!ResearchBMECOGSCI/gnet,0,0,0,prototype4.png,no,mono,no,18,no,black,no,no,768,1235,3.5.6,legacy,xpyriment,osweb,1.3.13,IwAR3ubu1nz9YYoeZnUCkLOGd9tO1sNHtzrxf65DA8U9DYs5_Q-IF85hB4R9c,0,right,right,right,right,22137,14860,28644,22137,2,legacy,1040,1920,24,1080,24,0,0,1920,1650994505768,1024,2,48000,-16,experiment,p5sarrsha3.png,0,even,Win32,177,126839,123825,177,177,644966,646480,639962,128357,639962,177,671653,673154,668654,646484,668654,visual_patterns,0,0,0,yes,1366
undefined,undefined,undefined,undefined,white,no,Mozilla,Netscape,"5.0 (Windows NT 10.0; Win64; x64) AppleWebKit/537.36 (KHTML, like Gecko) Chrome/100.0.4896.127 Safari/537.36",xpyriment,legacy,legacy,0,uniform,0,0,0,0,24,24,24,0,0,74,74,74,74,74,0,74,0,1,1,1,1,1,0,1,26-03-22,26-03-22,19:34:34,Tue Apr 26 2022 19:34:34 GMT+0200 (közép-európai nyári idő),The main experiment item,yes,0,0,C:/Users/rrics/Documents/!!ResearchBMECOGSCI/gnet,0,0,0,prototype4.png,no,mono,no,18,no,black,no,no,768,1235,3.5.6,legacy,xpyriment,osweb,1.3.13,IwAR3ubu1nz9YYoeZnUCkLOGd9tO1sNHtzrxf65DA8U9DYs5_Q-IF85hB4R9c,0,right,right,right,right,22137,14860,28644,22137,2,legacy,1040,1920,24,1080,24,0,0,1920,1650994505768,1024,2,48000,-16,experiment,p2sarrshacol1.png,0,even,Win32,177,126839,123825,177,177,644966,646480,639962,128357,639962,177,676170,677686,673172,646484,673172,visual_patterns,0,0,0,yes,1366
undefined,undefined,undefined,undefined,white,no,Mozilla,Netscape,"5.0 (Windows NT 10.0; Win64; x64) AppleWebKit/537.36 (KHTML, like Gecko) Chrome/100.0.4896.127 Safari/537.36",xpyriment,legacy,legacy,0,uniform,0,0,0,0,24,24,24,0,0,74,74,74,74,74,0,74,0,2,2,2,2,2,0,2,26-03-22,26-03-22,19:34:34,Tue Apr 26 2022 19:34:34 GMT+0200 (közép-európai nyári idő),The main experiment item,yes,0,0,C:/Users/rrics/Documents/!!ResearchBMECOGSCI/gnet,0,0,0,prototype4.png,no,mono,no,18,no,black,no,no,768,1235,3.5.6,legacy,xpyriment,osweb,1.3.13,IwAR3ubu1nz9YYoeZnUCkLOGd9tO1sNHtzrxf65DA8U9DYs5_Q-IF85hB4R9c,0,right,right,right,right,22137,14860,28644,22137,2,legacy,1040,1920,24,1080,24,0,0,1920,1650994505768,1024,2,48000,-16,experiment,p4sarr4.png,0,even,Win32,177,126839,123825,177,177,644966,646480,639962,128357,639962,177,680702,682217,677703,646484,677703,visual_patterns,0,0,0,yes,1366
undefined,undefined,undefined,undefined,white,no,Mozilla,Netscape,"5.0 (Windows NT 10.0; Win64; x64) AppleWebKit/537.36 (KHTML, like Gecko) Chrome/100.0.4896.127 Safari/537.36",xpyriment,legacy,legacy,0,uniform,0,0,0,0,24,24,24,0,0,74,74,74,74,74,0,74,0,3,3,3,3,3,0,3,26-03-22,26-03-22,19:34:34,Tue Apr 26 2022 19:34:34 GMT+0200 (közép-európai nyári idő),The main experiment item,yes,0,0,C:/Users/rrics/Documents/!!ResearchBMECOGSCI/gnet,0,0,0,prototype4.png,no,mono,no,18,no,black,no,no,768,1235,3.5.6,legacy,xpyriment,osweb,1.3.13,IwAR3ubu1nz9YYoeZnUCkLOGd9tO1sNHtzrxf65DA8U9DYs5_Q-IF85hB4R9c,0,right,right,right,right,22137,14860,28644,22137,2,legacy,1040,1920,24,1080,24,0,0,1920,1650994505768,1024,2,48000,-16,experiment,p5sarrsha2.png,0,even,Win32,177,126839,123825,177,177,644966,646480,639962,128357,639962,177,685232,686733,682231,646484,682231,visual_patterns,0,0,0,yes,1366
undefined,undefined,undefined,undefined,white,no,Mozilla,Netscape,"5.0 (Windows NT 10.0; Win64; x64) AppleWebKit/537.36 (KHTML, like Gecko) Chrome/100.0.4896.127 Safari/537.36",xpyriment,legacy,legacy,0,uniform,0,0,0,0,24,24,24,0,0,74,74,74,74,74,0,74,0,4,4,4,4,4,0,4,26-03-22,26-03-22,19:34:34,Tue Apr 26 2022 19:34:34 GMT+0200 (közép-európai nyári idő),The main experiment item,yes,0,0,C:/Users/rrics/Documents/!!ResearchBMECOGSCI/gnet,0,0,0,prototype4.png,no,mono,no,18,no,black,no,no,768,1235,3.5.6,legacy,xpyriment,osweb,1.3.13,IwAR3ubu1nz9YYoeZnUCkLOGd9tO1sNHtzrxf65DA8U9DYs5_Q-IF85hB4R9c,0,right,right,right,right,22137,14860,28644,22137,2,legacy,1040,1920,24,1080,24,0,0,1920,1650994505768,1024,2,48000,-16,experiment,p7sarr2.png,0,even,Win32,177,126839,123825,177,177,644966,646480,639962,128357,639962,177,689749,691265,686751,646484,686751,visual_patterns,0,0,0,yes,1366
undefined,undefined,undefined,undefined,white,no,Mozilla,Netscape,"5.0 (Windows NT 10.0; Win64; x64) AppleWebKit/537.36 (KHTML, like Gecko) Chrome/100.0.4896.127 Safari/537.36",xpyriment,legacy,legacy,0,uniform,0,0,0,0,24,24,24,0,0,74,74,74,74,74,0,74,0,5,5,5,5,5,0,5,26-03-22,26-03-22,19:34:34,Tue Apr 26 2022 19:34:34 GMT+0200 (közép-európai nyári idő),The main experiment item,yes,0,0,C:/Users/rrics/Documents/!!ResearchBMECOGSCI/gnet,0,0,0,prototype4.png,no,mono,no,18,no,black,no,no,768,1235,3.5.6,legacy,xpyriment,osweb,1.3.13,IwAR3ubu1nz9YYoeZnUCkLOGd9tO1sNHtzrxf65DA8U9DYs5_Q-IF85hB4R9c,0,right,right,right,right,22137,14860,28644,22137,2,legacy,1040,1920,24,1080,24,0,0,1920,1650994505768,1024,2,48000,-16,experiment,p1sarrsha4.png,0,even,Win32,177,126839,123825,177,177,644966,646480,639962,128357,639962,177,694281,695796,691285,646484,691285,visual_patterns,0,0,0,yes,1366
undefined,undefined,undefined,undefined,white,no,Mozilla,Netscape,"5.0 (Windows NT 10.0; Win64; x64) AppleWebKit/537.36 (KHTML, like Gecko) Chrome/100.0.4896.127 Safari/537.36",xpyriment,legacy,legacy,0,uniform,0,0,0,0,24,24,24,0,0,74,74,74,74,74,0,74,0,6,6,6,6,6,0,6,26-03-22,26-03-22,19:34:34,Tue Apr 26 2022 19:34:34 GMT+0200 (közép-európai nyári idő),The main experiment item,yes,0,0,C:/Users/rrics/Documents/!!ResearchBMECOGSCI/gnet,0,0,0,prototype4.png,no,mono,no,18,no,black,no,no,768,1235,3.5.6,legacy,xpyriment,osweb,1.3.13,IwAR3ubu1nz9YYoeZnUCkLOGd9tO1sNHtzrxf65DA8U9DYs5_Q-IF85hB4R9c,0,right,right,right,right,22137,14860,28644,22137,2,legacy,1040,1920,24,1080,24,0,0,1920,1650994505768,1024,2,48000,-16,experiment,p3sarrcol2.png,0,even,Win32,177,126839,123825,177,177,644966,646480,639962,128357,639962,177,698805,700311,695805,646484,695805,visual_patterns,0,0,0,yes,1366
undefined,undefined,undefined,undefined,white,no,Mozilla,Netscape,"5.0 (Windows NT 10.0; Win64; x64) AppleWebKit/537.36 (KHTML, like Gecko) Chrome/100.0.4896.127 Safari/537.36",xpyriment,legacy,legacy,0,uniform,0,0,0,0,24,24,24,0,0,74,74,74,74,74,0,74,0,7,7,7,7,7,0,7,26-03-22,26-03-22,19:34:34,Tue Apr 26 2022 19:34:34 GMT+0200 (közép-európai nyári idő),The main experiment item,yes,0,0,C:/Users/rrics/Documents/!!ResearchBMECOGSCI/gnet,0,0,0,prototype4.png,no,mono,no,18,no,black,no,no,768,1235,3.5.6,legacy,xpyriment,osweb,1.3.13,IwAR3ubu1nz9YYoeZnUCkLOGd9tO1sNHtzrxf65DA8U9DYs5_Q-IF85hB4R9c,0,right,right,right,right,22137,14860,28644,22137,2,legacy,1040,1920,24,1080,24,0,0,1920,1650994505768,1024,2,48000,-16,experiment,p3sarrcol3.png,0,even,Win32,177,126839,123825,177,177,644966,646480,639962,128357,639962,177,703327,704843,700329,646484,700329,visual_patterns,0,0,0,yes,1366
undefined,undefined,undefined,undefined,white,no,Mozilla,Netscape,"5.0 (Windows NT 10.0; Win64; x64) AppleWebKit/537.36 (KHTML, like Gecko) Chrome/100.0.4896.127 Safari/537.36",xpyriment,legacy,legacy,0,uniform,0,0,0,0,24,24,24,0,0,74,74,74,74,74,0,74,0,8,8,8,8,8,0,8,26-03-22,26-03-22,19:34:34,Tue Apr 26 2022 19:34:34 GMT+0200 (közép-európai nyári idő),The main experiment item,yes,0,0,C:/Users/rrics/Documents/!!ResearchBMECOGSCI/gnet,0,0,0,prototype4.png,no,mono,no,18,no,black,no,no,768,1235,3.5.6,legacy,xpyriment,osweb,1.3.13,IwAR3ubu1nz9YYoeZnUCkLOGd9tO1sNHtzrxf65DA8U9DYs5_Q-IF85hB4R9c,0,right,right,right,right,22137,14860,28644,22137,2,legacy,1040,1920,24,1080,24,0,0,1920,1650994505768,1024,2,48000,-16,experiment,p1sarrsha1.png,0,even,Win32,177,126839,123825,177,177,644966,646480,639962,128357,639962,177,707859,709375,704860,646484,704860,visual_patterns,0,0,0,yes,1366
undefined,undefined,undefined,undefined,white,no,Mozilla,Netscape,"5.0 (Windows NT 10.0; Win64; x64) AppleWebKit/537.36 (KHTML, like Gecko) Chrome/100.0.4896.127 Safari/537.36",xpyriment,legacy,legacy,0,uniform,0,0,0,0,24,24,24,0,0,74,74,74,74,74,0,74,0,9,9,9,9,9,0,9,26-03-22,26-03-22,19:34:34,Tue Apr 26 2022 19:34:34 GMT+0200 (közép-európai nyári idő),The main experiment item,yes,0,0,C:/Users/rrics/Documents/!!ResearchBMECOGSCI/gnet,0,0,0,prototype4.png,no,mono,no,18,no,black,no,no,768,1235,3.5.6,legacy,xpyriment,osweb,1.3.13,IwAR3ubu1nz9YYoeZnUCkLOGd9tO1sNHtzrxf65DA8U9DYs5_Q-IF85hB4R9c,0,right,right,right,right,22137,14860,28644,22137,2,legacy,1040,1920,24,1080,24,0,0,1920,1650994505768,1024,2,48000,-16,experiment,p4sarr1.png,0,even,Win32,177,126839,123825,177,177,644966,646480,639962,128357,639962,177,712393,713907,709392,646484,709392,visual_patterns,0,0,0,yes,1366
undefined,undefined,undefined,undefined,white,no,Mozilla,Netscape,"5.0 (Windows NT 10.0; Win64; x64) AppleWebKit/537.36 (KHTML, like Gecko) Chrome/100.0.4896.127 Safari/537.36",xpyriment,legacy,legacy,0,uniform,0,0,0,0,24,24,24,0,0,74,74,74,74,74,0,74,0,10,10,10,10,10,0,10,26-03-22,26-03-22,19:34:34,Tue Apr 26 2022 19:34:34 GMT+0200 (közép-európai nyári idő),The main experiment item,yes,0,0,C:/Users/rrics/Documents/!!ResearchBMECOGSCI/gnet,0,0,0,prototype4.png,no,mono,no,18,no,black,no,no,768,1235,3.5.6,legacy,xpyriment,osweb,1.3.13,IwAR3ubu1nz9YYoeZnUCkLOGd9tO1sNHtzrxf65DA8U9DYs5_Q-IF85hB4R9c,0,right,right,right,right,22137,14860,28644,22137,2,legacy,1040,1920,24,1080,24,0,0,1920,1650994505768,1024,2,48000,-16,experiment,p9sarr2.png,0,even,Win32,177,126839,123825,177,177,644966,646480,639962,128357,639962,177,716961,718472,713958,646484,713958,visual_patterns,0,0,0,yes,1366
undefined,undefined,undefined,undefined,white,no,Mozilla,Netscape,"5.0 (Windows NT 10.0; Win64; x64) AppleWebKit/537.36 (KHTML, like Gecko) Chrome/100.0.4896.127 Safari/537.36",xpyriment,legacy,legacy,0,uniform,0,0,0,0,24,24,24,0,0,74,74,74,74,74,0,74,0,11,11,11,11,11,0,11,26-03-22,26-03-22,19:34:34,Tue Apr 26 2022 19:34:34 GMT+0200 (közép-európai nyári idő),The main experiment item,yes,0,0,C:/Users/rrics/Documents/!!ResearchBMECOGSCI/gnet,0,0,0,prototype4.png,no,mono,no,18,no,black,no,no,768,1235,3.5.6,legacy,xpyriment,osweb,1.3.13,IwAR3ubu1nz9YYoeZnUCkLOGd9tO1sNHtzrxf65DA8U9DYs5_Q-IF85hB4R9c,0,right,right,right,right,22137,14860,28644,22137,2,legacy,1040,1920,24,1080,24,0,0,1920,1650994505768,1024,2,48000,-16,experiment,p1sarr2.png,0,even,Win32,177,126839,123825,177,177,644966,646480,639962,128357,639962,177,721486,722987,718486,646484,718486,visual_patterns,0,0,0,yes,1366
undefined,undefined,undefined,undefined,white,no,Mozilla,Netscape,"5.0 (Windows NT 10.0; Win64; x64) AppleWebKit/537.36 (KHTML, like Gecko) Chrome/100.0.4896.127 Safari/537.36",xpyriment,legacy,legacy,0,uniform,0,0,0,0,24,24,24,0,0,74,74,74,74,74,0,74,0,12,12,12,12,12,0,12,26-03-22,26-03-22,19:34:34,Tue Apr 26 2022 19:34:34 GMT+0200 (közép-európai nyári idő),The main experiment item,yes,0,0,C:/Users/rrics/Documents/!!ResearchBMECOGSCI/gnet,0,0,0,prototype4.png,no,mono,no,18,no,black,no,no,768,1235,3.5.6,legacy,xpyriment,osweb,1.3.13,IwAR3ubu1nz9YYoeZnUCkLOGd9tO1sNHtzrxf65DA8U9DYs5_Q-IF85hB4R9c,0,right,right,right,right,22137,14860,28644,22137,2,legacy,1040,1920,24,1080,24,0,0,1920,1650994505768,1024,2,48000,-16,experiment,p3sarrcol4.png,0,even,Win32,177,126839,123825,177,177,644966,646480,639962,128357,639962,177,726002,727519,723004,646484,723004,visual_patterns,0,0,0,yes,1366
undefined,undefined,undefined,undefined,white,no,Mozilla,Netscape,"5.0 (Windows NT 10.0; Win64; x64) AppleWebKit/537.36 (KHTML, like Gecko) Chrome/100.0.4896.127 Safari/537.36",xpyriment,legacy,legacy,0,uniform,0,0,0,0,24,24,24,0,0,74,74,74,74,74,0,74,0,13,13,13,13,13,0,13,26-03-22,26-03-22,19:34:34,Tue Apr 26 2022 19:34:34 GMT+0200 (közép-európai nyári idő),The main experiment item,yes,0,0,C:/Users/rrics/Documents/!!ResearchBMECOGSCI/gnet,0,0,0,prototype4.png,no,mono,no,18,no,black,no,no,768,1235,3.5.6,legacy,xpyriment,osweb,1.3.13,IwAR3ubu1nz9YYoeZnUCkLOGd9tO1sNHtzrxf65DA8U9DYs5_Q-IF85hB4R9c,0,right,right,right,right,22137,14860,28644,22137,2,legacy,1040,1920,24,1080,24,0,0,1920,1650994505768,1024,2,48000,-16,experiment,p2sarrshacol2.png,0,even,Win32,177,126839,123825,177,177,644966,646480,639962,128357,639962,177,730533,732034,727532,646484,727532,visual_patterns,0,0,0,yes,1366
undefined,undefined,undefined,undefined,white,no,Mozilla,Netscape,"5.0 (Windows NT 10.0; Win64; x64) AppleWebKit/537.36 (KHTML, like Gecko) Chrome/100.0.4896.127 Safari/537.36",xpyriment,legacy,legacy,0,uniform,0,0,0,0,24,24,24,0,0,74,74,74,74,74,0,74,0,14,14,14,14,14,0,14,26-03-22,26-03-22,19:34:34,Tue Apr 26 2022 19:34:34 GMT+0200 (közép-európai nyári idő),The main experiment item,yes,0,0,C:/Users/rrics/Documents/!!ResearchBMECOGSCI/gnet,0,0,0,prototype4.png,no,mono,no,18,no,black,no,no,768,1235,3.5.6,legacy,xpyriment,osweb,1.3.13,IwAR3ubu1nz9YYoeZnUCkLOGd9tO1sNHtzrxf65DA8U9DYs5_Q-IF85hB4R9c,0,right,right,right,right,22137,14860,28644,22137,2,legacy,1040,1920,24,1080,24,0,0,1920,1650994505768,1024,2,48000,-16,experiment,p6sarr1.png,0,even,Win32,177,126839,123825,177,177,644966,646480,639962,128357,639962,177,735051,736566,732049,646484,732049,visual_patterns,0,0,0,yes,1366
undefined,undefined,undefined,undefined,white,no,Mozilla,Netscape,"5.0 (Windows NT 10.0; Win64; x64) AppleWebKit/537.36 (KHTML, like Gecko) Chrome/100.0.4896.127 Safari/537.36",xpyriment,legacy,legacy,0,uniform,0,0,0,0,24,24,24,0,0,74,74,74,74,74,0,74,0,15,15,15,15,15,0,15,26-03-22,26-03-22,19:34:34,Tue Apr 26 2022 19:34:34 GMT+0200 (közép-európai nyári idő),The main experiment item,yes,0,0,C:/Users/rrics/Documents/!!ResearchBMECOGSCI/gnet,0,0,0,prototype4.png,no,mono,no,18,no,black,no,no,768,1235,3.5.6,legacy,xpyriment,osweb,1.3.13,IwAR3ubu1nz9YYoeZnUCkLOGd9tO1sNHtzrxf65DA8U9DYs5_Q-IF85hB4R9c,0,right,right,right,right,22137,14860,28644,22137,2,legacy,1040,1920,24,1080,24,0,0,1920,1650994505768,1024,2,48000,-16,experiment,p4sarrshacol3.png,0,even,Win32,177,126839,123825,177,177,644966,646480,639962,128357,639962,177,739580,741081,736585,646484,736585,visual_patterns,0,0,0,yes,1366
undefined,undefined,undefined,undefined,white,no,Mozilla,Netscape,"5.0 (Windows NT 10.0; Win64; x64) AppleWebKit/537.36 (KHTML, like Gecko) Chrome/100.0.4896.127 Safari/537.36",xpyriment,legacy,legacy,0,uniform,0,0,0,0,24,24,24,0,0,74,74,74,74,74,0,74,0,16,16,16,16,16,0,16,26-03-22,26-03-22,19:34:34,Tue Apr 26 2022 19:34:34 GMT+0200 (közép-európai nyári idő),The main experiment item,yes,0,0,C:/Users/rrics/Documents/!!ResearchBMECOGSCI/gnet,0,0,0,prototype4.png,no,mono,no,18,no,black,no,no,768,1235,3.5.6,legacy,xpyriment,osweb,1.3.13,IwAR3ubu1nz9YYoeZnUCkLOGd9tO1sNHtzrxf65DA8U9DYs5_Q-IF85hB4R9c,0,right,right,right,right,22137,14860,28644,22137,2,legacy,1040,1920,24,1080,24,0,0,1920,1650994505768,1024,2,48000,-16,experiment,p4sarrshacol4.png,0,even,Win32,177,126839,123825,177,177,644966,646480,639962,128357,639962,177,744099,745613,741103,646484,741103,visual_patterns,0,0,0,yes,1366
undefined,undefined,undefined,undefined,white,no,Mozilla,Netscape,"5.0 (Windows NT 10.0; Win64; x64) AppleWebKit/537.36 (KHTML, like Gecko) Chrome/100.0.4896.127 Safari/537.36",xpyriment,legacy,legacy,0,uniform,0,0,0,0,24,24,24,0,0,74,74,74,74,74,0,74,0,17,17,17,17,17,0,17,26-03-22,26-03-22,19:34:34,Tue Apr 26 2022 19:34:34 GMT+0200 (közép-európai nyári idő),The main experiment item,yes,0,0,C:/Users/rrics/Documents/!!ResearchBMECOGSCI/gnet,0,0,0,prototype4.png,no,mono,no,18,no,black,no,no,768,1235,3.5.6,legacy,xpyriment,osweb,1.3.13,IwAR3ubu1nz9YYoeZnUCkLOGd9tO1sNHtzrxf65DA8U9DYs5_Q-IF85hB4R9c,0,right,right,right,right,22137,14860,28644,22137,2,legacy,1040,1920,24,1080,24,0,0,1920,1650994505768,1024,2,48000,-16,experiment,p2sarrcol1.png,0,even,Win32,177,126839,123825,177,177,644966,646480,639962,128357,639962,177,748633,750145,745630,646484,745630,visual_patterns,0,0,0,yes,1366
undefined,undefined,undefined,undefined,white,no,Mozilla,Netscape,"5.0 (Windows NT 10.0; Win64; x64) AppleWebKit/537.36 (KHTML, like Gecko) Chrome/100.0.4896.127 Safari/537.36",xpyriment,legacy,legacy,0,uniform,0,0,0,0,24,24,24,0,0,74,74,74,74,74,0,74,0,18,18,18,18,18,0,18,26-03-22,26-03-22,19:34:34,Tue Apr 26 2022 19:34:34 GMT+0200 (közép-európai nyári idő),The main experiment item,yes,0,0,C:/Users/rrics/Documents/!!ResearchBMECOGSCI/gnet,0,0,0,prototype4.png,no,mono,no,18,no,black,no,no,768,1235,3.5.6,legacy,xpyriment,osweb,1.3.13,IwAR3ubu1nz9YYoeZnUCkLOGd9tO1sNHtzrxf65DA8U9DYs5_Q-IF85hB4R9c,0,right,right,right,right,22137,14860,28644,22137,2,legacy,1040,1920,24,1080,24,0,0,1920,1650994505768,1024,2,48000,-16,experiment,p1sarr4.png,0,even,Win32,177,126839,123825,177,177,644966,646480,639962,128357,639962,177,753161,754676,750163,646484,750163,visual_patterns,0,0,0,yes,1366
undefined,undefined,undefined,undefined,white,no,Mozilla,Netscape,"5.0 (Windows NT 10.0; Win64; x64) AppleWebKit/537.36 (KHTML, like Gecko) Chrome/100.0.4896.127 Safari/537.36",xpyriment,legacy,legacy,0,uniform,0,0,0,0,24,24,24,0,0,74,74,74,74,74,0,74,0,19,19,19,19,19,0,19,26-03-22,26-03-22,19:34:34,Tue Apr 26 2022 19:34:34 GMT+0200 (közép-európai nyári idő),The main experiment item,yes,0,0,C:/Users/rrics/Documents/!!ResearchBMECOGSCI/gnet,0,0,0,prototype4.png,no,mono,no,18,no,black,no,no,768,1235,3.5.6,legacy,xpyriment,osweb,1.3.13,IwAR3ubu1nz9YYoeZnUCkLOGd9tO1sNHtzrxf65DA8U9DYs5_Q-IF85hB4R9c,0,right,right,right,right,22137,14860,28644,22137,2,legacy,1040,1920,24,1080,24,0,0,1920,1650994505768,1024,2,48000,-16,experiment,p10sarr1.png,0,even,Win32,177,126839,123825,177,177,644966,646480,639962,128357,639962,177,757692,759208,754692,646484,754692,visual_patterns,0,0,0,yes,1366
undefined,undefined,undefined,undefined,white,no,Mozilla,Netscape,"5.0 (Windows NT 10.0; Win64; x64) AppleWebKit/537.36 (KHTML, like Gecko) Chrome/100.0.4896.127 Safari/537.36",xpyriment,legacy,legacy,0,uniform,0,0,0,0,24,24,24,0,0,74,74,74,74,74,0,74,0,20,20,20,20,20,0,20,26-03-22,26-03-22,19:34:34,Tue Apr 26 2022 19:34:34 GMT+0200 (közép-európai nyári idő),The main experiment item,yes,0,0,C:/Users/rrics/Documents/!!ResearchBMECOGSCI/gnet,0,0,0,prototype4.png,no,mono,no,18,no,black,no,no,768,1235,3.5.6,legacy,xpyriment,osweb,1.3.13,IwAR3ubu1nz9YYoeZnUCkLOGd9tO1sNHtzrxf65DA8U9DYs5_Q-IF85hB4R9c,0,right,right,right,right,22137,14860,28644,22137,2,legacy,1040,1920,24,1080,24,0,0,1920,1650994505768,1024,2,48000,-16,experiment,p8sarr3.png,0,even,Win32,177,126839,123825,177,177,644966,646480,639962,128357,639962,177,762258,763773,759256,646484,759256,visual_patterns,0,0,0,yes,1366
undefined,undefined,undefined,undefined,white,no,Mozilla,Netscape,"5.0 (Windows NT 10.0; Win64; x64) AppleWebKit/537.36 (KHTML, like Gecko) Chrome/100.0.4896.127 Safari/537.36",xpyriment,legacy,legacy,0,uniform,0,0,0,0,24,24,24,0,0,74,74,74,74,74,0,74,0,21,21,21,21,21,0,21,26-03-22,26-03-22,19:34:34,Tue Apr 26 2022 19:34:34 GMT+0200 (közép-európai nyári idő),The main experiment item,yes,0,0,C:/Users/rrics/Documents/!!ResearchBMECOGSCI/gnet,0,0,0,prototype4.png,no,mono,no,18,no,black,no,no,768,1235,3.5.6,legacy,xpyriment,osweb,1.3.13,IwAR3ubu1nz9YYoeZnUCkLOGd9tO1sNHtzrxf65DA8U9DYs5_Q-IF85hB4R9c,0,right,right,right,right,22137,14860,28644,22137,2,legacy,1040,1920,24,1080,24,0,0,1920,1650994505768,1024,2,48000,-16,experiment,p9sarr4.png,0,even,Win32,177,126839,123825,177,177,644966,646480,639962,128357,639962,177,766786,768289,763785,646484,763785,visual_patterns,0,0,0,yes,1366
undefined,undefined,undefined,undefined,white,no,Mozilla,Netscape,"5.0 (Windows NT 10.0; Win64; x64) AppleWebKit/537.36 (KHTML, like Gecko) Chrome/100.0.4896.127 Safari/537.36",xpyriment,legacy,legacy,0,uniform,0,0,0,0,24,24,24,0,0,74,74,74,74,74,0,74,0,22,22,22,22,22,0,22,26-03-22,26-03-22,19:34:34,Tue Apr 26 2022 19:34:34 GMT+0200 (közép-európai nyári idő),The main experiment item,yes,0,0,C:/Users/rrics/Documents/!!ResearchBMECOGSCI/gnet,0,0,0,prototype4.png,no,mono,no,18,no,black,no,no,768,1235,3.5.6,legacy,xpyriment,osweb,1.3.13,IwAR3ubu1nz9YYoeZnUCkLOGd9tO1sNHtzrxf65DA8U9DYs5_Q-IF85hB4R9c,0,right,right,right,right,22137,14860,28644,22137,2,legacy,1040,1920,24,1080,24,0,0,1920,1650994505768,1024,2,48000,-16,experiment,p5sarrcol2.png,0,even,Win32,177,126839,123825,177,177,644966,646480,639962,128357,639962,177,771307,772820,768304,646484,768304,visual_patterns,0,0,0,yes,1366
undefined,undefined,undefined,undefined,white,no,Mozilla,Netscape,"5.0 (Windows NT 10.0; Win64; x64) AppleWebKit/537.36 (KHTML, like Gecko) Chrome/100.0.4896.127 Safari/537.36",xpyriment,legacy,legacy,0,uniform,0,0,0,0,24,24,24,0,0,74,74,74,74,74,0,74,0,23,23,23,23,23,0,23,26-03-22,26-03-22,19:34:34,Tue Apr 26 2022 19:34:34 GMT+0200 (közép-európai nyári idő),The main experiment item,yes,0,0,C:/Users/rrics/Documents/!!ResearchBMECOGSCI/gnet,0,0,0,prototype4.png,no,mono,no,18,no,black,no,no,768,1235,3.5.6,legacy,xpyriment,osweb,1.3.13,IwAR3ubu1nz9YYoeZnUCkLOGd9tO1sNHtzrxf65DA8U9DYs5_Q-IF85hB4R9c,0,right,right,right,right,22137,14860,28644,22137,2,legacy,1040,1920,24,1080,24,0,0,1920,1650994505768,1024,2,48000,-16,experiment,p7sarr4.png,0,even,Win32,177,126839,123825,177,177,644966,646480,639962,128357,639962,177,775834,777335,772839,646484,772839,visual_patterns,0,0,0,yes,1366
undefined,undefined,undefined,undefined,white,no,Mozilla,Netscape,"5.0 (Windows NT 10.0; Win64; x64) AppleWebKit/537.36 (KHTML, like Gecko) Chrome/100.0.4896.127 Safari/537.36",xpyriment,legacy,legacy,0,uniform,0,0,0,0,24,24,24,0,0,74,74,74,74,74,0,74,0,24,24,24,24,24,0,24,26-03-22,26-03-22,19:34:34,Tue Apr 26 2022 19:34:34 GMT+0200 (közép-európai nyári idő),The main experiment item,yes,0,0,C:/Users/rrics/Documents/!!ResearchBMECOGSCI/gnet,0,0,0,prototype4.png,no,mono,no,18,no,black,no,no,768,1235,3.5.6,legacy,xpyriment,osweb,1.3.13,IwAR3ubu1nz9YYoeZnUCkLOGd9tO1sNHtzrxf65DA8U9DYs5_Q-IF85hB4R9c,0,right,right,right,right,22137,14860,28644,22137,2,legacy,1040,1920,24,1080,24,0,0,1920,1650994505768,1024,2,48000,-16,experiment,p3sarrsha3.png,0,even,Win32,177,126839,123825,177,177,644966,646480,639962,128357,639962,177,780354,781867,777354,646484,777354,visual_patterns,0,0,0,yes,1366
undefined,undefined,undefined,undefined,white,no,Mozilla,Netscape,"5.0 (Windows NT 10.0; Win64; x64) AppleWebKit/537.36 (KHTML, like Gecko) Chrome/100.0.4896.127 Safari/537.36",xpyriment,legacy,legacy,0,uniform,0,0,0,0,24,24,24,0,0,74,74,74,74,74,0,74,0,25,25,25,25,25,0,25,26-03-22,26-03-22,19:34:34,Tue Apr 26 2022 19:34:34 GMT+0200 (közép-európai nyári idő),The main experiment item,yes,0,0,C:/Users/rrics/Documents/!!ResearchBMECOGSCI/gnet,0,0,0,prototype4.png,no,mono,no,18,no,black,no,no,768,1235,3.5.6,legacy,xpyriment,osweb,1.3.13,IwAR3ubu1nz9YYoeZnUCkLOGd9tO1sNHtzrxf65DA8U9DYs5_Q-IF85hB4R9c,0,right,right,right,right,22137,14860,28644,22137,2,legacy,1040,1920,24,1080,24,0,0,1920,1650994505768,1024,2,48000,-16,experiment,p8sarr4.png,0,even,Win32,177,126839,123825,177,177,644966,646480,639962,128357,639962,177,784916,786432,781917,646484,781917,visual_patterns,0,0,0,yes,1366
undefined,undefined,undefined,undefined,white,no,Mozilla,Netscape,"5.0 (Windows NT 10.0; Win64; x64) AppleWebKit/537.36 (KHTML, like Gecko) Chrome/100.0.4896.127 Safari/537.36",xpyriment,legacy,legacy,0,uniform,0,0,0,0,24,24,24,0,0,74,74,74,74,74,0,74,0,26,26,26,26,26,0,26,26-03-22,26-03-22,19:34:34,Tue Apr 26 2022 19:34:34 GMT+0200 (közép-európai nyári idő),The main experiment item,yes,0,0,C:/Users/rrics/Documents/!!ResearchBMECOGSCI/gnet,0,0,0,prototype4.png,no,mono,no,18,no,black,no,no,768,1235,3.5.6,legacy,xpyriment,osweb,1.3.13,IwAR3ubu1nz9YYoeZnUCkLOGd9tO1sNHtzrxf65DA8U9DYs5_Q-IF85hB4R9c,0,right,right,right,right,22137,14860,28644,22137,2,legacy,1040,1920,24,1080,24,0,0,1920,1650994505768,1024,2,48000,-16,experiment,p2sarrshacol4.png,0,even,Win32,177,126839,123825,177,177,644966,646480,639962,128357,639962,177,789448,790964,786451,646484,786451,visual_patterns,0,0,0,yes,1366
undefined,undefined,undefined,undefined,white,no,Mozilla,Netscape,"5.0 (Windows NT 10.0; Win64; x64) AppleWebKit/537.36 (KHTML, like Gecko) Chrome/100.0.4896.127 Safari/537.36",xpyriment,legacy,legacy,0,uniform,0,0,0,0,24,24,24,0,0,74,74,74,74,74,0,74,0,27,27,27,27,27,0,27,26-03-22,26-03-22,19:34:34,Tue Apr 26 2022 19:34:34 GMT+0200 (közép-európai nyári idő),The main experiment item,yes,0,0,C:/Users/rrics/Documents/!!ResearchBMECOGSCI/gnet,0,0,0,prototype4.png,no,mono,no,18,no,black,no,no,768,1235,3.5.6,legacy,xpyriment,osweb,1.3.13,IwAR3ubu1nz9YYoeZnUCkLOGd9tO1sNHtzrxf65DA8U9DYs5_Q-IF85hB4R9c,0,right,right,right,right,22137,14860,28644,22137,2,legacy,1040,1920,24,1080,24,0,0,1920,1650994505768,1024,2,48000,-16,experiment,p4sarrshacol1.png,0,even,Win32,177,126839,123825,177,177,644966,646480,639962,128357,639962,177,793977,795479,790978,646484,790978,visual_patterns,0,0,0,yes,1366
undefined,undefined,undefined,undefined,white,no,Mozilla,Netscape,"5.0 (Windows NT 10.0; Win64; x64) AppleWebKit/537.36 (KHTML, like Gecko) Chrome/100.0.4896.127 Safari/537.36",xpyriment,legacy,legacy,0,uniform,0,0,0,0,24,24,24,0,0,74,74,74,74,74,0,74,0,28,28,28,28,28,0,28,26-03-22,26-03-22,19:34:34,Tue Apr 26 2022 19:34:34 GMT+0200 (közép-európai nyári idő),The main experiment item,yes,0,0,C:/Users/rrics/Documents/!!ResearchBMECOGSCI/gnet,0,0,0,prototype4.png,no,mono,no,18,no,black,no,no,768,1235,3.5.6,legacy,xpyriment,osweb,1.3.13,IwAR3ubu1nz9YYoeZnUCkLOGd9tO1sNHtzrxf65DA8U9DYs5_Q-IF85hB4R9c,0,right,right,right,right,22137,14860,28644,22137,2,legacy,1040,1920,24,1080,24,0,0,1920,1650994505768,1024,2,48000,-16,experiment,p1sarrshacol3.png,0,even,Win32,177,126839,123825,177,177,644966,646480,639962,128357,639962,177,798497,800011,795498,646484,795498,visual_patterns,0,0,0,yes,1366
undefined,undefined,undefined,undefined,white,no,Mozilla,Netscape,"5.0 (Windows NT 10.0; Win64; x64) AppleWebKit/537.36 (KHTML, like Gecko) Chrome/100.0.4896.127 Safari/537.36",xpyriment,legacy,legacy,0,uniform,0,0,0,0,24,24,24,0,0,74,74,74,74,74,0,74,0,29,29,29,29,29,0,29,26-03-22,26-03-22,19:34:34,Tue Apr 26 2022 19:34:34 GMT+0200 (közép-európai nyári idő),The main experiment item,yes,0,0,C:/Users/rrics/Documents/!!ResearchBMECOGSCI/gnet,0,0,0,prototype4.png,no,mono,no,18,no,black,no,no,768,1235,3.5.6,legacy,xpyriment,osweb,1.3.13,IwAR3ubu1nz9YYoeZnUCkLOGd9tO1sNHtzrxf65DA8U9DYs5_Q-IF85hB4R9c,0,right,right,right,right,22137,14860,28644,22137,2,legacy,1040,1920,24,1080,24,0,0,1920,1650994505768,1024,2,48000,-16,experiment,p2sarrsha1.png,0,even,Win32,177,126839,123825,177,177,644966,646480,639962,128357,639962,177,803027,804543,800027,646484,800026,visual_patterns,0,0,0,yes,1366
undefined,undefined,undefined,undefined,white,no,Mozilla,Netscape,"5.0 (Windows NT 10.0; Win64; x64) AppleWebKit/537.36 (KHTML, like Gecko) Chrome/100.0.4896.127 Safari/537.36",xpyriment,legacy,legacy,0,uniform,0,0,0,0,24,24,24,0,0,74,74,74,74,74,0,74,0,30,30,30,30,30,0,30,26-03-22,26-03-22,19:34:34,Tue Apr 26 2022 19:34:34 GMT+0200 (közép-európai nyári idő),The main experiment item,yes,0,0,C:/Users/rrics/Documents/!!ResearchBMECOGSCI/gnet,0,0,0,prototype4.png,no,mono,no,18,no,black,no,no,768,1235,3.5.6,legacy,xpyriment,osweb,1.3.13,IwAR3ubu1nz9YYoeZnUCkLOGd9tO1sNHtzrxf65DA8U9DYs5_Q-IF85hB4R9c,0,right,right,right,right,22137,14860,28644,22137,2,legacy,1040,1920,24,1080,24,0,0,1920,1650994505768,1024,2,48000,-16,experiment,p3sarr2.png,0,even,Win32,177,126839,123825,177,177,644966,646480,639962,128357,639962,177,807591,809108,804591,646484,804591,visual_patterns,0,0,0,yes,1366
undefined,undefined,undefined,undefined,white,no,Mozilla,Netscape,"5.0 (Windows NT 10.0; Win64; x64) AppleWebKit/537.36 (KHTML, like Gecko) Chrome/100.0.4896.127 Safari/537.36",xpyriment,legacy,legacy,0,uniform,0,0,0,0,24,24,24,0,0,74,74,74,74,74,0,74,0,31,31,31,31,31,0,31,26-03-22,26-03-22,19:34:34,Tue Apr 26 2022 19:34:34 GMT+0200 (közép-európai nyári idő),The main experiment item,yes,0,0,C:/Users/rrics/Documents/!!ResearchBMECOGSCI/gnet,0,0,0,prototype4.png,no,mono,no,18,no,black,no,no,768,1235,3.5.6,legacy,xpyriment,osweb,1.3.13,IwAR3ubu1nz9YYoeZnUCkLOGd9tO1sNHtzrxf65DA8U9DYs5_Q-IF85hB4R9c,0,right,right,right,right,22137,14860,28644,22137,2,legacy,1040,1920,24,1080,24,0,0,1920,1650994505768,1024,2,48000,-16,experiment,p3sarrshacol3.png,0,even,Win32,177,126839,123825,177,177,644966,646480,639962,128357,639962,177,812124,813640,809131,646484,809131,visual_patterns,0,0,0,yes,1366
undefined,undefined,undefined,undefined,white,no,Mozilla,Netscape,"5.0 (Windows NT 10.0; Win64; x64) AppleWebKit/537.36 (KHTML, like Gecko) Chrome/100.0.4896.127 Safari/537.36",xpyriment,legacy,legacy,0,uniform,0,0,0,0,24,24,24,0,0,74,74,74,74,74,0,74,0,32,32,32,32,32,0,32,26-03-22,26-03-22,19:34:34,Tue Apr 26 2022 19:34:34 GMT+0200 (közép-európai nyári idő),The main experiment item,yes,0,0,C:/Users/rrics/Documents/!!ResearchBMECOGSCI/gnet,0,0,0,prototype4.png,no,mono,no,18,no,black,no,no,768,1235,3.5.6,legacy,xpyriment,osweb,1.3.13,IwAR3ubu1nz9YYoeZnUCkLOGd9tO1sNHtzrxf65DA8U9DYs5_Q-IF85hB4R9c,0,right,right,right,right,22137,14860,28644,22137,2,legacy,1040,1920,24,1080,24,0,0,1920,1650994505768,1024,2,48000,-16,experiment,p2sarrcol4.png,0,even,Win32,177,126839,123825,177,177,644966,646480,639962,128357,639962,177,816658,818172,813660,646484,813660,visual_patterns,0,0,0,yes,1366
undefined,undefined,undefined,undefined,white,no,Mozilla,Netscape,"5.0 (Windows NT 10.0; Win64; x64) AppleWebKit/537.36 (KHTML, like Gecko) Chrome/100.0.4896.127 Safari/537.36",xpyriment,legacy,legacy,0,uniform,0,0,0,0,24,24,24,0,0,74,74,74,74,74,0,74,0,33,33,33,33,33,0,33,26-03-22,26-03-22,19:34:34,Tue Apr 26 2022 19:34:34 GMT+0200 (közép-európai nyári idő),The main experiment item,yes,0,0,C:/Users/rrics/Documents/!!ResearchBMECOGSCI/gnet,0,0,0,prototype4.png,no,mono,no,18,no,black,no,no,768,1235,3.5.6,legacy,xpyriment,osweb,1.3.13,IwAR3ubu1nz9YYoeZnUCkLOGd9tO1sNHtzrxf65DA8U9DYs5_Q-IF85hB4R9c,0,right,right,right,right,22137,14860,28644,22137,2,legacy,1040,1920,24,1080,24,0,0,1920,1650994505768,1024,2,48000,-16,experiment,p5sarrcol1.png,0,even,Win32,177,126839,123825,177,177,644966,646480,639962,128357,639962,177,821189,822703,818191,646484,818191,visual_patterns,0,0,0,yes,1366
undefined,undefined,undefined,undefined,white,no,Mozilla,Netscape,"5.0 (Windows NT 10.0; Win64; x64) AppleWebKit/537.36 (KHTML, like Gecko) Chrome/100.0.4896.127 Safari/537.36",xpyriment,legacy,legacy,0,uniform,0,0,0,0,24,24,24,0,0,74,74,74,74,74,0,74,0,34,34,34,34,34,0,34,26-03-22,26-03-22,19:34:34,Tue Apr 26 2022 19:34:34 GMT+0200 (közép-európai nyári idő),The main experiment item,yes,0,0,C:/Users/rrics/Documents/!!ResearchBMECOGSCI/gnet,0,0,0,prototype4.png,no,mono,no,18,no,black,no,no,768,1235,3.5.6,legacy,xpyriment,osweb,1.3.13,IwAR3ubu1nz9YYoeZnUCkLOGd9tO1sNHtzrxf65DA8U9DYs5_Q-IF85hB4R9c,0,right,right,right,right,22137,14860,28644,22137,2,legacy,1040,1920,24,1080,24,0,0,1920,1650994505768,1024,2,48000,-16,experiment,p8sarr2.png,0,even,Win32,177,126839,123825,177,177,644966,646480,639962,128357,639962,177,825722,827235,822719,646484,822719,visual_patterns,0,0,0,yes,1366
undefined,undefined,undefined,undefined,white,no,Mozilla,Netscape,"5.0 (Windows NT 10.0; Win64; x64) AppleWebKit/537.36 (KHTML, like Gecko) Chrome/100.0.4896.127 Safari/537.36",xpyriment,legacy,legacy,0,uniform,0,0,0,0,24,24,24,0,0,74,74,74,74,74,0,74,0,35,35,35,35,35,0,35,26-03-22,26-03-22,19:34:34,Tue Apr 26 2022 19:34:34 GMT+0200 (közép-európai nyári idő),The main experiment item,yes,0,0,C:/Users/rrics/Documents/!!ResearchBMECOGSCI/gnet,0,0,0,prototype4.png,no,mono,no,18,no,black,no,no,768,1235,3.5.6,legacy,xpyriment,osweb,1.3.13,IwAR3ubu1nz9YYoeZnUCkLOGd9tO1sNHtzrxf65DA8U9DYs5_Q-IF85hB4R9c,0,right,right,right,right,22137,14860,28644,22137,2,legacy,1040,1920,24,1080,24,0,0,1920,1650994505768,1024,2,48000,-16,experiment,p5sarr3.png,0,even,Win32,177,126839,123825,177,177,644966,646480,639962,128357,639962,177,830256,831767,827255,646484,827255,visual_patterns,0,0,0,yes,1366
undefined,undefined,undefined,undefined,white,no,Mozilla,Netscape,"5.0 (Windows NT 10.0; Win64; x64) AppleWebKit/537.36 (KHTML, like Gecko) Chrome/100.0.4896.127 Safari/537.36",xpyriment,legacy,legacy,0,uniform,0,0,0,0,24,24,24,0,0,74,74,74,74,74,0,74,0,36,36,36,36,36,0,36,26-03-22,26-03-22,19:34:34,Tue Apr 26 2022 19:34:34 GMT+0200 (közép-európai nyári idő),The main experiment item,yes,0,0,C:/Users/rrics/Documents/!!ResearchBMECOGSCI/gnet,0,0,0,prototype4.png,no,mono,no,18,no,black,no,no,768,1235,3.5.6,legacy,xpyriment,osweb,1.3.13,IwAR3ubu1nz9YYoeZnUCkLOGd9tO1sNHtzrxf65DA8U9DYs5_Q-IF85hB4R9c,0,right,right,right,right,22137,14860,28644,22137,2,legacy,1040,1920,24,1080,24,0,0,1920,1650994505768,1024,2,48000,-16,experiment,p7sarr1.png,0,even,Win32,177,126839,123825,177,177,644966,646480,639962,128357,639962,177,834787,836299,831785,646484,831785,visual_patterns,0,0,0,yes,1366
undefined,undefined,undefined,undefined,white,no,Mozilla,Netscape,"5.0 (Windows NT 10.0; Win64; x64) AppleWebKit/537.36 (KHTML, like Gecko) Chrome/100.0.4896.127 Safari/537.36",xpyriment,legacy,legacy,0,uniform,0,0,0,0,24,24,24,0,0,74,74,74,74,74,0,74,0,37,37,37,37,37,0,37,26-03-22,26-03-22,19:34:34,Tue Apr 26 2022 19:34:34 GMT+0200 (közép-európai nyári idő),The main experiment item,yes,0,0,C:/Users/rrics/Documents/!!ResearchBMECOGSCI/gnet,0,0,0,prototype4.png,no,mono,no,18,no,black,no,no,768,1235,3.5.6,legacy,xpyriment,osweb,1.3.13,IwAR3ubu1nz9YYoeZnUCkLOGd9tO1sNHtzrxf65DA8U9DYs5_Q-IF85hB4R9c,0,right,right,right,right,22137,14860,28644,22137,2,legacy,1040,1920,24,1080,24,0,0,1920,1650994505768,1024,2,48000,-16,experiment,p1sarrcol4.png,0,even,Win32,177,126839,123825,177,177,644966,646480,639962,128357,639962,177,839313,840814,836316,646484,836316,visual_patterns,0,0,0,yes,1366
undefined,undefined,undefined,undefined,white,no,Mozilla,Netscape,"5.0 (Windows NT 10.0; Win64; x64) AppleWebKit/537.36 (KHTML, like Gecko) Chrome/100.0.4896.127 Safari/537.36",xpyriment,legacy,legacy,0,uniform,0,0,0,0,24,24,24,0,0,74,74,74,74,74,0,74,0,38,38,38,38,38,0,38,26-03-22,26-03-22,19:34:34,Tue Apr 26 2022 19:34:34 GMT+0200 (közép-európai nyári idő),The main experiment item,yes,0,0,C:/Users/rrics/Documents/!!ResearchBMECOGSCI/gnet,0,0,0,prototype4.png,no,mono,no,18,no,black,no,no,768,1235,3.5.6,legacy,xpyriment,osweb,1.3.13,IwAR3ubu1nz9YYoeZnUCkLOGd9tO1sNHtzrxf65DA8U9DYs5_Q-IF85hB4R9c,0,right,right,right,right,22137,14860,28644,22137,2,legacy,1040,1920,24,1080,24,0,0,1920,1650994505768,1024,2,48000,-16,experiment,p3sarrsha4.png,0,even,Win32,177,126839,123825,177,177,644966,646480,639962,128357,639962,177,843833,845346,840834,646484,840834,visual_patterns,0,0,0,yes,1366
