acc,accuracy,average_response_time,avg_rt,background,bidi,browser_codename,browser_name,browser_version,canvas_backend,clock_backend,color_backend,compensation,coordinates,count_end,count_experiment,count_osweb,count_prestudy,count_prestudy_isi,count_prestudy_sequence,count_prestudy_stimpres,count_start,count_study,count_study_coroutines,count_study_isi,count_study_logger,count_study_response,count_study_sequence,count_study_start,count_study_stimpres,count_test,count_test_coroutines,count_test_isi,count_test_logger,count_test_response,count_test_sequence,count_test_start,count_test_stimpres,date_startdate,date_startdateUTC,date_starttime,datetime,description,disable_garbage_collection,experiment_debug,experiment_parameters,experiment_path,experiment_pilot,experiment_taskname,experiment_taskversion,fampict,font_bold,font_family,font_italic,font_size,font_underline,foreground,form_clicks,fullscreen,height,jatosStudyResultId,jatosVersion,keyboard_backend,mouse_backend,opensesame_codename,opensesame_version,queryParams_fbclid,repeat_cycle,response,response_start,response_study_start,response_test_start,response_time,response_time_start,response_time_study_start,response_time_test_start,round_decimals,sampler_backend,screen_availableHeight,screen_availableWidth,screen_colorDepth,screen_height,screen_pixelDepth,screen_screenX,screen_screenY,screen_width,sessionid,sound_buf_size,sound_channels,sound_freq,sound_sample_size,start,stim,subject_nr,subject_parity,system_os,time_prestudy,time_prestudy_isi,time_prestudy_stimpres,time_start,time_study,time_study_isi,time_study_logger,time_study_response,time_study_start,time_study_stimpres,time_test,time_test_isi,time_test_logger,time_test_response,time_test_start,time_test_stimpres,title,total_correct,total_response_time,total_responses,uniform_coordinates,width
undefined,undefined,undefined,undefined,white,no,Mozilla,Netscape,"5.0 (Macintosh; Intel Mac OS X 10_15_7) AppleWebKit/605.1.15 (KHTML, like Gecko) Version/15.4 Safari/605.1.15",xpyriment,legacy,legacy,0,uniform,0,0,0,0,24,24,24,0,0,0,0,0,0,0,0,0,0,,,,,,0,,27-03-22,27-03-22,17:05:10,Wed Apr 27 2022 17:05:10 GMT+0200 (CEST),The main experiment item,yes,0,0,C:/Users/rrics/Documents/!!ResearchBMECOGSCI/gnet,0,0,0,prototype2.png,no,mono,no,18,no,black,no,no,768,1237,3.5.6,legacy,xpyriment,osweb,1.3.13,IwAR3rcqDdrMMP8LPRIB5LLgNG2Ck9pOLpDnNRed9AQ73dnkhqzkZ4l4vqpAw,0,space,space,space,,29321,5297,29321,,2,legacy,970,1920,24,1080,24,297,40,1920,1651071969738,1024,2,48000,-16,experiment,p6sarr1.png,0,even,MacIntel,93,117404,114399,92,93,153294,154810,148307,118932,148306,93,,,,,,visual_patterns,0,0,0,yes,1366
undefined,undefined,undefined,undefined,white,no,Mozilla,Netscape,"5.0 (Macintosh; Intel Mac OS X 10_15_7) AppleWebKit/605.1.15 (KHTML, like Gecko) Version/15.4 Safari/605.1.15",xpyriment,legacy,legacy,0,uniform,0,0,0,0,24,24,24,0,0,1,1,1,1,1,0,1,0,,,,,,0,,27-03-22,27-03-22,17:05:10,Wed Apr 27 2022 17:05:10 GMT+0200 (CEST),The main experiment item,yes,0,0,C:/Users/rrics/Documents/!!ResearchBMECOGSCI/gnet,0,0,0,prototype2.png,no,mono,no,18,no,black,no,no,768,1237,3.5.6,legacy,xpyriment,osweb,1.3.13,IwAR3rcqDdrMMP8LPRIB5LLgNG2Ck9pOLpDnNRed9AQ73dnkhqzkZ4l4vqpAw,0,space,space,space,,29321,5297,29321,,2,legacy,970,1920,24,1080,24,297,40,1920,1651071969738,1024,2,48000,-16,experiment,prototype3.png,0,even,MacIntel,93,117404,114399,92,93,159821,161334,154836,118932,154836,93,,,,,,visual_patterns,0,0,0,yes,1366
undefined,undefined,undefined,undefined,white,no,Mozilla,Netscape,"5.0 (Macintosh; Intel Mac OS X 10_15_7) AppleWebKit/605.1.15 (KHTML, like Gecko) Version/15.4 Safari/605.1.15",xpyriment,legacy,legacy,0,uniform,0,0,0,0,24,24,24,0,0,2,2,2,2,2,0,2,0,,,,,,0,,27-03-22,27-03-22,17:05:10,Wed Apr 27 2022 17:05:10 GMT+0200 (CEST),The main experiment item,yes,0,0,C:/Users/rrics/Documents/!!ResearchBMECOGSCI/gnet,0,0,0,prototype2.png,no,mono,no,18,no,black,no,no,768,1237,3.5.6,legacy,xpyriment,osweb,1.3.13,IwAR3rcqDdrMMP8LPRIB5LLgNG2Ck9pOLpDnNRed9AQ73dnkhqzkZ4l4vqpAw,0,space,space,space,,29321,5297,29321,,2,legacy,970,1920,24,1080,24,297,40,1920,1651071969738,1024,2,48000,-16,experiment,p3sarr1.png,0,even,MacIntel,93,117404,114399,92,93,166348,167858,161363,118932,161363,93,,,,,,visual_patterns,0,0,0,yes,1366
undefined,undefined,undefined,undefined,white,no,Mozilla,Netscape,"5.0 (Macintosh; Intel Mac OS X 10_15_7) AppleWebKit/605.1.15 (KHTML, like Gecko) Version/15.4 Safari/605.1.15",xpyriment,legacy,legacy,0,uniform,0,0,0,0,24,24,24,0,0,3,3,3,3,3,0,3,0,,,,,,0,,27-03-22,27-03-22,17:05:10,Wed Apr 27 2022 17:05:10 GMT+0200 (CEST),The main experiment item,yes,0,0,C:/Users/rrics/Documents/!!ResearchBMECOGSCI/gnet,0,0,0,prototype2.png,no,mono,no,18,no,black,no,no,768,1237,3.5.6,legacy,xpyriment,osweb,1.3.13,IwAR3rcqDdrMMP8LPRIB5LLgNG2Ck9pOLpDnNRed9AQ73dnkhqzkZ4l4vqpAw,0,space,space,space,,29321,5297,29321,,2,legacy,970,1920,24,1080,24,297,40,1920,1651071969738,1024,2,48000,-16,experiment,p9sarr2.png,0,even,MacIntel,93,117404,114399,92,93,172871,174381,167886,118932,167886,93,,,,,,visual_patterns,0,0,0,yes,1366
undefined,undefined,undefined,undefined,white,no,Mozilla,Netscape,"5.0 (Macintosh; Intel Mac OS X 10_15_7) AppleWebKit/605.1.15 (KHTML, like Gecko) Version/15.4 Safari/605.1.15",xpyriment,legacy,legacy,0,uniform,0,0,0,0,24,24,24,0,0,4,4,4,4,4,0,4,0,,,,,,0,,27-03-22,27-03-22,17:05:10,Wed Apr 27 2022 17:05:10 GMT+0200 (CEST),The main experiment item,yes,0,0,C:/Users/rrics/Documents/!!ResearchBMECOGSCI/gnet,0,0,0,prototype2.png,no,mono,no,18,no,black,no,no,768,1237,3.5.6,legacy,xpyriment,osweb,1.3.13,IwAR3rcqDdrMMP8LPRIB5LLgNG2Ck9pOLpDnNRed9AQ73dnkhqzkZ4l4vqpAw,0,space,space,space,,29321,5297,29321,,2,legacy,970,1920,24,1080,24,297,40,1920,1651071969738,1024,2,48000,-16,experiment,p4sarr2.png,0,even,MacIntel,93,117404,114399,92,93,179398,180905,174410,118932,174410,93,,,,,,visual_patterns,0,0,0,yes,1366
undefined,undefined,undefined,undefined,white,no,Mozilla,Netscape,"5.0 (Macintosh; Intel Mac OS X 10_15_7) AppleWebKit/605.1.15 (KHTML, like Gecko) Version/15.4 Safari/605.1.15",xpyriment,legacy,legacy,0,uniform,0,0,0,0,24,24,24,0,0,5,5,5,5,5,0,5,0,,,,,,0,,27-03-22,27-03-22,17:05:10,Wed Apr 27 2022 17:05:10 GMT+0200 (CEST),The main experiment item,yes,0,0,C:/Users/rrics/Documents/!!ResearchBMECOGSCI/gnet,0,0,0,prototype2.png,no,mono,no,18,no,black,no,no,768,1237,3.5.6,legacy,xpyriment,osweb,1.3.13,IwAR3rcqDdrMMP8LPRIB5LLgNG2Ck9pOLpDnNRed9AQ73dnkhqzkZ4l4vqpAw,0,space,space,space,,29321,5297,29321,,2,legacy,970,1920,24,1080,24,297,40,1920,1651071969738,1024,2,48000,-16,experiment,p4sarrshacol2.png,0,even,MacIntel,93,117404,114399,92,93,185922,187429,180933,118932,180933,93,,,,,,visual_patterns,0,0,0,yes,1366
undefined,undefined,undefined,undefined,white,no,Mozilla,Netscape,"5.0 (Macintosh; Intel Mac OS X 10_15_7) AppleWebKit/605.1.15 (KHTML, like Gecko) Version/15.4 Safari/605.1.15",xpyriment,legacy,legacy,0,uniform,0,0,0,0,24,24,24,0,0,6,6,6,6,6,0,6,0,,,,,,0,,27-03-22,27-03-22,17:05:10,Wed Apr 27 2022 17:05:10 GMT+0200 (CEST),The main experiment item,yes,0,0,C:/Users/rrics/Documents/!!ResearchBMECOGSCI/gnet,0,0,0,prototype2.png,no,mono,no,18,no,black,no,no,768,1237,3.5.6,legacy,xpyriment,osweb,1.3.13,IwAR3rcqDdrMMP8LPRIB5LLgNG2Ck9pOLpDnNRed9AQ73dnkhqzkZ4l4vqpAw,0,space,space,space,,29321,5297,29321,,2,legacy,970,1920,24,1080,24,297,40,1920,1651071969738,1024,2,48000,-16,experiment,p5sarrsha2.png,0,even,MacIntel,93,117404,114399,92,93,192445,193953,187461,118932,187460,93,,,,,,visual_patterns,0,0,0,yes,1366
undefined,undefined,undefined,undefined,white,no,Mozilla,Netscape,"5.0 (Macintosh; Intel Mac OS X 10_15_7) AppleWebKit/605.1.15 (KHTML, like Gecko) Version/15.4 Safari/605.1.15",xpyriment,legacy,legacy,0,uniform,0,0,0,0,24,24,24,0,0,7,7,7,7,7,0,7,0,,,,,,0,,27-03-22,27-03-22,17:05:10,Wed Apr 27 2022 17:05:10 GMT+0200 (CEST),The main experiment item,yes,0,0,C:/Users/rrics/Documents/!!ResearchBMECOGSCI/gnet,0,0,0,prototype2.png,no,mono,no,18,no,black,no,no,768,1237,3.5.6,legacy,xpyriment,osweb,1.3.13,IwAR3rcqDdrMMP8LPRIB5LLgNG2Ck9pOLpDnNRed9AQ73dnkhqzkZ4l4vqpAw,0,space,space,space,,29321,5297,29321,,2,legacy,970,1920,24,1080,24,297,40,1920,1651071969738,1024,2,48000,-16,experiment,p2sarr1.png,0,even,MacIntel,93,117404,114399,92,93,198967,200478,193982,118932,193982,93,,,,,,visual_patterns,0,0,0,yes,1366
undefined,undefined,undefined,undefined,white,no,Mozilla,Netscape,"5.0 (Macintosh; Intel Mac OS X 10_15_7) AppleWebKit/605.1.15 (KHTML, like Gecko) Version/15.4 Safari/605.1.15",xpyriment,legacy,legacy,0,uniform,0,0,0,0,24,24,24,0,0,8,8,8,8,8,0,8,0,,,,,,0,,27-03-22,27-03-22,17:05:10,Wed Apr 27 2022 17:05:10 GMT+0200 (CEST),The main experiment item,yes,0,0,C:/Users/rrics/Documents/!!ResearchBMECOGSCI/gnet,0,0,0,prototype2.png,no,mono,no,18,no,black,no,no,768,1237,3.5.6,legacy,xpyriment,osweb,1.3.13,IwAR3rcqDdrMMP8LPRIB5LLgNG2Ck9pOLpDnNRed9AQ73dnkhqzkZ4l4vqpAw,0,space,space,space,,29321,5297,29321,,2,legacy,970,1920,24,1080,24,297,40,1920,1651071969738,1024,2,48000,-16,experiment,prototype4.png,0,even,MacIntel,93,117404,114399,92,93,205496,207000,200509,118932,200509,93,,,,,,visual_patterns,0,0,0,yes,1366
undefined,undefined,undefined,undefined,white,no,Mozilla,Netscape,"5.0 (Macintosh; Intel Mac OS X 10_15_7) AppleWebKit/605.1.15 (KHTML, like Gecko) Version/15.4 Safari/605.1.15",xpyriment,legacy,legacy,0,uniform,0,0,0,0,24,24,24,0,0,9,9,9,9,9,0,9,0,,,,,,0,,27-03-22,27-03-22,17:05:10,Wed Apr 27 2022 17:05:10 GMT+0200 (CEST),The main experiment item,yes,0,0,C:/Users/rrics/Documents/!!ResearchBMECOGSCI/gnet,0,0,0,prototype2.png,no,mono,no,18,no,black,no,no,768,1237,3.5.6,legacy,xpyriment,osweb,1.3.13,IwAR3rcqDdrMMP8LPRIB5LLgNG2Ck9pOLpDnNRed9AQ73dnkhqzkZ4l4vqpAw,0,space,space,space,,29321,5297,29321,,2,legacy,970,1920,24,1080,24,297,40,1920,1651071969738,1024,2,48000,-16,experiment,p5sarrsha1.png,0,even,MacIntel,93,117404,114399,92,93,212011,213524,207027,118932,207027,93,,,,,,visual_patterns,0,0,0,yes,1366
undefined,undefined,undefined,undefined,white,no,Mozilla,Netscape,"5.0 (Macintosh; Intel Mac OS X 10_15_7) AppleWebKit/605.1.15 (KHTML, like Gecko) Version/15.4 Safari/605.1.15",xpyriment,legacy,legacy,0,uniform,0,0,0,0,24,24,24,0,0,10,10,10,10,10,0,10,0,,,,,,0,,27-03-22,27-03-22,17:05:10,Wed Apr 27 2022 17:05:10 GMT+0200 (CEST),The main experiment item,yes,0,0,C:/Users/rrics/Documents/!!ResearchBMECOGSCI/gnet,0,0,0,prototype2.png,no,mono,no,18,no,black,no,no,768,1237,3.5.6,legacy,xpyriment,osweb,1.3.13,IwAR3rcqDdrMMP8LPRIB5LLgNG2Ck9pOLpDnNRed9AQ73dnkhqzkZ4l4vqpAw,0,space,space,space,,29321,5297,29321,,2,legacy,970,1920,24,1080,24,297,40,1920,1651071969738,1024,2,48000,-16,experiment,p5sarrcol1.png,0,even,MacIntel,93,117404,114399,92,93,218538,220048,213555,118932,213555,93,,,,,,visual_patterns,0,0,0,yes,1366
undefined,undefined,undefined,undefined,white,no,Mozilla,Netscape,"5.0 (Macintosh; Intel Mac OS X 10_15_7) AppleWebKit/605.1.15 (KHTML, like Gecko) Version/15.4 Safari/605.1.15",xpyriment,legacy,legacy,0,uniform,0,0,0,0,24,24,24,0,0,11,11,11,11,11,0,11,0,,,,,,0,,27-03-22,27-03-22,17:05:10,Wed Apr 27 2022 17:05:10 GMT+0200 (CEST),The main experiment item,yes,0,0,C:/Users/rrics/Documents/!!ResearchBMECOGSCI/gnet,0,0,0,prototype2.png,no,mono,no,18,no,black,no,no,768,1237,3.5.6,legacy,xpyriment,osweb,1.3.13,IwAR3rcqDdrMMP8LPRIB5LLgNG2Ck9pOLpDnNRed9AQ73dnkhqzkZ4l4vqpAw,0,space,space,space,,29321,5297,29321,,2,legacy,970,1920,24,1080,24,297,40,1920,1651071969738,1024,2,48000,-16,experiment,p8sarr2.png,0,even,MacIntel,93,117404,114399,92,93,225059,226572,220075,118932,220075,93,,,,,,visual_patterns,0,0,0,yes,1366
undefined,undefined,undefined,undefined,white,no,Mozilla,Netscape,"5.0 (Macintosh; Intel Mac OS X 10_15_7) AppleWebKit/605.1.15 (KHTML, like Gecko) Version/15.4 Safari/605.1.15",xpyriment,legacy,legacy,0,uniform,0,0,0,0,24,24,24,0,0,12,12,12,12,12,0,12,0,,,,,,0,,27-03-22,27-03-22,17:05:10,Wed Apr 27 2022 17:05:10 GMT+0200 (CEST),The main experiment item,yes,0,0,C:/Users/rrics/Documents/!!ResearchBMECOGSCI/gnet,0,0,0,prototype2.png,no,mono,no,18,no,black,no,no,768,1237,3.5.6,legacy,xpyriment,osweb,1.3.13,IwAR3rcqDdrMMP8LPRIB5LLgNG2Ck9pOLpDnNRed9AQ73dnkhqzkZ4l4vqpAw,0,space,space,space,,29321,5297,29321,,2,legacy,970,1920,24,1080,24,297,40,1920,1651071969738,1024,2,48000,-16,experiment,p5sarrshacol2.png,0,even,MacIntel,93,117404,114399,92,93,231586,233095,226599,118932,226599,93,,,,,,visual_patterns,0,0,0,yes,1366
undefined,undefined,undefined,undefined,white,no,Mozilla,Netscape,"5.0 (Macintosh; Intel Mac OS X 10_15_7) AppleWebKit/605.1.15 (KHTML, like Gecko) Version/15.4 Safari/605.1.15",xpyriment,legacy,legacy,0,uniform,0,0,0,0,24,24,24,0,0,13,13,13,13,13,0,13,0,,,,,,0,,27-03-22,27-03-22,17:05:10,Wed Apr 27 2022 17:05:10 GMT+0200 (CEST),The main experiment item,yes,0,0,C:/Users/rrics/Documents/!!ResearchBMECOGSCI/gnet,0,0,0,prototype2.png,no,mono,no,18,no,black,no,no,768,1237,3.5.6,legacy,xpyriment,osweb,1.3.13,IwAR3rcqDdrMMP8LPRIB5LLgNG2Ck9pOLpDnNRed9AQ73dnkhqzkZ4l4vqpAw,0,space,space,space,,29321,5297,29321,,2,legacy,970,1920,24,1080,24,297,40,1920,1651071969738,1024,2,48000,-16,experiment,p8sarr1.png,0,even,MacIntel,93,117404,114399,92,93,238110,239620,233121,118932,233121,93,,,,,,visual_patterns,0,0,0,yes,1366
undefined,undefined,undefined,undefined,white,no,Mozilla,Netscape,"5.0 (Macintosh; Intel Mac OS X 10_15_7) AppleWebKit/605.1.15 (KHTML, like Gecko) Version/15.4 Safari/605.1.15",xpyriment,legacy,legacy,0,uniform,0,0,0,0,24,24,24,0,0,14,14,14,14,14,0,14,0,,,,,,0,,27-03-22,27-03-22,17:05:10,Wed Apr 27 2022 17:05:10 GMT+0200 (CEST),The main experiment item,yes,0,0,C:/Users/rrics/Documents/!!ResearchBMECOGSCI/gnet,0,0,0,prototype2.png,no,mono,no,18,no,black,no,no,768,1237,3.5.6,legacy,xpyriment,osweb,1.3.13,IwAR3rcqDdrMMP8LPRIB5LLgNG2Ck9pOLpDnNRed9AQ73dnkhqzkZ4l4vqpAw,0,space,space,space,,29321,5297,29321,,2,legacy,970,1920,24,1080,24,297,40,1920,1651071969738,1024,2,48000,-16,experiment,p3sarrcol1.png,0,even,MacIntel,93,117404,114399,92,93,244637,246144,239652,118932,239652,93,,,,,,visual_patterns,0,0,0,yes,1366
undefined,undefined,undefined,undefined,white,no,Mozilla,Netscape,"5.0 (Macintosh; Intel Mac OS X 10_15_7) AppleWebKit/605.1.15 (KHTML, like Gecko) Version/15.4 Safari/605.1.15",xpyriment,legacy,legacy,0,uniform,0,0,0,0,24,24,24,0,0,15,15,15,15,15,0,15,0,,,,,,0,,27-03-22,27-03-22,17:05:10,Wed Apr 27 2022 17:05:10 GMT+0200 (CEST),The main experiment item,yes,0,0,C:/Users/rrics/Documents/!!ResearchBMECOGSCI/gnet,0,0,0,prototype2.png,no,mono,no,18,no,black,no,no,768,1237,3.5.6,legacy,xpyriment,osweb,1.3.13,IwAR3rcqDdrMMP8LPRIB5LLgNG2Ck9pOLpDnNRed9AQ73dnkhqzkZ4l4vqpAw,0,space,space,space,,29321,5297,29321,,2,legacy,970,1920,24,1080,24,297,40,1920,1651071969738,1024,2,48000,-16,experiment,prototype1.png,0,even,MacIntel,93,117404,114399,92,93,251156,252668,246170,118932,246170,93,,,,,,visual_patterns,0,0,0,yes,1366
undefined,undefined,undefined,undefined,white,no,Mozilla,Netscape,"5.0 (Macintosh; Intel Mac OS X 10_15_7) AppleWebKit/605.1.15 (KHTML, like Gecko) Version/15.4 Safari/605.1.15",xpyriment,legacy,legacy,0,uniform,0,0,0,0,24,24,24,0,0,16,16,16,16,16,0,16,0,,,,,,0,,27-03-22,27-03-22,17:05:10,Wed Apr 27 2022 17:05:10 GMT+0200 (CEST),The main experiment item,yes,0,0,C:/Users/rrics/Documents/!!ResearchBMECOGSCI/gnet,0,0,0,prototype2.png,no,mono,no,18,no,black,no,no,768,1237,3.5.6,legacy,xpyriment,osweb,1.3.13,IwAR3rcqDdrMMP8LPRIB5LLgNG2Ck9pOLpDnNRed9AQ73dnkhqzkZ4l4vqpAw,0,space,space,space,,29321,5297,29321,,2,legacy,970,1920,24,1080,24,297,40,1920,1651071969738,1024,2,48000,-16,experiment,p2sarr2.png,0,even,MacIntel,93,117404,114399,92,93,257684,259192,252697,118932,252696,93,,,,,,visual_patterns,0,0,0,yes,1366
undefined,undefined,undefined,undefined,white,no,Mozilla,Netscape,"5.0 (Macintosh; Intel Mac OS X 10_15_7) AppleWebKit/605.1.15 (KHTML, like Gecko) Version/15.4 Safari/605.1.15",xpyriment,legacy,legacy,0,uniform,0,0,0,0,24,24,24,0,0,17,17,17,17,17,0,17,0,,,,,,0,,27-03-22,27-03-22,17:05:10,Wed Apr 27 2022 17:05:10 GMT+0200 (CEST),The main experiment item,yes,0,0,C:/Users/rrics/Documents/!!ResearchBMECOGSCI/gnet,0,0,0,prototype2.png,no,mono,no,18,no,black,no,no,768,1237,3.5.6,legacy,xpyriment,osweb,1.3.13,IwAR3rcqDdrMMP8LPRIB5LLgNG2Ck9pOLpDnNRed9AQ73dnkhqzkZ4l4vqpAw,0,space,space,space,,29321,5297,29321,,2,legacy,970,1920,24,1080,24,297,40,1920,1651071969738,1024,2,48000,-16,experiment,p3sarrsha2.png,0,even,MacIntel,93,117404,114399,92,93,264206,265716,259220,118932,259220,93,,,,,,visual_patterns,0,0,0,yes,1366
undefined,undefined,undefined,undefined,white,no,Mozilla,Netscape,"5.0 (Macintosh; Intel Mac OS X 10_15_7) AppleWebKit/605.1.15 (KHTML, like Gecko) Version/15.4 Safari/605.1.15",xpyriment,legacy,legacy,0,uniform,0,0,0,0,24,24,24,0,0,18,18,18,18,18,0,18,0,,,,,,0,,27-03-22,27-03-22,17:05:10,Wed Apr 27 2022 17:05:10 GMT+0200 (CEST),The main experiment item,yes,0,0,C:/Users/rrics/Documents/!!ResearchBMECOGSCI/gnet,0,0,0,prototype2.png,no,mono,no,18,no,black,no,no,768,1237,3.5.6,legacy,xpyriment,osweb,1.3.13,IwAR3rcqDdrMMP8LPRIB5LLgNG2Ck9pOLpDnNRed9AQ73dnkhqzkZ4l4vqpAw,0,space,space,space,,29321,5297,29321,,2,legacy,970,1920,24,1080,24,297,40,1920,1651071969738,1024,2,48000,-16,experiment,prototype4.png,0,even,MacIntel,93,117404,114399,92,93,270727,272240,265742,118932,265741,93,,,,,,visual_patterns,0,0,0,yes,1366
undefined,undefined,undefined,undefined,white,no,Mozilla,Netscape,"5.0 (Macintosh; Intel Mac OS X 10_15_7) AppleWebKit/605.1.15 (KHTML, like Gecko) Version/15.4 Safari/605.1.15",xpyriment,legacy,legacy,0,uniform,0,0,0,0,24,24,24,0,0,19,19,19,19,19,0,19,0,,,,,,0,,27-03-22,27-03-22,17:05:10,Wed Apr 27 2022 17:05:10 GMT+0200 (CEST),The main experiment item,yes,0,0,C:/Users/rrics/Documents/!!ResearchBMECOGSCI/gnet,0,0,0,prototype2.png,no,mono,no,18,no,black,no,no,768,1237,3.5.6,legacy,xpyriment,osweb,1.3.13,IwAR3rcqDdrMMP8LPRIB5LLgNG2Ck9pOLpDnNRed9AQ73dnkhqzkZ4l4vqpAw,0,space,space,space,,29321,5297,29321,,2,legacy,970,1920,24,1080,24,297,40,1920,1651071969738,1024,2,48000,-16,experiment,p3sarrsha1.png,0,even,MacIntel,93,117404,114399,92,93,277258,278763,272271,118932,272271,93,,,,,,visual_patterns,0,0,0,yes,1366
undefined,undefined,undefined,undefined,white,no,Mozilla,Netscape,"5.0 (Macintosh; Intel Mac OS X 10_15_7) AppleWebKit/605.1.15 (KHTML, like Gecko) Version/15.4 Safari/605.1.15",xpyriment,legacy,legacy,0,uniform,0,0,0,0,24,24,24,0,0,20,20,20,20,20,0,20,0,,,,,,0,,27-03-22,27-03-22,17:05:10,Wed Apr 27 2022 17:05:10 GMT+0200 (CEST),The main experiment item,yes,0,0,C:/Users/rrics/Documents/!!ResearchBMECOGSCI/gnet,0,0,0,prototype2.png,no,mono,no,18,no,black,no,no,768,1237,3.5.6,legacy,xpyriment,osweb,1.3.13,IwAR3rcqDdrMMP8LPRIB5LLgNG2Ck9pOLpDnNRed9AQ73dnkhqzkZ4l4vqpAw,0,space,space,space,,29321,5297,29321,,2,legacy,970,1920,24,1080,24,297,40,1920,1651071969738,1024,2,48000,-16,experiment,prototype2.png,0,even,MacIntel,93,117404,114399,92,93,283775,285286,278787,118932,278787,93,,,,,,visual_patterns,0,0,0,yes,1366
undefined,undefined,undefined,undefined,white,no,Mozilla,Netscape,"5.0 (Macintosh; Intel Mac OS X 10_15_7) AppleWebKit/605.1.15 (KHTML, like Gecko) Version/15.4 Safari/605.1.15",xpyriment,legacy,legacy,0,uniform,0,0,0,0,24,24,24,0,0,21,21,21,21,21,0,21,0,,,,,,0,,27-03-22,27-03-22,17:05:10,Wed Apr 27 2022 17:05:10 GMT+0200 (CEST),The main experiment item,yes,0,0,C:/Users/rrics/Documents/!!ResearchBMECOGSCI/gnet,0,0,0,prototype2.png,no,mono,no,18,no,black,no,no,768,1237,3.5.6,legacy,xpyriment,osweb,1.3.13,IwAR3rcqDdrMMP8LPRIB5LLgNG2Ck9pOLpDnNRed9AQ73dnkhqzkZ4l4vqpAw,0,space,space,space,,29321,5297,29321,,2,legacy,970,1920,24,1080,24,297,40,1920,1651071969738,1024,2,48000,-16,experiment,p4sarrcol2.png,0,even,MacIntel,93,117404,114399,92,93,290302,291810,285315,118932,285315,93,,,,,,visual_patterns,0,0,0,yes,1366
undefined,undefined,undefined,undefined,white,no,Mozilla,Netscape,"5.0 (Macintosh; Intel Mac OS X 10_15_7) AppleWebKit/605.1.15 (KHTML, like Gecko) Version/15.4 Safari/605.1.15",xpyriment,legacy,legacy,0,uniform,0,0,0,0,24,24,24,0,0,22,22,22,22,22,0,22,0,,,,,,0,,27-03-22,27-03-22,17:05:10,Wed Apr 27 2022 17:05:10 GMT+0200 (CEST),The main experiment item,yes,0,0,C:/Users/rrics/Documents/!!ResearchBMECOGSCI/gnet,0,0,0,prototype2.png,no,mono,no,18,no,black,no,no,768,1237,3.5.6,legacy,xpyriment,osweb,1.3.13,IwAR3rcqDdrMMP8LPRIB5LLgNG2Ck9pOLpDnNRed9AQ73dnkhqzkZ4l4vqpAw,0,space,space,space,,29321,5297,29321,,2,legacy,970,1920,24,1080,24,297,40,1920,1651071969738,1024,2,48000,-16,experiment,p5sarrshacol1.png,0,even,MacIntel,93,117404,114399,92,93,296827,298335,291841,118932,291841,93,,,,,,visual_patterns,0,0,0,yes,1366
undefined,undefined,undefined,undefined,white,no,Mozilla,Netscape,"5.0 (Macintosh; Intel Mac OS X 10_15_7) AppleWebKit/605.1.15 (KHTML, like Gecko) Version/15.4 Safari/605.1.15",xpyriment,legacy,legacy,0,uniform,0,0,0,0,24,24,24,0,0,23,23,23,23,23,0,23,0,,,,,,0,,27-03-22,27-03-22,17:05:10,Wed Apr 27 2022 17:05:10 GMT+0200 (CEST),The main experiment item,yes,0,0,C:/Users/rrics/Documents/!!ResearchBMECOGSCI/gnet,0,0,0,prototype2.png,no,mono,no,18,no,black,no,no,768,1237,3.5.6,legacy,xpyriment,osweb,1.3.13,IwAR3rcqDdrMMP8LPRIB5LLgNG2Ck9pOLpDnNRed9AQ73dnkhqzkZ4l4vqpAw,0,space,space,space,,29321,5297,29321,,2,legacy,970,1920,24,1080,24,297,40,1920,1651071969738,1024,2,48000,-16,experiment,prototype2.png,0,even,MacIntel,93,117404,114399,92,93,303346,304858,298359,118932,298359,93,,,,,,visual_patterns,0,0,0,yes,1366
undefined,undefined,undefined,undefined,white,no,Mozilla,Netscape,"5.0 (Macintosh; Intel Mac OS X 10_15_7) AppleWebKit/605.1.15 (KHTML, like Gecko) Version/15.4 Safari/605.1.15",xpyriment,legacy,legacy,0,uniform,0,0,0,0,24,24,24,0,0,24,24,24,24,24,0,24,0,,,,,,0,,27-03-22,27-03-22,17:05:10,Wed Apr 27 2022 17:05:10 GMT+0200 (CEST),The main experiment item,yes,0,0,C:/Users/rrics/Documents/!!ResearchBMECOGSCI/gnet,0,0,0,prototype2.png,no,mono,no,18,no,black,no,no,768,1237,3.5.6,legacy,xpyriment,osweb,1.3.13,IwAR3rcqDdrMMP8LPRIB5LLgNG2Ck9pOLpDnNRed9AQ73dnkhqzkZ4l4vqpAw,0,space,space,space,,29321,5297,29321,,2,legacy,970,1920,24,1080,24,297,40,1920,1651071969738,1024,2,48000,-16,experiment,p4sarrsha2.png,0,even,MacIntel,93,117404,114399,92,93,309873,311383,304887,118932,304887,93,,,,,,visual_patterns,0,0,0,yes,1366
undefined,undefined,undefined,undefined,white,no,Mozilla,Netscape,"5.0 (Macintosh; Intel Mac OS X 10_15_7) AppleWebKit/605.1.15 (KHTML, like Gecko) Version/15.4 Safari/605.1.15",xpyriment,legacy,legacy,0,uniform,0,0,0,0,24,24,24,0,0,25,25,25,25,25,0,25,0,,,,,,0,,27-03-22,27-03-22,17:05:10,Wed Apr 27 2022 17:05:10 GMT+0200 (CEST),The main experiment item,yes,0,0,C:/Users/rrics/Documents/!!ResearchBMECOGSCI/gnet,0,0,0,prototype2.png,no,mono,no,18,no,black,no,no,768,1237,3.5.6,legacy,xpyriment,osweb,1.3.13,IwAR3rcqDdrMMP8LPRIB5LLgNG2Ck9pOLpDnNRed9AQ73dnkhqzkZ4l4vqpAw,0,space,space,space,,29321,5297,29321,,2,legacy,970,1920,24,1080,24,297,40,1920,1651071969738,1024,2,48000,-16,experiment,p9sarr1.png,0,even,MacIntel,93,117404,114399,92,93,316399,317907,311415,118932,311415,93,,,,,,visual_patterns,0,0,0,yes,1366
undefined,undefined,undefined,undefined,white,no,Mozilla,Netscape,"5.0 (Macintosh; Intel Mac OS X 10_15_7) AppleWebKit/605.1.15 (KHTML, like Gecko) Version/15.4 Safari/605.1.15",xpyriment,legacy,legacy,0,uniform,0,0,0,0,24,24,24,0,0,26,26,26,26,26,0,26,0,,,,,,0,,27-03-22,27-03-22,17:05:10,Wed Apr 27 2022 17:05:10 GMT+0200 (CEST),The main experiment item,yes,0,0,C:/Users/rrics/Documents/!!ResearchBMECOGSCI/gnet,0,0,0,prototype2.png,no,mono,no,18,no,black,no,no,768,1237,3.5.6,legacy,xpyriment,osweb,1.3.13,IwAR3rcqDdrMMP8LPRIB5LLgNG2Ck9pOLpDnNRed9AQ73dnkhqzkZ4l4vqpAw,0,space,space,space,,29321,5297,29321,,2,legacy,970,1920,24,1080,24,297,40,1920,1651071969738,1024,2,48000,-16,experiment,prototype1.png,0,even,MacIntel,93,117404,114399,92,93,322919,324430,317931,118932,317931,93,,,,,,visual_patterns,0,0,0,yes,1366
undefined,undefined,undefined,undefined,white,no,Mozilla,Netscape,"5.0 (Macintosh; Intel Mac OS X 10_15_7) AppleWebKit/605.1.15 (KHTML, like Gecko) Version/15.4 Safari/605.1.15",xpyriment,legacy,legacy,0,uniform,0,0,0,0,24,24,24,0,0,27,27,27,27,27,0,27,0,,,,,,0,,27-03-22,27-03-22,17:05:10,Wed Apr 27 2022 17:05:10 GMT+0200 (CEST),The main experiment item,yes,0,0,C:/Users/rrics/Documents/!!ResearchBMECOGSCI/gnet,0,0,0,prototype2.png,no,mono,no,18,no,black,no,no,768,1237,3.5.6,legacy,xpyriment,osweb,1.3.13,IwAR3rcqDdrMMP8LPRIB5LLgNG2Ck9pOLpDnNRed9AQ73dnkhqzkZ4l4vqpAw,0,space,space,space,,29321,5297,29321,,2,legacy,970,1920,24,1080,24,297,40,1920,1651071969738,1024,2,48000,-16,experiment,p4sarrcol1.png,0,even,MacIntel,93,117404,114399,92,93,329453,330954,324466,118932,324466,93,,,,,,visual_patterns,0,0,0,yes,1366
undefined,undefined,undefined,undefined,white,no,Mozilla,Netscape,"5.0 (Macintosh; Intel Mac OS X 10_15_7) AppleWebKit/605.1.15 (KHTML, like Gecko) Version/15.4 Safari/605.1.15",xpyriment,legacy,legacy,0,uniform,0,0,0,0,24,24,24,0,0,28,28,28,28,28,0,28,0,,,,,,0,,27-03-22,27-03-22,17:05:10,Wed Apr 27 2022 17:05:10 GMT+0200 (CEST),The main experiment item,yes,0,0,C:/Users/rrics/Documents/!!ResearchBMECOGSCI/gnet,0,0,0,prototype2.png,no,mono,no,18,no,black,no,no,768,1237,3.5.6,legacy,xpyriment,osweb,1.3.13,IwAR3rcqDdrMMP8LPRIB5LLgNG2Ck9pOLpDnNRed9AQ73dnkhqzkZ4l4vqpAw,0,space,space,space,,29321,5297,29321,,2,legacy,970,1920,24,1080,24,297,40,1920,1651071969738,1024,2,48000,-16,experiment,prototype4.png,0,even,MacIntel,93,117404,114399,92,93,335963,337478,330979,118932,330979,93,,,,,,visual_patterns,0,0,0,yes,1366
undefined,undefined,undefined,undefined,white,no,Mozilla,Netscape,"5.0 (Macintosh; Intel Mac OS X 10_15_7) AppleWebKit/605.1.15 (KHTML, like Gecko) Version/15.4 Safari/605.1.15",xpyriment,legacy,legacy,0,uniform,0,0,0,0,24,24,24,0,0,29,29,29,29,29,0,29,0,,,,,,0,,27-03-22,27-03-22,17:05:10,Wed Apr 27 2022 17:05:10 GMT+0200 (CEST),The main experiment item,yes,0,0,C:/Users/rrics/Documents/!!ResearchBMECOGSCI/gnet,0,0,0,prototype2.png,no,mono,no,18,no,black,no,no,768,1237,3.5.6,legacy,xpyriment,osweb,1.3.13,IwAR3rcqDdrMMP8LPRIB5LLgNG2Ck9pOLpDnNRed9AQ73dnkhqzkZ4l4vqpAw,0,space,space,space,,29321,5297,29321,,2,legacy,970,1920,24,1080,24,297,40,1920,1651071969738,1024,2,48000,-16,experiment,prototype5.png,0,even,MacIntel,93,117404,114399,92,93,342493,344002,337504,118932,337504,93,,,,,,visual_patterns,0,0,0,yes,1366
undefined,undefined,undefined,undefined,white,no,Mozilla,Netscape,"5.0 (Macintosh; Intel Mac OS X 10_15_7) AppleWebKit/605.1.15 (KHTML, like Gecko) Version/15.4 Safari/605.1.15",xpyriment,legacy,legacy,0,uniform,0,0,0,0,24,24,24,0,0,30,30,30,30,30,0,30,0,,,,,,0,,27-03-22,27-03-22,17:05:10,Wed Apr 27 2022 17:05:10 GMT+0200 (CEST),The main experiment item,yes,0,0,C:/Users/rrics/Documents/!!ResearchBMECOGSCI/gnet,0,0,0,prototype2.png,no,mono,no,18,no,black,no,no,768,1237,3.5.6,legacy,xpyriment,osweb,1.3.13,IwAR3rcqDdrMMP8LPRIB5LLgNG2Ck9pOLpDnNRed9AQ73dnkhqzkZ4l4vqpAw,0,space,space,space,,29321,5297,29321,,2,legacy,970,1920,24,1080,24,297,40,1920,1651071969738,1024,2,48000,-16,experiment,p5sarrcol2.png,0,even,MacIntel,93,117404,114399,92,93,349013,350526,344029,118932,344028,93,,,,,,visual_patterns,0,0,0,yes,1366
undefined,undefined,undefined,undefined,white,no,Mozilla,Netscape,"5.0 (Macintosh; Intel Mac OS X 10_15_7) AppleWebKit/605.1.15 (KHTML, like Gecko) Version/15.4 Safari/605.1.15",xpyriment,legacy,legacy,0,uniform,0,0,0,0,24,24,24,0,0,31,31,31,31,31,0,31,0,,,,,,0,,27-03-22,27-03-22,17:05:10,Wed Apr 27 2022 17:05:10 GMT+0200 (CEST),The main experiment item,yes,0,0,C:/Users/rrics/Documents/!!ResearchBMECOGSCI/gnet,0,0,0,prototype2.png,no,mono,no,18,no,black,no,no,768,1237,3.5.6,legacy,xpyriment,osweb,1.3.13,IwAR3rcqDdrMMP8LPRIB5LLgNG2Ck9pOLpDnNRed9AQ73dnkhqzkZ4l4vqpAw,0,space,space,space,,29321,5297,29321,,2,legacy,970,1920,24,1080,24,297,40,1920,1651071969738,1024,2,48000,-16,experiment,p2sarrsha2.png,0,even,MacIntel,93,117404,114399,92,93,355537,357050,350552,118932,350551,93,,,,,,visual_patterns,0,0,0,yes,1366
undefined,undefined,undefined,undefined,white,no,Mozilla,Netscape,"5.0 (Macintosh; Intel Mac OS X 10_15_7) AppleWebKit/605.1.15 (KHTML, like Gecko) Version/15.4 Safari/605.1.15",xpyriment,legacy,legacy,0,uniform,0,0,0,0,24,24,24,0,0,32,32,32,32,32,0,32,0,,,,,,0,,27-03-22,27-03-22,17:05:10,Wed Apr 27 2022 17:05:10 GMT+0200 (CEST),The main experiment item,yes,0,0,C:/Users/rrics/Documents/!!ResearchBMECOGSCI/gnet,0,0,0,prototype2.png,no,mono,no,18,no,black,no,no,768,1237,3.5.6,legacy,xpyriment,osweb,1.3.13,IwAR3rcqDdrMMP8LPRIB5LLgNG2Ck9pOLpDnNRed9AQ73dnkhqzkZ4l4vqpAw,0,space,space,space,,29321,5297,29321,,2,legacy,970,1920,24,1080,24,297,40,1920,1651071969738,1024,2,48000,-16,experiment,p5sarr1.png,0,even,MacIntel,93,117404,114399,92,93,362068,363574,357082,118932,357081,93,,,,,,visual_patterns,0,0,0,yes,1366
undefined,undefined,undefined,undefined,white,no,Mozilla,Netscape,"5.0 (Macintosh; Intel Mac OS X 10_15_7) AppleWebKit/605.1.15 (KHTML, like Gecko) Version/15.4 Safari/605.1.15",xpyriment,legacy,legacy,0,uniform,0,0,0,0,24,24,24,0,0,33,33,33,33,33,0,33,0,,,,,,0,,27-03-22,27-03-22,17:05:10,Wed Apr 27 2022 17:05:10 GMT+0200 (CEST),The main experiment item,yes,0,0,C:/Users/rrics/Documents/!!ResearchBMECOGSCI/gnet,0,0,0,prototype2.png,no,mono,no,18,no,black,no,no,768,1237,3.5.6,legacy,xpyriment,osweb,1.3.13,IwAR3rcqDdrMMP8LPRIB5LLgNG2Ck9pOLpDnNRed9AQ73dnkhqzkZ4l4vqpAw,0,space,space,space,,29321,5297,29321,,2,legacy,970,1920,24,1080,24,297,40,1920,1651071969738,1024,2,48000,-16,experiment,p3sarrshacol1.png,0,even,MacIntel,93,117404,114399,92,93,368590,370097,363602,118932,363602,93,,,,,,visual_patterns,0,0,0,yes,1366
undefined,undefined,undefined,undefined,white,no,Mozilla,Netscape,"5.0 (Macintosh; Intel Mac OS X 10_15_7) AppleWebKit/605.1.15 (KHTML, like Gecko) Version/15.4 Safari/605.1.15",xpyriment,legacy,legacy,0,uniform,0,0,0,0,24,24,24,0,0,34,34,34,34,34,0,34,0,,,,,,0,,27-03-22,27-03-22,17:05:10,Wed Apr 27 2022 17:05:10 GMT+0200 (CEST),The main experiment item,yes,0,0,C:/Users/rrics/Documents/!!ResearchBMECOGSCI/gnet,0,0,0,prototype2.png,no,mono,no,18,no,black,no,no,768,1237,3.5.6,legacy,xpyriment,osweb,1.3.13,IwAR3rcqDdrMMP8LPRIB5LLgNG2Ck9pOLpDnNRed9AQ73dnkhqzkZ4l4vqpAw,0,space,space,space,,29321,5297,29321,,2,legacy,970,1920,24,1080,24,297,40,1920,1651071969738,1024,2,48000,-16,experiment,prototype1.png,0,even,MacIntel,93,117404,114399,92,93,375107,376621,370123,118932,370123,93,,,,,,visual_patterns,0,0,0,yes,1366
undefined,undefined,undefined,undefined,white,no,Mozilla,Netscape,"5.0 (Macintosh; Intel Mac OS X 10_15_7) AppleWebKit/605.1.15 (KHTML, like Gecko) Version/15.4 Safari/605.1.15",xpyriment,legacy,legacy,0,uniform,0,0,0,0,24,24,24,0,0,35,35,35,35,35,0,35,0,,,,,,0,,27-03-22,27-03-22,17:05:10,Wed Apr 27 2022 17:05:10 GMT+0200 (CEST),The main experiment item,yes,0,0,C:/Users/rrics/Documents/!!ResearchBMECOGSCI/gnet,0,0,0,prototype2.png,no,mono,no,18,no,black,no,no,768,1237,3.5.6,legacy,xpyriment,osweb,1.3.13,IwAR3rcqDdrMMP8LPRIB5LLgNG2Ck9pOLpDnNRed9AQ73dnkhqzkZ4l4vqpAw,0,space,space,space,,29321,5297,29321,,2,legacy,970,1920,24,1080,24,297,40,1920,1651071969738,1024,2,48000,-16,experiment,p4sarrshacol1.png,0,even,MacIntel,93,117404,114399,92,93,381645,383163,376658,118932,376658,93,,,,,,visual_patterns,0,0,0,yes,1366
undefined,undefined,undefined,undefined,white,no,Mozilla,Netscape,"5.0 (Macintosh; Intel Mac OS X 10_15_7) AppleWebKit/605.1.15 (KHTML, like Gecko) Version/15.4 Safari/605.1.15",xpyriment,legacy,legacy,0,uniform,0,0,0,0,24,24,24,0,0,36,36,36,36,36,0,36,0,,,,,,0,,27-03-22,27-03-22,17:05:10,Wed Apr 27 2022 17:05:10 GMT+0200 (CEST),The main experiment item,yes,0,0,C:/Users/rrics/Documents/!!ResearchBMECOGSCI/gnet,0,0,0,prototype2.png,no,mono,no,18,no,black,no,no,768,1237,3.5.6,legacy,xpyriment,osweb,1.3.13,IwAR3rcqDdrMMP8LPRIB5LLgNG2Ck9pOLpDnNRed9AQ73dnkhqzkZ4l4vqpAw,0,space,space,space,,29321,5297,29321,,2,legacy,970,1920,24,1080,24,297,40,1920,1651071969738,1024,2,48000,-16,experiment,prototype3.png,0,even,MacIntel,93,117404,114399,92,93,388173,389686,383189,118932,383189,93,,,,,,visual_patterns,0,0,0,yes,1366
undefined,undefined,undefined,undefined,white,no,Mozilla,Netscape,"5.0 (Macintosh; Intel Mac OS X 10_15_7) AppleWebKit/605.1.15 (KHTML, like Gecko) Version/15.4 Safari/605.1.15",xpyriment,legacy,legacy,0,uniform,0,0,0,0,24,24,24,0,0,37,37,37,37,37,0,37,0,,,,,,0,,27-03-22,27-03-22,17:05:10,Wed Apr 27 2022 17:05:10 GMT+0200 (CEST),The main experiment item,yes,0,0,C:/Users/rrics/Documents/!!ResearchBMECOGSCI/gnet,0,0,0,prototype2.png,no,mono,no,18,no,black,no,no,768,1237,3.5.6,legacy,xpyriment,osweb,1.3.13,IwAR3rcqDdrMMP8LPRIB5LLgNG2Ck9pOLpDnNRed9AQ73dnkhqzkZ4l4vqpAw,0,space,space,space,,29321,5297,29321,,2,legacy,970,1920,24,1080,24,297,40,1920,1651071969738,1024,2,48000,-16,experiment,prototype3.png,0,even,MacIntel,93,117404,114399,92,93,394697,396210,389711,118932,389711,93,,,,,,visual_patterns,0,0,0,yes,1366
undefined,undefined,undefined,undefined,white,no,Mozilla,Netscape,"5.0 (Macintosh; Intel Mac OS X 10_15_7) AppleWebKit/605.1.15 (KHTML, like Gecko) Version/15.4 Safari/605.1.15",xpyriment,legacy,legacy,0,uniform,0,0,0,0,24,24,24,0,0,38,38,38,38,38,0,38,0,,,,,,0,,27-03-22,27-03-22,17:05:10,Wed Apr 27 2022 17:05:10 GMT+0200 (CEST),The main experiment item,yes,0,0,C:/Users/rrics/Documents/!!ResearchBMECOGSCI/gnet,0,0,0,prototype2.png,no,mono,no,18,no,black,no,no,768,1237,3.5.6,legacy,xpyriment,osweb,1.3.13,IwAR3rcqDdrMMP8LPRIB5LLgNG2Ck9pOLpDnNRed9AQ73dnkhqzkZ4l4vqpAw,0,space,space,space,,29321,5297,29321,,2,legacy,970,1920,24,1080,24,297,40,1920,1651071969738,1024,2,48000,-16,experiment,p7sarr1.png,0,even,MacIntel,93,117404,114399,92,93,401226,402733,396240,118932,396240,93,,,,,,visual_patterns,0,0,0,yes,1366
undefined,undefined,undefined,undefined,white,no,Mozilla,Netscape,"5.0 (Macintosh; Intel Mac OS X 10_15_7) AppleWebKit/605.1.15 (KHTML, like Gecko) Version/15.4 Safari/605.1.15",xpyriment,legacy,legacy,0,uniform,0,0,0,0,24,24,24,0,0,39,39,39,39,39,0,39,0,,,,,,0,,27-03-22,27-03-22,17:05:10,Wed Apr 27 2022 17:05:10 GMT+0200 (CEST),The main experiment item,yes,0,0,C:/Users/rrics/Documents/!!ResearchBMECOGSCI/gnet,0,0,0,prototype2.png,no,mono,no,18,no,black,no,no,768,1237,3.5.6,legacy,xpyriment,osweb,1.3.13,IwAR3rcqDdrMMP8LPRIB5LLgNG2Ck9pOLpDnNRed9AQ73dnkhqzkZ4l4vqpAw,0,space,space,space,,29321,5297,29321,,2,legacy,970,1920,24,1080,24,297,40,1920,1651071969738,1024,2,48000,-16,experiment,p1sarrsha1.png,0,even,MacIntel,93,117404,114399,92,93,407748,409258,402763,118932,402763,93,,,,,,visual_patterns,0,0,0,yes,1366
undefined,undefined,undefined,undefined,white,no,Mozilla,Netscape,"5.0 (Macintosh; Intel Mac OS X 10_15_7) AppleWebKit/605.1.15 (KHTML, like Gecko) Version/15.4 Safari/605.1.15",xpyriment,legacy,legacy,0,uniform,0,0,0,0,24,24,24,0,0,40,40,40,40,40,0,40,0,,,,,,0,,27-03-22,27-03-22,17:05:10,Wed Apr 27 2022 17:05:10 GMT+0200 (CEST),The main experiment item,yes,0,0,C:/Users/rrics/Documents/!!ResearchBMECOGSCI/gnet,0,0,0,prototype2.png,no,mono,no,18,no,black,no,no,768,1237,3.5.6,legacy,xpyriment,osweb,1.3.13,IwAR3rcqDdrMMP8LPRIB5LLgNG2Ck9pOLpDnNRed9AQ73dnkhqzkZ4l4vqpAw,0,space,space,space,,29321,5297,29321,,2,legacy,970,1920,24,1080,24,297,40,1920,1651071969738,1024,2,48000,-16,experiment,prototype5.png,0,even,MacIntel,93,117404,114399,92,93,414273,415780,409286,118932,409285,93,,,,,,visual_patterns,0,0,0,yes,1366
undefined,undefined,undefined,undefined,white,no,Mozilla,Netscape,"5.0 (Macintosh; Intel Mac OS X 10_15_7) AppleWebKit/605.1.15 (KHTML, like Gecko) Version/15.4 Safari/605.1.15",xpyriment,legacy,legacy,0,uniform,0,0,0,0,24,24,24,0,0,41,41,41,41,41,0,41,0,,,,,,0,,27-03-22,27-03-22,17:05:10,Wed Apr 27 2022 17:05:10 GMT+0200 (CEST),The main experiment item,yes,0,0,C:/Users/rrics/Documents/!!ResearchBMECOGSCI/gnet,0,0,0,prototype2.png,no,mono,no,18,no,black,no,no,768,1237,3.5.6,legacy,xpyriment,osweb,1.3.13,IwAR3rcqDdrMMP8LPRIB5LLgNG2Ck9pOLpDnNRed9AQ73dnkhqzkZ4l4vqpAw,0,space,space,space,,29321,5297,29321,,2,legacy,970,1920,24,1080,24,297,40,1920,1651071969738,1024,2,48000,-16,experiment,p3sarrshacol2.png,0,even,MacIntel,93,117404,114399,92,93,420795,422305,415809,118932,415809,93,,,,,,visual_patterns,0,0,0,yes,1366
undefined,undefined,undefined,undefined,white,no,Mozilla,Netscape,"5.0 (Macintosh; Intel Mac OS X 10_15_7) AppleWebKit/605.1.15 (KHTML, like Gecko) Version/15.4 Safari/605.1.15",xpyriment,legacy,legacy,0,uniform,0,0,0,0,24,24,24,0,0,42,42,42,42,42,0,42,0,,,,,,0,,27-03-22,27-03-22,17:05:10,Wed Apr 27 2022 17:05:10 GMT+0200 (CEST),The main experiment item,yes,0,0,C:/Users/rrics/Documents/!!ResearchBMECOGSCI/gnet,0,0,0,prototype2.png,no,mono,no,18,no,black,no,no,768,1237,3.5.6,legacy,xpyriment,osweb,1.3.13,IwAR3rcqDdrMMP8LPRIB5LLgNG2Ck9pOLpDnNRed9AQ73dnkhqzkZ4l4vqpAw,0,space,space,space,,29321,5297,29321,,2,legacy,970,1920,24,1080,24,297,40,1920,1651071969738,1024,2,48000,-16,experiment,p3sarrcol2.png,0,even,MacIntel,93,117404,114399,92,93,427323,428829,422337,118932,422337,93,,,,,,visual_patterns,0,0,0,yes,1366
undefined,undefined,undefined,undefined,white,no,Mozilla,Netscape,"5.0 (Macintosh; Intel Mac OS X 10_15_7) AppleWebKit/605.1.15 (KHTML, like Gecko) Version/15.4 Safari/605.1.15",xpyriment,legacy,legacy,0,uniform,0,0,0,0,24,24,24,0,0,43,43,43,43,43,0,43,0,,,,,,0,,27-03-22,27-03-22,17:05:10,Wed Apr 27 2022 17:05:10 GMT+0200 (CEST),The main experiment item,yes,0,0,C:/Users/rrics/Documents/!!ResearchBMECOGSCI/gnet,0,0,0,prototype2.png,no,mono,no,18,no,black,no,no,768,1237,3.5.6,legacy,xpyriment,osweb,1.3.13,IwAR3rcqDdrMMP8LPRIB5LLgNG2Ck9pOLpDnNRed9AQ73dnkhqzkZ4l4vqpAw,0,space,space,space,,29321,5297,29321,,2,legacy,970,1920,24,1080,24,297,40,1920,1651071969738,1024,2,48000,-16,experiment,p3sarr2.png,0,even,MacIntel,93,117404,114399,92,93,433845,435353,428856,118932,428855,93,,,,,,visual_patterns,0,0,0,yes,1366
undefined,undefined,undefined,undefined,white,no,Mozilla,Netscape,"5.0 (Macintosh; Intel Mac OS X 10_15_7) AppleWebKit/605.1.15 (KHTML, like Gecko) Version/15.4 Safari/605.1.15",xpyriment,legacy,legacy,0,uniform,0,0,0,0,24,24,24,0,0,44,44,44,44,44,0,44,0,,,,,,0,,27-03-22,27-03-22,17:05:10,Wed Apr 27 2022 17:05:10 GMT+0200 (CEST),The main experiment item,yes,0,0,C:/Users/rrics/Documents/!!ResearchBMECOGSCI/gnet,0,0,0,prototype2.png,no,mono,no,18,no,black,no,no,768,1237,3.5.6,legacy,xpyriment,osweb,1.3.13,IwAR3rcqDdrMMP8LPRIB5LLgNG2Ck9pOLpDnNRed9AQ73dnkhqzkZ4l4vqpAw,0,space,space,space,,29321,5297,29321,,2,legacy,970,1920,24,1080,24,297,40,1920,1651071969738,1024,2,48000,-16,experiment,p2sarrsha1.png,0,even,MacIntel,93,117404,114399,92,93,440369,441877,435381,118932,435381,93,,,,,,visual_patterns,0,0,0,yes,1366
undefined,undefined,undefined,undefined,white,no,Mozilla,Netscape,"5.0 (Macintosh; Intel Mac OS X 10_15_7) AppleWebKit/605.1.15 (KHTML, like Gecko) Version/15.4 Safari/605.1.15",xpyriment,legacy,legacy,0,uniform,0,0,0,0,24,24,24,0,0,45,45,45,45,45,0,45,0,,,,,,0,,27-03-22,27-03-22,17:05:10,Wed Apr 27 2022 17:05:10 GMT+0200 (CEST),The main experiment item,yes,0,0,C:/Users/rrics/Documents/!!ResearchBMECOGSCI/gnet,0,0,0,prototype2.png,no,mono,no,18,no,black,no,no,768,1237,3.5.6,legacy,xpyriment,osweb,1.3.13,IwAR3rcqDdrMMP8LPRIB5LLgNG2Ck9pOLpDnNRed9AQ73dnkhqzkZ4l4vqpAw,0,space,space,space,,29321,5297,29321,,2,legacy,970,1920,24,1080,24,297,40,1920,1651071969738,1024,2,48000,-16,experiment,p4sarrsha1.png,0,even,MacIntel,93,117404,114399,92,93,446891,448399,441903,118932,441903,93,,,,,,visual_patterns,0,0,0,yes,1366
undefined,undefined,undefined,undefined,white,no,Mozilla,Netscape,"5.0 (Macintosh; Intel Mac OS X 10_15_7) AppleWebKit/605.1.15 (KHTML, like Gecko) Version/15.4 Safari/605.1.15",xpyriment,legacy,legacy,0,uniform,0,0,0,0,24,24,24,0,0,46,46,46,46,46,0,46,0,,,,,,0,,27-03-22,27-03-22,17:05:10,Wed Apr 27 2022 17:05:10 GMT+0200 (CEST),The main experiment item,yes,0,0,C:/Users/rrics/Documents/!!ResearchBMECOGSCI/gnet,0,0,0,prototype2.png,no,mono,no,18,no,black,no,no,768,1237,3.5.6,legacy,xpyriment,osweb,1.3.13,IwAR3rcqDdrMMP8LPRIB5LLgNG2Ck9pOLpDnNRed9AQ73dnkhqzkZ4l4vqpAw,0,space,space,space,,29321,5297,29321,,2,legacy,970,1920,24,1080,24,297,40,1920,1651071969738,1024,2,48000,-16,experiment,p1sarrcol1.png,0,even,MacIntel,93,117404,114399,92,93,453421,454925,448435,118932,448435,93,,,,,,visual_patterns,0,0,0,yes,1366
undefined,undefined,undefined,undefined,white,no,Mozilla,Netscape,"5.0 (Macintosh; Intel Mac OS X 10_15_7) AppleWebKit/605.1.15 (KHTML, like Gecko) Version/15.4 Safari/605.1.15",xpyriment,legacy,legacy,0,uniform,0,0,0,0,24,24,24,0,0,47,47,47,47,47,0,47,0,,,,,,0,,27-03-22,27-03-22,17:05:10,Wed Apr 27 2022 17:05:10 GMT+0200 (CEST),The main experiment item,yes,0,0,C:/Users/rrics/Documents/!!ResearchBMECOGSCI/gnet,0,0,0,prototype2.png,no,mono,no,18,no,black,no,no,768,1237,3.5.6,legacy,xpyriment,osweb,1.3.13,IwAR3rcqDdrMMP8LPRIB5LLgNG2Ck9pOLpDnNRed9AQ73dnkhqzkZ4l4vqpAw,0,space,space,space,,29321,5297,29321,,2,legacy,970,1920,24,1080,24,297,40,1920,1651071969738,1024,2,48000,-16,experiment,p1sarrsha2.png,0,even,MacIntel,93,117404,114399,92,93,459943,461449,454957,118932,454957,93,,,,,,visual_patterns,0,0,0,yes,1366
undefined,undefined,undefined,undefined,white,no,Mozilla,Netscape,"5.0 (Macintosh; Intel Mac OS X 10_15_7) AppleWebKit/605.1.15 (KHTML, like Gecko) Version/15.4 Safari/605.1.15",xpyriment,legacy,legacy,0,uniform,0,0,0,0,24,24,24,0,0,48,48,48,48,48,0,48,0,,,,,,0,,27-03-22,27-03-22,17:05:10,Wed Apr 27 2022 17:05:10 GMT+0200 (CEST),The main experiment item,yes,0,0,C:/Users/rrics/Documents/!!ResearchBMECOGSCI/gnet,0,0,0,prototype2.png,no,mono,no,18,no,black,no,no,768,1237,3.5.6,legacy,xpyriment,osweb,1.3.13,IwAR3rcqDdrMMP8LPRIB5LLgNG2Ck9pOLpDnNRed9AQ73dnkhqzkZ4l4vqpAw,0,space,space,space,,29321,5297,29321,,2,legacy,970,1920,24,1080,24,297,40,1920,1651071969738,1024,2,48000,-16,experiment,p7sarr2.png,0,even,MacIntel,93,117404,114399,92,93,466465,467973,461477,118932,461477,93,,,,,,visual_patterns,0,0,0,yes,1366
undefined,undefined,undefined,undefined,white,no,Mozilla,Netscape,"5.0 (Macintosh; Intel Mac OS X 10_15_7) AppleWebKit/605.1.15 (KHTML, like Gecko) Version/15.4 Safari/605.1.15",xpyriment,legacy,legacy,0,uniform,0,0,0,0,24,24,24,0,0,49,49,49,49,49,0,49,0,,,,,,0,,27-03-22,27-03-22,17:05:10,Wed Apr 27 2022 17:05:10 GMT+0200 (CEST),The main experiment item,yes,0,0,C:/Users/rrics/Documents/!!ResearchBMECOGSCI/gnet,0,0,0,prototype2.png,no,mono,no,18,no,black,no,no,768,1237,3.5.6,legacy,xpyriment,osweb,1.3.13,IwAR3rcqDdrMMP8LPRIB5LLgNG2Ck9pOLpDnNRed9AQ73dnkhqzkZ4l4vqpAw,0,space,space,space,,29321,5297,29321,,2,legacy,970,1920,24,1080,24,297,40,1920,1651071969738,1024,2,48000,-16,experiment,p4sarr1.png,0,even,MacIntel,93,117404,114399,92,93,472987,474497,468001,118932,468000,93,,,,,,visual_patterns,0,0,0,yes,1366
undefined,undefined,undefined,undefined,white,no,Mozilla,Netscape,"5.0 (Macintosh; Intel Mac OS X 10_15_7) AppleWebKit/605.1.15 (KHTML, like Gecko) Version/15.4 Safari/605.1.15",xpyriment,legacy,legacy,0,uniform,0,0,0,0,24,24,24,0,0,50,50,50,50,50,0,50,0,,,,,,0,,27-03-22,27-03-22,17:05:10,Wed Apr 27 2022 17:05:10 GMT+0200 (CEST),The main experiment item,yes,0,0,C:/Users/rrics/Documents/!!ResearchBMECOGSCI/gnet,0,0,0,prototype2.png,no,mono,no,18,no,black,no,no,768,1237,3.5.6,legacy,xpyriment,osweb,1.3.13,IwAR3rcqDdrMMP8LPRIB5LLgNG2Ck9pOLpDnNRed9AQ73dnkhqzkZ4l4vqpAw,0,space,space,space,,29321,5297,29321,,2,legacy,970,1920,24,1080,24,297,40,1920,1651071969738,1024,2,48000,-16,experiment,p10sarr1.png,0,even,MacIntel,93,117404,114399,92,93,479514,481021,474526,118932,474526,93,,,,,,visual_patterns,0,0,0,yes,1366
undefined,undefined,undefined,undefined,white,no,Mozilla,Netscape,"5.0 (Macintosh; Intel Mac OS X 10_15_7) AppleWebKit/605.1.15 (KHTML, like Gecko) Version/15.4 Safari/605.1.15",xpyriment,legacy,legacy,0,uniform,0,0,0,0,24,24,24,0,0,51,51,51,51,51,0,51,0,,,,,,0,,27-03-22,27-03-22,17:05:10,Wed Apr 27 2022 17:05:10 GMT+0200 (CEST),The main experiment item,yes,0,0,C:/Users/rrics/Documents/!!ResearchBMECOGSCI/gnet,0,0,0,prototype2.png,no,mono,no,18,no,black,no,no,768,1237,3.5.6,legacy,xpyriment,osweb,1.3.13,IwAR3rcqDdrMMP8LPRIB5LLgNG2Ck9pOLpDnNRed9AQ73dnkhqzkZ4l4vqpAw,0,space,space,space,,29321,5297,29321,,2,legacy,970,1920,24,1080,24,297,40,1920,1651071969738,1024,2,48000,-16,experiment,prototype3.png,0,even,MacIntel,93,117404,114399,92,93,486031,487545,481047,118932,481046,93,,,,,,visual_patterns,0,0,0,yes,1366
undefined,undefined,undefined,undefined,white,no,Mozilla,Netscape,"5.0 (Macintosh; Intel Mac OS X 10_15_7) AppleWebKit/605.1.15 (KHTML, like Gecko) Version/15.4 Safari/605.1.15",xpyriment,legacy,legacy,0,uniform,0,0,0,0,24,24,24,0,0,52,52,52,52,52,0,52,0,,,,,,0,,27-03-22,27-03-22,17:05:10,Wed Apr 27 2022 17:05:10 GMT+0200 (CEST),The main experiment item,yes,0,0,C:/Users/rrics/Documents/!!ResearchBMECOGSCI/gnet,0,0,0,prototype2.png,no,mono,no,18,no,black,no,no,768,1237,3.5.6,legacy,xpyriment,osweb,1.3.13,IwAR3rcqDdrMMP8LPRIB5LLgNG2Ck9pOLpDnNRed9AQ73dnkhqzkZ4l4vqpAw,0,space,space,space,,29321,5297,29321,,2,legacy,970,1920,24,1080,24,297,40,1920,1651071969738,1024,2,48000,-16,experiment,p1sarr1.png,0,even,MacIntel,93,117404,114399,92,93,492564,494069,487575,118932,487575,93,,,,,,visual_patterns,0,0,0,yes,1366
undefined,undefined,undefined,undefined,white,no,Mozilla,Netscape,"5.0 (Macintosh; Intel Mac OS X 10_15_7) AppleWebKit/605.1.15 (KHTML, like Gecko) Version/15.4 Safari/605.1.15",xpyriment,legacy,legacy,0,uniform,0,0,0,0,24,24,24,0,0,53,53,53,53,53,0,53,0,,,,,,0,,27-03-22,27-03-22,17:05:10,Wed Apr 27 2022 17:05:10 GMT+0200 (CEST),The main experiment item,yes,0,0,C:/Users/rrics/Documents/!!ResearchBMECOGSCI/gnet,0,0,0,prototype2.png,no,mono,no,18,no,black,no,no,768,1237,3.5.6,legacy,xpyriment,osweb,1.3.13,IwAR3rcqDdrMMP8LPRIB5LLgNG2Ck9pOLpDnNRed9AQ73dnkhqzkZ4l4vqpAw,0,space,space,space,,29321,5297,29321,,2,legacy,970,1920,24,1080,24,297,40,1920,1651071969738,1024,2,48000,-16,experiment,p1sarrcol2.png,0,even,MacIntel,93,117404,114399,92,93,499083,500592,494099,118932,494099,93,,,,,,visual_patterns,0,0,0,yes,1366
undefined,undefined,undefined,undefined,white,no,Mozilla,Netscape,"5.0 (Macintosh; Intel Mac OS X 10_15_7) AppleWebKit/605.1.15 (KHTML, like Gecko) Version/15.4 Safari/605.1.15",xpyriment,legacy,legacy,0,uniform,0,0,0,0,24,24,24,0,0,54,54,54,54,54,0,54,0,,,,,,0,,27-03-22,27-03-22,17:05:10,Wed Apr 27 2022 17:05:10 GMT+0200 (CEST),The main experiment item,yes,0,0,C:/Users/rrics/Documents/!!ResearchBMECOGSCI/gnet,0,0,0,prototype2.png,no,mono,no,18,no,black,no,no,768,1237,3.5.6,legacy,xpyriment,osweb,1.3.13,IwAR3rcqDdrMMP8LPRIB5LLgNG2Ck9pOLpDnNRed9AQ73dnkhqzkZ4l4vqpAw,0,space,space,space,,29321,5297,29321,,2,legacy,970,1920,24,1080,24,297,40,1920,1651071969738,1024,2,48000,-16,experiment,p2sarrcol2.png,0,even,MacIntel,93,117404,114399,92,93,505608,507116,500621,118932,500621,93,,,,,,visual_patterns,0,0,0,yes,1366
undefined,undefined,undefined,undefined,white,no,Mozilla,Netscape,"5.0 (Macintosh; Intel Mac OS X 10_15_7) AppleWebKit/605.1.15 (KHTML, like Gecko) Version/15.4 Safari/605.1.15",xpyriment,legacy,legacy,0,uniform,0,0,0,0,24,24,24,0,0,55,55,55,55,55,0,55,0,,,,,,0,,27-03-22,27-03-22,17:05:10,Wed Apr 27 2022 17:05:10 GMT+0200 (CEST),The main experiment item,yes,0,0,C:/Users/rrics/Documents/!!ResearchBMECOGSCI/gnet,0,0,0,prototype2.png,no,mono,no,18,no,black,no,no,768,1237,3.5.6,legacy,xpyriment,osweb,1.3.13,IwAR3rcqDdrMMP8LPRIB5LLgNG2Ck9pOLpDnNRed9AQ73dnkhqzkZ4l4vqpAw,0,space,space,space,,29321,5297,29321,,2,legacy,970,1920,24,1080,24,297,40,1920,1651071969738,1024,2,48000,-16,experiment,prototype4.png,0,even,MacIntel,93,117404,114399,92,93,512132,513639,507144,118932,507143,93,,,,,,visual_patterns,0,0,0,yes,1366
undefined,undefined,undefined,undefined,white,no,Mozilla,Netscape,"5.0 (Macintosh; Intel Mac OS X 10_15_7) AppleWebKit/605.1.15 (KHTML, like Gecko) Version/15.4 Safari/605.1.15",xpyriment,legacy,legacy,0,uniform,0,0,0,0,24,24,24,0,0,56,56,56,56,56,0,56,0,,,,,,0,,27-03-22,27-03-22,17:05:10,Wed Apr 27 2022 17:05:10 GMT+0200 (CEST),The main experiment item,yes,0,0,C:/Users/rrics/Documents/!!ResearchBMECOGSCI/gnet,0,0,0,prototype2.png,no,mono,no,18,no,black,no,no,768,1237,3.5.6,legacy,xpyriment,osweb,1.3.13,IwAR3rcqDdrMMP8LPRIB5LLgNG2Ck9pOLpDnNRed9AQ73dnkhqzkZ4l4vqpAw,0,space,space,space,,29321,5297,29321,,2,legacy,970,1920,24,1080,24,297,40,1920,1651071969738,1024,2,48000,-16,experiment,p2sarrshacol1.png,0,even,MacIntel,93,117404,114399,92,93,518654,520162,513669,118932,513668,93,,,,,,visual_patterns,0,0,0,yes,1366
undefined,undefined,undefined,undefined,white,no,Mozilla,Netscape,"5.0 (Macintosh; Intel Mac OS X 10_15_7) AppleWebKit/605.1.15 (KHTML, like Gecko) Version/15.4 Safari/605.1.15",xpyriment,legacy,legacy,0,uniform,0,0,0,0,24,24,24,0,0,57,57,57,57,57,0,57,0,,,,,,0,,27-03-22,27-03-22,17:05:10,Wed Apr 27 2022 17:05:10 GMT+0200 (CEST),The main experiment item,yes,0,0,C:/Users/rrics/Documents/!!ResearchBMECOGSCI/gnet,0,0,0,prototype2.png,no,mono,no,18,no,black,no,no,768,1237,3.5.6,legacy,xpyriment,osweb,1.3.13,IwAR3rcqDdrMMP8LPRIB5LLgNG2Ck9pOLpDnNRed9AQ73dnkhqzkZ4l4vqpAw,0,space,space,space,,29321,5297,29321,,2,legacy,970,1920,24,1080,24,297,40,1920,1651071969738,1024,2,48000,-16,experiment,prototype5.png,0,even,MacIntel,93,117404,114399,92,93,525174,526688,520187,118932,520187,93,,,,,,visual_patterns,0,0,0,yes,1366
undefined,undefined,undefined,undefined,white,no,Mozilla,Netscape,"5.0 (Macintosh; Intel Mac OS X 10_15_7) AppleWebKit/605.1.15 (KHTML, like Gecko) Version/15.4 Safari/605.1.15",xpyriment,legacy,legacy,0,uniform,0,0,0,0,24,24,24,0,0,58,58,58,58,58,0,58,0,,,,,,0,,27-03-22,27-03-22,17:05:10,Wed Apr 27 2022 17:05:10 GMT+0200 (CEST),The main experiment item,yes,0,0,C:/Users/rrics/Documents/!!ResearchBMECOGSCI/gnet,0,0,0,prototype2.png,no,mono,no,18,no,black,no,no,768,1237,3.5.6,legacy,xpyriment,osweb,1.3.13,IwAR3rcqDdrMMP8LPRIB5LLgNG2Ck9pOLpDnNRed9AQ73dnkhqzkZ4l4vqpAw,0,space,space,space,,29321,5297,29321,,2,legacy,970,1920,24,1080,24,297,40,1920,1651071969738,1024,2,48000,-16,experiment,prototype2.png,0,even,MacIntel,93,117404,114399,92,93,531697,533212,526712,118932,526712,93,,,,,,visual_patterns,0,0,0,yes,1366
undefined,undefined,undefined,undefined,white,no,Mozilla,Netscape,"5.0 (Macintosh; Intel Mac OS X 10_15_7) AppleWebKit/605.1.15 (KHTML, like Gecko) Version/15.4 Safari/605.1.15",xpyriment,legacy,legacy,0,uniform,0,0,0,0,24,24,24,0,0,59,59,59,59,59,0,59,0,,,,,,0,,27-03-22,27-03-22,17:05:10,Wed Apr 27 2022 17:05:10 GMT+0200 (CEST),The main experiment item,yes,0,0,C:/Users/rrics/Documents/!!ResearchBMECOGSCI/gnet,0,0,0,prototype2.png,no,mono,no,18,no,black,no,no,768,1237,3.5.6,legacy,xpyriment,osweb,1.3.13,IwAR3rcqDdrMMP8LPRIB5LLgNG2Ck9pOLpDnNRed9AQ73dnkhqzkZ4l4vqpAw,0,space,space,space,,29321,5297,29321,,2,legacy,970,1920,24,1080,24,297,40,1920,1651071969738,1024,2,48000,-16,experiment,prototype5.png,0,even,MacIntel,93,117404,114399,92,93,538224,539736,533237,118932,533237,93,,,,,,visual_patterns,0,0,0,yes,1366
undefined,undefined,undefined,undefined,white,no,Mozilla,Netscape,"5.0 (Macintosh; Intel Mac OS X 10_15_7) AppleWebKit/605.1.15 (KHTML, like Gecko) Version/15.4 Safari/605.1.15",xpyriment,legacy,legacy,0,uniform,0,0,0,0,24,24,24,0,0,60,60,60,60,60,0,60,0,,,,,,0,,27-03-22,27-03-22,17:05:10,Wed Apr 27 2022 17:05:10 GMT+0200 (CEST),The main experiment item,yes,0,0,C:/Users/rrics/Documents/!!ResearchBMECOGSCI/gnet,0,0,0,prototype2.png,no,mono,no,18,no,black,no,no,768,1237,3.5.6,legacy,xpyriment,osweb,1.3.13,IwAR3rcqDdrMMP8LPRIB5LLgNG2Ck9pOLpDnNRed9AQ73dnkhqzkZ4l4vqpAw,0,space,space,space,,29321,5297,29321,,2,legacy,970,1920,24,1080,24,297,40,1920,1651071969738,1024,2,48000,-16,experiment,p1sarrshacol2.png,0,even,MacIntel,93,117404,114399,92,93,544751,546258,539762,118932,539762,93,,,,,,visual_patterns,0,0,0,yes,1366
undefined,undefined,undefined,undefined,white,no,Mozilla,Netscape,"5.0 (Macintosh; Intel Mac OS X 10_15_7) AppleWebKit/605.1.15 (KHTML, like Gecko) Version/15.4 Safari/605.1.15",xpyriment,legacy,legacy,0,uniform,0,0,0,0,24,24,24,0,0,61,61,61,61,61,0,61,0,,,,,,0,,27-03-22,27-03-22,17:05:10,Wed Apr 27 2022 17:05:10 GMT+0200 (CEST),The main experiment item,yes,0,0,C:/Users/rrics/Documents/!!ResearchBMECOGSCI/gnet,0,0,0,prototype2.png,no,mono,no,18,no,black,no,no,768,1237,3.5.6,legacy,xpyriment,osweb,1.3.13,IwAR3rcqDdrMMP8LPRIB5LLgNG2Ck9pOLpDnNRed9AQ73dnkhqzkZ4l4vqpAw,0,space,space,space,,29321,5297,29321,,2,legacy,970,1920,24,1080,24,297,40,1920,1651071969738,1024,2,48000,-16,experiment,p2sarrcol1.png,0,even,MacIntel,93,117404,114399,92,93,551272,552783,546287,118932,546287,93,,,,,,visual_patterns,0,0,0,yes,1366
undefined,undefined,undefined,undefined,white,no,Mozilla,Netscape,"5.0 (Macintosh; Intel Mac OS X 10_15_7) AppleWebKit/605.1.15 (KHTML, like Gecko) Version/15.4 Safari/605.1.15",xpyriment,legacy,legacy,0,uniform,0,0,0,0,24,24,24,0,0,62,62,62,62,62,0,62,0,,,,,,0,,27-03-22,27-03-22,17:05:10,Wed Apr 27 2022 17:05:10 GMT+0200 (CEST),The main experiment item,yes,0,0,C:/Users/rrics/Documents/!!ResearchBMECOGSCI/gnet,0,0,0,prototype2.png,no,mono,no,18,no,black,no,no,768,1237,3.5.6,legacy,xpyriment,osweb,1.3.13,IwAR3rcqDdrMMP8LPRIB5LLgNG2Ck9pOLpDnNRed9AQ73dnkhqzkZ4l4vqpAw,0,space,space,space,,29321,5297,29321,,2,legacy,970,1920,24,1080,24,297,40,1920,1651071969738,1024,2,48000,-16,experiment,p5sarr2.png,0,even,MacIntel,93,117404,114399,92,93,557798,559306,552810,118932,552809,93,,,,,,visual_patterns,0,0,0,yes,1366
undefined,undefined,undefined,undefined,white,no,Mozilla,Netscape,"5.0 (Macintosh; Intel Mac OS X 10_15_7) AppleWebKit/605.1.15 (KHTML, like Gecko) Version/15.4 Safari/605.1.15",xpyriment,legacy,legacy,0,uniform,0,0,0,0,24,24,24,0,0,63,63,63,63,63,0,63,0,,,,,,0,,27-03-22,27-03-22,17:05:10,Wed Apr 27 2022 17:05:10 GMT+0200 (CEST),The main experiment item,yes,0,0,C:/Users/rrics/Documents/!!ResearchBMECOGSCI/gnet,0,0,0,prototype2.png,no,mono,no,18,no,black,no,no,768,1237,3.5.6,legacy,xpyriment,osweb,1.3.13,IwAR3rcqDdrMMP8LPRIB5LLgNG2Ck9pOLpDnNRed9AQ73dnkhqzkZ4l4vqpAw,0,space,space,space,,29321,5297,29321,,2,legacy,970,1920,24,1080,24,297,40,1920,1651071969738,1024,2,48000,-16,experiment,p10sarr2.png,0,even,MacIntel,93,117404,114399,92,93,564323,565830,559337,118932,559337,93,,,,,,visual_patterns,0,0,0,yes,1366
undefined,undefined,undefined,undefined,white,no,Mozilla,Netscape,"5.0 (Macintosh; Intel Mac OS X 10_15_7) AppleWebKit/605.1.15 (KHTML, like Gecko) Version/15.4 Safari/605.1.15",xpyriment,legacy,legacy,0,uniform,0,0,0,0,24,24,24,0,0,64,64,64,64,64,0,64,0,,,,,,0,,27-03-22,27-03-22,17:05:10,Wed Apr 27 2022 17:05:10 GMT+0200 (CEST),The main experiment item,yes,0,0,C:/Users/rrics/Documents/!!ResearchBMECOGSCI/gnet,0,0,0,prototype2.png,no,mono,no,18,no,black,no,no,768,1237,3.5.6,legacy,xpyriment,osweb,1.3.13,IwAR3rcqDdrMMP8LPRIB5LLgNG2Ck9pOLpDnNRed9AQ73dnkhqzkZ4l4vqpAw,0,space,space,space,,29321,5297,29321,,2,legacy,970,1920,24,1080,24,297,40,1920,1651071969738,1024,2,48000,-16,experiment,prototype1.png,0,even,MacIntel,93,117404,114399,92,93,570840,572353,565853,118932,565853,93,,,,,,visual_patterns,0,0,0,yes,1366
undefined,undefined,undefined,undefined,white,no,Mozilla,Netscape,"5.0 (Macintosh; Intel Mac OS X 10_15_7) AppleWebKit/605.1.15 (KHTML, like Gecko) Version/15.4 Safari/605.1.15",xpyriment,legacy,legacy,0,uniform,0,0,0,0,24,24,24,0,0,65,65,65,65,65,0,65,0,,,,,,0,,27-03-22,27-03-22,17:05:10,Wed Apr 27 2022 17:05:10 GMT+0200 (CEST),The main experiment item,yes,0,0,C:/Users/rrics/Documents/!!ResearchBMECOGSCI/gnet,0,0,0,prototype2.png,no,mono,no,18,no,black,no,no,768,1237,3.5.6,legacy,xpyriment,osweb,1.3.13,IwAR3rcqDdrMMP8LPRIB5LLgNG2Ck9pOLpDnNRed9AQ73dnkhqzkZ4l4vqpAw,0,space,space,space,,29321,5297,29321,,2,legacy,970,1920,24,1080,24,297,40,1920,1651071969738,1024,2,48000,-16,experiment,prototype4.png,0,even,MacIntel,93,117404,114399,92,93,577365,578879,572378,118932,572378,93,,,,,,visual_patterns,0,0,0,yes,1366
undefined,undefined,undefined,undefined,white,no,Mozilla,Netscape,"5.0 (Macintosh; Intel Mac OS X 10_15_7) AppleWebKit/605.1.15 (KHTML, like Gecko) Version/15.4 Safari/605.1.15",xpyriment,legacy,legacy,0,uniform,0,0,0,0,24,24,24,0,0,66,66,66,66,66,0,66,0,,,,,,0,,27-03-22,27-03-22,17:05:10,Wed Apr 27 2022 17:05:10 GMT+0200 (CEST),The main experiment item,yes,0,0,C:/Users/rrics/Documents/!!ResearchBMECOGSCI/gnet,0,0,0,prototype2.png,no,mono,no,18,no,black,no,no,768,1237,3.5.6,legacy,xpyriment,osweb,1.3.13,IwAR3rcqDdrMMP8LPRIB5LLgNG2Ck9pOLpDnNRed9AQ73dnkhqzkZ4l4vqpAw,0,space,space,space,,29321,5297,29321,,2,legacy,970,1920,24,1080,24,297,40,1920,1651071969738,1024,2,48000,-16,experiment,p2sarrshacol2.png,0,even,MacIntel,93,117404,114399,92,93,583891,585403,578906,118932,578906,93,,,,,,visual_patterns,0,0,0,yes,1366
undefined,undefined,undefined,undefined,white,no,Mozilla,Netscape,"5.0 (Macintosh; Intel Mac OS X 10_15_7) AppleWebKit/605.1.15 (KHTML, like Gecko) Version/15.4 Safari/605.1.15",xpyriment,legacy,legacy,0,uniform,0,0,0,0,24,24,24,0,0,67,67,67,67,67,0,67,0,,,,,,0,,27-03-22,27-03-22,17:05:10,Wed Apr 27 2022 17:05:10 GMT+0200 (CEST),The main experiment item,yes,0,0,C:/Users/rrics/Documents/!!ResearchBMECOGSCI/gnet,0,0,0,prototype2.png,no,mono,no,18,no,black,no,no,768,1237,3.5.6,legacy,xpyriment,osweb,1.3.13,IwAR3rcqDdrMMP8LPRIB5LLgNG2Ck9pOLpDnNRed9AQ73dnkhqzkZ4l4vqpAw,0,space,space,space,,29321,5297,29321,,2,legacy,970,1920,24,1080,24,297,40,1920,1651071969738,1024,2,48000,-16,experiment,p1sarr2.png,0,even,MacIntel,93,117404,114399,92,93,590417,591926,585432,118932,585432,93,,,,,,visual_patterns,0,0,0,yes,1366
undefined,undefined,undefined,undefined,white,no,Mozilla,Netscape,"5.0 (Macintosh; Intel Mac OS X 10_15_7) AppleWebKit/605.1.15 (KHTML, like Gecko) Version/15.4 Safari/605.1.15",xpyriment,legacy,legacy,0,uniform,0,0,0,0,24,24,24,0,0,68,68,68,68,68,0,68,0,,,,,,0,,27-03-22,27-03-22,17:05:10,Wed Apr 27 2022 17:05:10 GMT+0200 (CEST),The main experiment item,yes,0,0,C:/Users/rrics/Documents/!!ResearchBMECOGSCI/gnet,0,0,0,prototype2.png,no,mono,no,18,no,black,no,no,768,1237,3.5.6,legacy,xpyriment,osweb,1.3.13,IwAR3rcqDdrMMP8LPRIB5LLgNG2Ck9pOLpDnNRed9AQ73dnkhqzkZ4l4vqpAw,0,space,space,space,,29321,5297,29321,,2,legacy,970,1920,24,1080,24,297,40,1920,1651071969738,1024,2,48000,-16,experiment,p6sarr2.png,0,even,MacIntel,93,117404,114399,92,93,596943,598451,591956,118932,591956,93,,,,,,visual_patterns,0,0,0,yes,1366
undefined,undefined,undefined,undefined,white,no,Mozilla,Netscape,"5.0 (Macintosh; Intel Mac OS X 10_15_7) AppleWebKit/605.1.15 (KHTML, like Gecko) Version/15.4 Safari/605.1.15",xpyriment,legacy,legacy,0,uniform,0,0,0,0,24,24,24,0,0,69,69,69,69,69,0,69,0,,,,,,0,,27-03-22,27-03-22,17:05:10,Wed Apr 27 2022 17:05:10 GMT+0200 (CEST),The main experiment item,yes,0,0,C:/Users/rrics/Documents/!!ResearchBMECOGSCI/gnet,0,0,0,prototype2.png,no,mono,no,18,no,black,no,no,768,1237,3.5.6,legacy,xpyriment,osweb,1.3.13,IwAR3rcqDdrMMP8LPRIB5LLgNG2Ck9pOLpDnNRed9AQ73dnkhqzkZ4l4vqpAw,0,space,space,space,,29321,5297,29321,,2,legacy,970,1920,24,1080,24,297,40,1920,1651071969738,1024,2,48000,-16,experiment,prototype2.png,0,even,MacIntel,93,117404,114399,92,93,603466,604974,598479,118932,598479,93,,,,,,visual_patterns,0,0,0,yes,1366
undefined,undefined,undefined,undefined,white,no,Mozilla,Netscape,"5.0 (Macintosh; Intel Mac OS X 10_15_7) AppleWebKit/605.1.15 (KHTML, like Gecko) Version/15.4 Safari/605.1.15",xpyriment,legacy,legacy,0,uniform,0,0,0,0,24,24,24,0,0,70,70,70,70,70,0,70,0,,,,,,0,,27-03-22,27-03-22,17:05:10,Wed Apr 27 2022 17:05:10 GMT+0200 (CEST),The main experiment item,yes,0,0,C:/Users/rrics/Documents/!!ResearchBMECOGSCI/gnet,0,0,0,prototype2.png,no,mono,no,18,no,black,no,no,768,1237,3.5.6,legacy,xpyriment,osweb,1.3.13,IwAR3rcqDdrMMP8LPRIB5LLgNG2Ck9pOLpDnNRed9AQ73dnkhqzkZ4l4vqpAw,0,space,space,space,,29321,5297,29321,,2,legacy,970,1920,24,1080,24,297,40,1920,1651071969738,1024,2,48000,-16,experiment,p1sarrshacol1.png,0,even,MacIntel,93,117404,114399,92,93,609987,611498,605004,118932,605003,93,,,,,,visual_patterns,0,0,0,yes,1366
undefined,undefined,undefined,undefined,white,no,Mozilla,Netscape,"5.0 (Macintosh; Intel Mac OS X 10_15_7) AppleWebKit/605.1.15 (KHTML, like Gecko) Version/15.4 Safari/605.1.15",xpyriment,legacy,legacy,0,uniform,0,0,0,0,24,24,24,0,0,71,71,71,71,71,0,71,0,,,,,,0,,27-03-22,27-03-22,17:05:10,Wed Apr 27 2022 17:05:10 GMT+0200 (CEST),The main experiment item,yes,0,0,C:/Users/rrics/Documents/!!ResearchBMECOGSCI/gnet,0,0,0,prototype2.png,no,mono,no,18,no,black,no,no,768,1237,3.5.6,legacy,xpyriment,osweb,1.3.13,IwAR3rcqDdrMMP8LPRIB5LLgNG2Ck9pOLpDnNRed9AQ73dnkhqzkZ4l4vqpAw,0,space,space,space,,29321,5297,29321,,2,legacy,970,1920,24,1080,24,297,40,1920,1651071969738,1024,2,48000,-16,experiment,prototype1.png,0,even,MacIntel,93,117404,114399,92,93,616509,618022,611522,118932,611522,93,,,,,,visual_patterns,0,0,0,yes,1366
undefined,undefined,undefined,undefined,white,no,Mozilla,Netscape,"5.0 (Macintosh; Intel Mac OS X 10_15_7) AppleWebKit/605.1.15 (KHTML, like Gecko) Version/15.4 Safari/605.1.15",xpyriment,legacy,legacy,0,uniform,0,0,0,0,24,24,24,0,0,72,72,72,72,72,0,72,0,,,,,,0,,27-03-22,27-03-22,17:05:10,Wed Apr 27 2022 17:05:10 GMT+0200 (CEST),The main experiment item,yes,0,0,C:/Users/rrics/Documents/!!ResearchBMECOGSCI/gnet,0,0,0,prototype2.png,no,mono,no,18,no,black,no,no,768,1237,3.5.6,legacy,xpyriment,osweb,1.3.13,IwAR3rcqDdrMMP8LPRIB5LLgNG2Ck9pOLpDnNRed9AQ73dnkhqzkZ4l4vqpAw,0,space,space,space,,29321,5297,29321,,2,legacy,970,1920,24,1080,24,297,40,1920,1651071969738,1024,2,48000,-16,experiment,prototype5.png,0,even,MacIntel,93,117404,114399,92,93,623037,624546,618050,118932,618050,93,,,,,,visual_patterns,0,0,0,yes,1366
undefined,undefined,undefined,undefined,white,no,Mozilla,Netscape,"5.0 (Macintosh; Intel Mac OS X 10_15_7) AppleWebKit/605.1.15 (KHTML, like Gecko) Version/15.4 Safari/605.1.15",xpyriment,legacy,legacy,0,uniform,0,0,0,0,24,24,24,0,0,73,73,73,73,73,0,73,0,,,,,,0,,27-03-22,27-03-22,17:05:10,Wed Apr 27 2022 17:05:10 GMT+0200 (CEST),The main experiment item,yes,0,0,C:/Users/rrics/Documents/!!ResearchBMECOGSCI/gnet,0,0,0,prototype2.png,no,mono,no,18,no,black,no,no,768,1237,3.5.6,legacy,xpyriment,osweb,1.3.13,IwAR3rcqDdrMMP8LPRIB5LLgNG2Ck9pOLpDnNRed9AQ73dnkhqzkZ4l4vqpAw,0,space,space,space,,29321,5297,29321,,2,legacy,970,1920,24,1080,24,297,40,1920,1651071969738,1024,2,48000,-16,experiment,prototype3.png,0,even,MacIntel,93,117404,114399,92,93,629558,631068,624570,118932,624570,93,,,,,,visual_patterns,0,0,0,yes,1366
undefined,undefined,undefined,undefined,white,no,Mozilla,Netscape,"5.0 (Macintosh; Intel Mac OS X 10_15_7) AppleWebKit/605.1.15 (KHTML, like Gecko) Version/15.4 Safari/605.1.15",xpyriment,legacy,legacy,0,uniform,0,0,0,0,24,24,24,0,0,74,74,74,74,74,0,74,0,,,,,,0,,27-03-22,27-03-22,17:05:10,Wed Apr 27 2022 17:05:10 GMT+0200 (CEST),The main experiment item,yes,0,0,C:/Users/rrics/Documents/!!ResearchBMECOGSCI/gnet,0,0,0,prototype2.png,no,mono,no,18,no,black,no,no,768,1237,3.5.6,legacy,xpyriment,osweb,1.3.13,IwAR3rcqDdrMMP8LPRIB5LLgNG2Ck9pOLpDnNRed9AQ73dnkhqzkZ4l4vqpAw,0,space,space,space,,29321,5297,29321,,2,legacy,970,1920,24,1080,24,297,40,1920,1651071969738,1024,2,48000,-16,experiment,prototype2.png,0,even,MacIntel,93,117404,114399,92,93,636079,637594,631098,118932,631098,93,,,,,,visual_patterns,0,0,0,yes,1366
undefined,undefined,undefined,undefined,white,no,Mozilla,Netscape,"5.0 (Macintosh; Intel Mac OS X 10_15_7) AppleWebKit/605.1.15 (KHTML, like Gecko) Version/15.4 Safari/605.1.15",xpyriment,legacy,legacy,0,uniform,0,0,0,0,24,24,24,0,0,74,74,74,74,74,0,74,0,0,0,0,0,0,0,0,27-03-22,27-03-22,17:05:10,Wed Apr 27 2022 17:05:10 GMT+0200 (CEST),The main experiment item,yes,0,0,C:/Users/rrics/Documents/!!ResearchBMECOGSCI/gnet,0,0,0,prototype2.png,no,mono,no,18,no,black,no,no,768,1237,3.5.6,legacy,xpyriment,osweb,1.3.13,IwAR3rcqDdrMMP8LPRIB5LLgNG2Ck9pOLpDnNRed9AQ73dnkhqzkZ4l4vqpAw,0,space,space,space,space,24731,5297,29321,24731,2,legacy,970,1920,24,1080,24,297,40,1920,1651071969738,1024,2,48000,-16,experiment,p5sarrsha3.png,0,even,MacIntel,93,117404,114399,92,93,636079,637594,631098,118932,631098,93,665374,666875,662397,637609,662397,visual_patterns,0,0,0,yes,1366
undefined,undefined,undefined,undefined,white,no,Mozilla,Netscape,"5.0 (Macintosh; Intel Mac OS X 10_15_7) AppleWebKit/605.1.15 (KHTML, like Gecko) Version/15.4 Safari/605.1.15",xpyriment,legacy,legacy,0,uniform,0,0,0,0,24,24,24,0,0,74,74,74,74,74,0,74,0,1,1,1,1,1,0,1,27-03-22,27-03-22,17:05:10,Wed Apr 27 2022 17:05:10 GMT+0200 (CEST),The main experiment item,yes,0,0,C:/Users/rrics/Documents/!!ResearchBMECOGSCI/gnet,0,0,0,prototype2.png,no,mono,no,18,no,black,no,no,768,1237,3.5.6,legacy,xpyriment,osweb,1.3.13,IwAR3rcqDdrMMP8LPRIB5LLgNG2Ck9pOLpDnNRed9AQ73dnkhqzkZ4l4vqpAw,0,space,space,space,space,24731,5297,29321,24731,2,legacy,970,1920,24,1080,24,297,40,1920,1651071969738,1024,2,48000,-16,experiment,p2sarrshacol1.png,0,even,MacIntel,93,117404,114399,92,93,636079,637594,631098,118932,631098,93,669886,671396,666902,637609,666902,visual_patterns,0,0,0,yes,1366
undefined,undefined,undefined,undefined,white,no,Mozilla,Netscape,"5.0 (Macintosh; Intel Mac OS X 10_15_7) AppleWebKit/605.1.15 (KHTML, like Gecko) Version/15.4 Safari/605.1.15",xpyriment,legacy,legacy,0,uniform,0,0,0,0,24,24,24,0,0,74,74,74,74,74,0,74,0,2,2,2,2,2,0,2,27-03-22,27-03-22,17:05:10,Wed Apr 27 2022 17:05:10 GMT+0200 (CEST),The main experiment item,yes,0,0,C:/Users/rrics/Documents/!!ResearchBMECOGSCI/gnet,0,0,0,prototype2.png,no,mono,no,18,no,black,no,no,768,1237,3.5.6,legacy,xpyriment,osweb,1.3.13,IwAR3rcqDdrMMP8LPRIB5LLgNG2Ck9pOLpDnNRed9AQ73dnkhqzkZ4l4vqpAw,0,space,space,space,space,24731,5297,29321,24731,2,legacy,970,1920,24,1080,24,297,40,1920,1651071969738,1024,2,48000,-16,experiment,p4sarr4.png,0,even,MacIntel,93,117404,114399,92,93,636079,637594,631098,118932,631098,93,674411,675918,671427,637609,671427,visual_patterns,0,0,0,yes,1366
undefined,undefined,undefined,undefined,white,no,Mozilla,Netscape,"5.0 (Macintosh; Intel Mac OS X 10_15_7) AppleWebKit/605.1.15 (KHTML, like Gecko) Version/15.4 Safari/605.1.15",xpyriment,legacy,legacy,0,uniform,0,0,0,0,24,24,24,0,0,74,74,74,74,74,0,74,0,3,3,3,3,3,0,3,27-03-22,27-03-22,17:05:10,Wed Apr 27 2022 17:05:10 GMT+0200 (CEST),The main experiment item,yes,0,0,C:/Users/rrics/Documents/!!ResearchBMECOGSCI/gnet,0,0,0,prototype2.png,no,mono,no,18,no,black,no,no,768,1237,3.5.6,legacy,xpyriment,osweb,1.3.13,IwAR3rcqDdrMMP8LPRIB5LLgNG2Ck9pOLpDnNRed9AQ73dnkhqzkZ4l4vqpAw,0,space,space,space,space,24731,5297,29321,24731,2,legacy,970,1920,24,1080,24,297,40,1920,1651071969738,1024,2,48000,-16,experiment,p5sarrsha2.png,0,even,MacIntel,93,117404,114399,92,93,636079,637594,631098,118932,631098,93,678935,680440,675949,637609,675949,visual_patterns,0,0,0,yes,1366
undefined,undefined,undefined,undefined,white,no,Mozilla,Netscape,"5.0 (Macintosh; Intel Mac OS X 10_15_7) AppleWebKit/605.1.15 (KHTML, like Gecko) Version/15.4 Safari/605.1.15",xpyriment,legacy,legacy,0,uniform,0,0,0,0,24,24,24,0,0,74,74,74,74,74,0,74,0,4,4,4,4,4,0,4,27-03-22,27-03-22,17:05:10,Wed Apr 27 2022 17:05:10 GMT+0200 (CEST),The main experiment item,yes,0,0,C:/Users/rrics/Documents/!!ResearchBMECOGSCI/gnet,0,0,0,prototype2.png,no,mono,no,18,no,black,no,no,768,1237,3.5.6,legacy,xpyriment,osweb,1.3.13,IwAR3rcqDdrMMP8LPRIB5LLgNG2Ck9pOLpDnNRed9AQ73dnkhqzkZ4l4vqpAw,0,space,space,space,space,24731,5297,29321,24731,2,legacy,970,1920,24,1080,24,297,40,1920,1651071969738,1024,2,48000,-16,experiment,p7sarr2.png,0,even,MacIntel,93,117404,114399,92,93,636079,637594,631098,118932,631098,93,683452,684962,680467,637609,680467,visual_patterns,0,0,0,yes,1366
undefined,undefined,undefined,undefined,white,no,Mozilla,Netscape,"5.0 (Macintosh; Intel Mac OS X 10_15_7) AppleWebKit/605.1.15 (KHTML, like Gecko) Version/15.4 Safari/605.1.15",xpyriment,legacy,legacy,0,uniform,0,0,0,0,24,24,24,0,0,74,74,74,74,74,0,74,0,5,5,5,5,5,0,5,27-03-22,27-03-22,17:05:10,Wed Apr 27 2022 17:05:10 GMT+0200 (CEST),The main experiment item,yes,0,0,C:/Users/rrics/Documents/!!ResearchBMECOGSCI/gnet,0,0,0,prototype2.png,no,mono,no,18,no,black,no,no,768,1237,3.5.6,legacy,xpyriment,osweb,1.3.13,IwAR3rcqDdrMMP8LPRIB5LLgNG2Ck9pOLpDnNRed9AQ73dnkhqzkZ4l4vqpAw,0,space,space,space,space,24731,5297,29321,24731,2,legacy,970,1920,24,1080,24,297,40,1920,1651071969738,1024,2,48000,-16,experiment,p1sarrsha4.png,0,even,MacIntel,93,117404,114399,92,93,636079,637594,631098,118932,631098,93,687979,689483,684992,637609,684992,visual_patterns,0,0,0,yes,1366
undefined,undefined,undefined,undefined,white,no,Mozilla,Netscape,"5.0 (Macintosh; Intel Mac OS X 10_15_7) AppleWebKit/605.1.15 (KHTML, like Gecko) Version/15.4 Safari/605.1.15",xpyriment,legacy,legacy,0,uniform,0,0,0,0,24,24,24,0,0,74,74,74,74,74,0,74,0,6,6,6,6,6,0,6,27-03-22,27-03-22,17:05:10,Wed Apr 27 2022 17:05:10 GMT+0200 (CEST),The main experiment item,yes,0,0,C:/Users/rrics/Documents/!!ResearchBMECOGSCI/gnet,0,0,0,prototype2.png,no,mono,no,18,no,black,no,no,768,1237,3.5.6,legacy,xpyriment,osweb,1.3.13,IwAR3rcqDdrMMP8LPRIB5LLgNG2Ck9pOLpDnNRed9AQ73dnkhqzkZ4l4vqpAw,0,space,space,space,space,24731,5297,29321,24731,2,legacy,970,1920,24,1080,24,297,40,1920,1651071969738,1024,2,48000,-16,experiment,p3sarrcol2.png,0,even,MacIntel,93,117404,114399,92,93,636079,637594,631098,118932,631098,93,692496,694005,689511,637609,689510,visual_patterns,0,0,0,yes,1366
undefined,undefined,undefined,undefined,white,no,Mozilla,Netscape,"5.0 (Macintosh; Intel Mac OS X 10_15_7) AppleWebKit/605.1.15 (KHTML, like Gecko) Version/15.4 Safari/605.1.15",xpyriment,legacy,legacy,0,uniform,0,0,0,0,24,24,24,0,0,74,74,74,74,74,0,74,0,7,7,7,7,7,0,7,27-03-22,27-03-22,17:05:10,Wed Apr 27 2022 17:05:10 GMT+0200 (CEST),The main experiment item,yes,0,0,C:/Users/rrics/Documents/!!ResearchBMECOGSCI/gnet,0,0,0,prototype2.png,no,mono,no,18,no,black,no,no,768,1237,3.5.6,legacy,xpyriment,osweb,1.3.13,IwAR3rcqDdrMMP8LPRIB5LLgNG2Ck9pOLpDnNRed9AQ73dnkhqzkZ4l4vqpAw,0,space,space,space,space,24731,5297,29321,24731,2,legacy,970,1920,24,1080,24,297,40,1920,1651071969738,1024,2,48000,-16,experiment,p3sarrcol3.png,0,even,MacIntel,93,117404,114399,92,93,636079,637594,631098,118932,631098,93,697019,698526,694034,637609,694034,visual_patterns,0,0,0,yes,1366
undefined,undefined,undefined,undefined,white,no,Mozilla,Netscape,"5.0 (Macintosh; Intel Mac OS X 10_15_7) AppleWebKit/605.1.15 (KHTML, like Gecko) Version/15.4 Safari/605.1.15",xpyriment,legacy,legacy,0,uniform,0,0,0,0,24,24,24,0,0,74,74,74,74,74,0,74,0,8,8,8,8,8,0,8,27-03-22,27-03-22,17:05:10,Wed Apr 27 2022 17:05:10 GMT+0200 (CEST),The main experiment item,yes,0,0,C:/Users/rrics/Documents/!!ResearchBMECOGSCI/gnet,0,0,0,prototype2.png,no,mono,no,18,no,black,no,no,768,1237,3.5.6,legacy,xpyriment,osweb,1.3.13,IwAR3rcqDdrMMP8LPRIB5LLgNG2Ck9pOLpDnNRed9AQ73dnkhqzkZ4l4vqpAw,0,space,space,space,space,24731,5297,29321,24731,2,legacy,970,1920,24,1080,24,297,40,1920,1651071969738,1024,2,48000,-16,experiment,p1sarrsha1.png,0,even,MacIntel,93,117404,114399,92,93,636079,637594,631098,118932,631098,93,701536,703048,698552,637609,698552,visual_patterns,0,0,0,yes,1366
undefined,undefined,undefined,undefined,white,no,Mozilla,Netscape,"5.0 (Macintosh; Intel Mac OS X 10_15_7) AppleWebKit/605.1.15 (KHTML, like Gecko) Version/15.4 Safari/605.1.15",xpyriment,legacy,legacy,0,uniform,0,0,0,0,24,24,24,0,0,74,74,74,74,74,0,74,0,9,9,9,9,9,0,9,27-03-22,27-03-22,17:05:10,Wed Apr 27 2022 17:05:10 GMT+0200 (CEST),The main experiment item,yes,0,0,C:/Users/rrics/Documents/!!ResearchBMECOGSCI/gnet,0,0,0,prototype2.png,no,mono,no,18,no,black,no,no,768,1237,3.5.6,legacy,xpyriment,osweb,1.3.13,IwAR3rcqDdrMMP8LPRIB5LLgNG2Ck9pOLpDnNRed9AQ73dnkhqzkZ4l4vqpAw,0,space,space,space,space,24731,5297,29321,24731,2,legacy,970,1920,24,1080,24,297,40,1920,1651071969738,1024,2,48000,-16,experiment,p4sarr1.png,0,even,MacIntel,93,117404,114399,92,93,636079,637594,631098,118932,631098,93,706062,707570,703080,637609,703080,visual_patterns,0,0,0,yes,1366
undefined,undefined,undefined,undefined,white,no,Mozilla,Netscape,"5.0 (Macintosh; Intel Mac OS X 10_15_7) AppleWebKit/605.1.15 (KHTML, like Gecko) Version/15.4 Safari/605.1.15",xpyriment,legacy,legacy,0,uniform,0,0,0,0,24,24,24,0,0,74,74,74,74,74,0,74,0,10,10,10,10,10,0,10,27-03-22,27-03-22,17:05:10,Wed Apr 27 2022 17:05:10 GMT+0200 (CEST),The main experiment item,yes,0,0,C:/Users/rrics/Documents/!!ResearchBMECOGSCI/gnet,0,0,0,prototype2.png,no,mono,no,18,no,black,no,no,768,1237,3.5.6,legacy,xpyriment,osweb,1.3.13,IwAR3rcqDdrMMP8LPRIB5LLgNG2Ck9pOLpDnNRed9AQ73dnkhqzkZ4l4vqpAw,0,space,space,space,space,24731,5297,29321,24731,2,legacy,970,1920,24,1080,24,297,40,1920,1651071969738,1024,2,48000,-16,experiment,p9sarr2.png,0,even,MacIntel,93,117404,114399,92,93,636079,637594,631098,118932,631098,93,710584,712090,707597,637609,707597,visual_patterns,0,0,0,yes,1366
undefined,undefined,undefined,undefined,white,no,Mozilla,Netscape,"5.0 (Macintosh; Intel Mac OS X 10_15_7) AppleWebKit/605.1.15 (KHTML, like Gecko) Version/15.4 Safari/605.1.15",xpyriment,legacy,legacy,0,uniform,0,0,0,0,24,24,24,0,0,74,74,74,74,74,0,74,0,11,11,11,11,11,0,11,27-03-22,27-03-22,17:05:10,Wed Apr 27 2022 17:05:10 GMT+0200 (CEST),The main experiment item,yes,0,0,C:/Users/rrics/Documents/!!ResearchBMECOGSCI/gnet,0,0,0,prototype2.png,no,mono,no,18,no,black,no,no,768,1237,3.5.6,legacy,xpyriment,osweb,1.3.13,IwAR3rcqDdrMMP8LPRIB5LLgNG2Ck9pOLpDnNRed9AQ73dnkhqzkZ4l4vqpAw,0,space,space,space,space,24731,5297,29321,24731,2,legacy,970,1920,24,1080,24,297,40,1920,1651071969738,1024,2,48000,-16,experiment,p1sarr2.png,0,even,MacIntel,93,117404,114399,92,93,636079,637594,631098,118932,631098,93,715099,716613,712119,637609,712119,visual_patterns,0,0,0,yes,1366
undefined,undefined,undefined,undefined,white,no,Mozilla,Netscape,"5.0 (Macintosh; Intel Mac OS X 10_15_7) AppleWebKit/605.1.15 (KHTML, like Gecko) Version/15.4 Safari/605.1.15",xpyriment,legacy,legacy,0,uniform,0,0,0,0,24,24,24,0,0,74,74,74,74,74,0,74,0,12,12,12,12,12,0,12,27-03-22,27-03-22,17:05:10,Wed Apr 27 2022 17:05:10 GMT+0200 (CEST),The main experiment item,yes,0,0,C:/Users/rrics/Documents/!!ResearchBMECOGSCI/gnet,0,0,0,prototype2.png,no,mono,no,18,no,black,no,no,768,1237,3.5.6,legacy,xpyriment,osweb,1.3.13,IwAR3rcqDdrMMP8LPRIB5LLgNG2Ck9pOLpDnNRed9AQ73dnkhqzkZ4l4vqpAw,0,space,space,space,space,24731,5297,29321,24731,2,legacy,970,1920,24,1080,24,297,40,1920,1651071969738,1024,2,48000,-16,experiment,p3sarrcol4.png,0,even,MacIntel,93,117404,114399,92,93,636079,637594,631098,118932,631098,93,719630,721135,716643,637609,716643,visual_patterns,0,0,0,yes,1366
undefined,undefined,undefined,undefined,white,no,Mozilla,Netscape,"5.0 (Macintosh; Intel Mac OS X 10_15_7) AppleWebKit/605.1.15 (KHTML, like Gecko) Version/15.4 Safari/605.1.15",xpyriment,legacy,legacy,0,uniform,0,0,0,0,24,24,24,0,0,74,74,74,74,74,0,74,0,13,13,13,13,13,0,13,27-03-22,27-03-22,17:05:10,Wed Apr 27 2022 17:05:10 GMT+0200 (CEST),The main experiment item,yes,0,0,C:/Users/rrics/Documents/!!ResearchBMECOGSCI/gnet,0,0,0,prototype2.png,no,mono,no,18,no,black,no,no,768,1237,3.5.6,legacy,xpyriment,osweb,1.3.13,IwAR3rcqDdrMMP8LPRIB5LLgNG2Ck9pOLpDnNRed9AQ73dnkhqzkZ4l4vqpAw,0,space,space,space,space,24731,5297,29321,24731,2,legacy,970,1920,24,1080,24,297,40,1920,1651071969738,1024,2,48000,-16,experiment,p2sarrshacol2.png,0,even,MacIntel,93,117404,114399,92,93,636079,637594,631098,118932,631098,93,724146,725656,721161,637609,721161,visual_patterns,0,0,0,yes,1366
undefined,undefined,undefined,undefined,white,no,Mozilla,Netscape,"5.0 (Macintosh; Intel Mac OS X 10_15_7) AppleWebKit/605.1.15 (KHTML, like Gecko) Version/15.4 Safari/605.1.15",xpyriment,legacy,legacy,0,uniform,0,0,0,0,24,24,24,0,0,74,74,74,74,74,0,74,0,14,14,14,14,14,0,14,27-03-22,27-03-22,17:05:10,Wed Apr 27 2022 17:05:10 GMT+0200 (CEST),The main experiment item,yes,0,0,C:/Users/rrics/Documents/!!ResearchBMECOGSCI/gnet,0,0,0,prototype2.png,no,mono,no,18,no,black,no,no,768,1237,3.5.6,legacy,xpyriment,osweb,1.3.13,IwAR3rcqDdrMMP8LPRIB5LLgNG2Ck9pOLpDnNRed9AQ73dnkhqzkZ4l4vqpAw,0,space,space,space,space,24731,5297,29321,24731,2,legacy,970,1920,24,1080,24,297,40,1920,1651071969738,1024,2,48000,-16,experiment,p6sarr1.png,0,even,MacIntel,93,117404,114399,92,93,636079,637594,631098,118932,631098,93,728666,730178,725682,637609,725682,visual_patterns,0,0,0,yes,1366
undefined,undefined,undefined,undefined,white,no,Mozilla,Netscape,"5.0 (Macintosh; Intel Mac OS X 10_15_7) AppleWebKit/605.1.15 (KHTML, like Gecko) Version/15.4 Safari/605.1.15",xpyriment,legacy,legacy,0,uniform,0,0,0,0,24,24,24,0,0,74,74,74,74,74,0,74,0,15,15,15,15,15,0,15,27-03-22,27-03-22,17:05:10,Wed Apr 27 2022 17:05:10 GMT+0200 (CEST),The main experiment item,yes,0,0,C:/Users/rrics/Documents/!!ResearchBMECOGSCI/gnet,0,0,0,prototype2.png,no,mono,no,18,no,black,no,no,768,1237,3.5.6,legacy,xpyriment,osweb,1.3.13,IwAR3rcqDdrMMP8LPRIB5LLgNG2Ck9pOLpDnNRed9AQ73dnkhqzkZ4l4vqpAw,0,space,space,space,space,24731,5297,29321,24731,2,legacy,970,1920,24,1080,24,297,40,1920,1651071969738,1024,2,48000,-16,experiment,p4sarrshacol3.png,0,even,MacIntel,93,117404,114399,92,93,636079,637594,631098,118932,631098,93,733199,734700,730213,637609,730213,visual_patterns,0,0,0,yes,1366
undefined,undefined,undefined,undefined,white,no,Mozilla,Netscape,"5.0 (Macintosh; Intel Mac OS X 10_15_7) AppleWebKit/605.1.15 (KHTML, like Gecko) Version/15.4 Safari/605.1.15",xpyriment,legacy,legacy,0,uniform,0,0,0,0,24,24,24,0,0,74,74,74,74,74,0,74,0,16,16,16,16,16,0,16,27-03-22,27-03-22,17:05:10,Wed Apr 27 2022 17:05:10 GMT+0200 (CEST),The main experiment item,yes,0,0,C:/Users/rrics/Documents/!!ResearchBMECOGSCI/gnet,0,0,0,prototype2.png,no,mono,no,18,no,black,no,no,768,1237,3.5.6,legacy,xpyriment,osweb,1.3.13,IwAR3rcqDdrMMP8LPRIB5LLgNG2Ck9pOLpDnNRed9AQ73dnkhqzkZ4l4vqpAw,0,space,space,space,space,24731,5297,29321,24731,2,legacy,970,1920,24,1080,24,297,40,1920,1651071969738,1024,2,48000,-16,experiment,p4sarrshacol4.png,0,even,MacIntel,93,117404,114399,92,93,636079,637594,631098,118932,631098,93,737715,739221,734731,637609,734731,visual_patterns,0,0,0,yes,1366
undefined,undefined,undefined,undefined,white,no,Mozilla,Netscape,"5.0 (Macintosh; Intel Mac OS X 10_15_7) AppleWebKit/605.1.15 (KHTML, like Gecko) Version/15.4 Safari/605.1.15",xpyriment,legacy,legacy,0,uniform,0,0,0,0,24,24,24,0,0,74,74,74,74,74,0,74,0,17,17,17,17,17,0,17,27-03-22,27-03-22,17:05:10,Wed Apr 27 2022 17:05:10 GMT+0200 (CEST),The main experiment item,yes,0,0,C:/Users/rrics/Documents/!!ResearchBMECOGSCI/gnet,0,0,0,prototype2.png,no,mono,no,18,no,black,no,no,768,1237,3.5.6,legacy,xpyriment,osweb,1.3.13,IwAR3rcqDdrMMP8LPRIB5LLgNG2Ck9pOLpDnNRed9AQ73dnkhqzkZ4l4vqpAw,0,space,space,space,space,24731,5297,29321,24731,2,legacy,970,1920,24,1080,24,297,40,1920,1651071969738,1024,2,48000,-16,experiment,p2sarrcol1.png,0,even,MacIntel,93,117404,114399,92,93,636079,637594,631098,118932,631098,93,742233,743743,739250,637609,739250,visual_patterns,0,0,0,yes,1366
undefined,undefined,undefined,undefined,white,no,Mozilla,Netscape,"5.0 (Macintosh; Intel Mac OS X 10_15_7) AppleWebKit/605.1.15 (KHTML, like Gecko) Version/15.4 Safari/605.1.15",xpyriment,legacy,legacy,0,uniform,0,0,0,0,24,24,24,0,0,74,74,74,74,74,0,74,0,18,18,18,18,18,0,18,27-03-22,27-03-22,17:05:10,Wed Apr 27 2022 17:05:10 GMT+0200 (CEST),The main experiment item,yes,0,0,C:/Users/rrics/Documents/!!ResearchBMECOGSCI/gnet,0,0,0,prototype2.png,no,mono,no,18,no,black,no,no,768,1237,3.5.6,legacy,xpyriment,osweb,1.3.13,IwAR3rcqDdrMMP8LPRIB5LLgNG2Ck9pOLpDnNRed9AQ73dnkhqzkZ4l4vqpAw,0,space,space,space,space,24731,5297,29321,24731,2,legacy,970,1920,24,1080,24,297,40,1920,1651071969738,1024,2,48000,-16,experiment,p1sarr4.png,0,even,MacIntel,93,117404,114399,92,93,636079,637594,631098,118932,631098,93,746756,748264,743773,637609,743773,visual_patterns,0,0,0,yes,1366
undefined,undefined,undefined,undefined,white,no,Mozilla,Netscape,"5.0 (Macintosh; Intel Mac OS X 10_15_7) AppleWebKit/605.1.15 (KHTML, like Gecko) Version/15.4 Safari/605.1.15",xpyriment,legacy,legacy,0,uniform,0,0,0,0,24,24,24,0,0,74,74,74,74,74,0,74,0,19,19,19,19,19,0,19,27-03-22,27-03-22,17:05:10,Wed Apr 27 2022 17:05:10 GMT+0200 (CEST),The main experiment item,yes,0,0,C:/Users/rrics/Documents/!!ResearchBMECOGSCI/gnet,0,0,0,prototype2.png,no,mono,no,18,no,black,no,no,768,1237,3.5.6,legacy,xpyriment,osweb,1.3.13,IwAR3rcqDdrMMP8LPRIB5LLgNG2Ck9pOLpDnNRed9AQ73dnkhqzkZ4l4vqpAw,0,space,space,space,space,24731,5297,29321,24731,2,legacy,970,1920,24,1080,24,297,40,1920,1651071969738,1024,2,48000,-16,experiment,p10sarr1.png,0,even,MacIntel,93,117404,114399,92,93,636079,637594,631098,118932,631098,93,751285,752787,748300,637609,748300,visual_patterns,0,0,0,yes,1366
undefined,undefined,undefined,undefined,white,no,Mozilla,Netscape,"5.0 (Macintosh; Intel Mac OS X 10_15_7) AppleWebKit/605.1.15 (KHTML, like Gecko) Version/15.4 Safari/605.1.15",xpyriment,legacy,legacy,0,uniform,0,0,0,0,24,24,24,0,0,74,74,74,74,74,0,74,0,20,20,20,20,20,0,20,27-03-22,27-03-22,17:05:10,Wed Apr 27 2022 17:05:10 GMT+0200 (CEST),The main experiment item,yes,0,0,C:/Users/rrics/Documents/!!ResearchBMECOGSCI/gnet,0,0,0,prototype2.png,no,mono,no,18,no,black,no,no,768,1237,3.5.6,legacy,xpyriment,osweb,1.3.13,IwAR3rcqDdrMMP8LPRIB5LLgNG2Ck9pOLpDnNRed9AQ73dnkhqzkZ4l4vqpAw,0,space,space,space,space,24731,5297,29321,24731,2,legacy,970,1920,24,1080,24,297,40,1920,1651071969738,1024,2,48000,-16,experiment,p8sarr3.png,0,even,MacIntel,93,117404,114399,92,93,636079,637594,631098,118932,631098,93,755803,757308,752818,637609,752818,visual_patterns,0,0,0,yes,1366
undefined,undefined,undefined,undefined,white,no,Mozilla,Netscape,"5.0 (Macintosh; Intel Mac OS X 10_15_7) AppleWebKit/605.1.15 (KHTML, like Gecko) Version/15.4 Safari/605.1.15",xpyriment,legacy,legacy,0,uniform,0,0,0,0,24,24,24,0,0,74,74,74,74,74,0,74,0,21,21,21,21,21,0,21,27-03-22,27-03-22,17:05:10,Wed Apr 27 2022 17:05:10 GMT+0200 (CEST),The main experiment item,yes,0,0,C:/Users/rrics/Documents/!!ResearchBMECOGSCI/gnet,0,0,0,prototype2.png,no,mono,no,18,no,black,no,no,768,1237,3.5.6,legacy,xpyriment,osweb,1.3.13,IwAR3rcqDdrMMP8LPRIB5LLgNG2Ck9pOLpDnNRed9AQ73dnkhqzkZ4l4vqpAw,0,space,space,space,space,24731,5297,29321,24731,2,legacy,970,1920,24,1080,24,297,40,1920,1651071969738,1024,2,48000,-16,experiment,p9sarr4.png,0,even,MacIntel,93,117404,114399,92,93,636079,637594,631098,118932,631098,93,760325,761830,757341,637609,757341,visual_patterns,0,0,0,yes,1366
undefined,undefined,undefined,undefined,white,no,Mozilla,Netscape,"5.0 (Macintosh; Intel Mac OS X 10_15_7) AppleWebKit/605.1.15 (KHTML, like Gecko) Version/15.4 Safari/605.1.15",xpyriment,legacy,legacy,0,uniform,0,0,0,0,24,24,24,0,0,74,74,74,74,74,0,74,0,22,22,22,22,22,0,22,27-03-22,27-03-22,17:05:10,Wed Apr 27 2022 17:05:10 GMT+0200 (CEST),The main experiment item,yes,0,0,C:/Users/rrics/Documents/!!ResearchBMECOGSCI/gnet,0,0,0,prototype2.png,no,mono,no,18,no,black,no,no,768,1237,3.5.6,legacy,xpyriment,osweb,1.3.13,IwAR3rcqDdrMMP8LPRIB5LLgNG2Ck9pOLpDnNRed9AQ73dnkhqzkZ4l4vqpAw,0,space,space,space,space,24731,5297,29321,24731,2,legacy,970,1920,24,1080,24,297,40,1920,1651071969738,1024,2,48000,-16,experiment,p5sarrcol2.png,0,even,MacIntel,93,117404,114399,92,93,636079,637594,631098,118932,631098,93,764842,766351,761856,637609,761856,visual_patterns,0,0,0,yes,1366
undefined,undefined,undefined,undefined,white,no,Mozilla,Netscape,"5.0 (Macintosh; Intel Mac OS X 10_15_7) AppleWebKit/605.1.15 (KHTML, like Gecko) Version/15.4 Safari/605.1.15",xpyriment,legacy,legacy,0,uniform,0,0,0,0,24,24,24,0,0,74,74,74,74,74,0,74,0,23,23,23,23,23,0,23,27-03-22,27-03-22,17:05:10,Wed Apr 27 2022 17:05:10 GMT+0200 (CEST),The main experiment item,yes,0,0,C:/Users/rrics/Documents/!!ResearchBMECOGSCI/gnet,0,0,0,prototype2.png,no,mono,no,18,no,black,no,no,768,1237,3.5.6,legacy,xpyriment,osweb,1.3.13,IwAR3rcqDdrMMP8LPRIB5LLgNG2Ck9pOLpDnNRed9AQ73dnkhqzkZ4l4vqpAw,0,space,space,space,space,24731,5297,29321,24731,2,legacy,970,1920,24,1080,24,297,40,1920,1651071969738,1024,2,48000,-16,experiment,p7sarr4.png,0,even,MacIntel,93,117404,114399,92,93,636079,637594,631098,118932,631098,93,769368,770873,766381,637609,766381,visual_patterns,0,0,0,yes,1366
undefined,undefined,undefined,undefined,white,no,Mozilla,Netscape,"5.0 (Macintosh; Intel Mac OS X 10_15_7) AppleWebKit/605.1.15 (KHTML, like Gecko) Version/15.4 Safari/605.1.15",xpyriment,legacy,legacy,0,uniform,0,0,0,0,24,24,24,0,0,74,74,74,74,74,0,74,0,24,24,24,24,24,0,24,27-03-22,27-03-22,17:05:10,Wed Apr 27 2022 17:05:10 GMT+0200 (CEST),The main experiment item,yes,0,0,C:/Users/rrics/Documents/!!ResearchBMECOGSCI/gnet,0,0,0,prototype2.png,no,mono,no,18,no,black,no,no,768,1237,3.5.6,legacy,xpyriment,osweb,1.3.13,IwAR3rcqDdrMMP8LPRIB5LLgNG2Ck9pOLpDnNRed9AQ73dnkhqzkZ4l4vqpAw,0,space,space,space,space,24731,5297,29321,24731,2,legacy,970,1920,24,1080,24,297,40,1920,1651071969738,1024,2,48000,-16,experiment,p3sarrsha3.png,0,even,MacIntel,93,117404,114399,92,93,636079,637594,631098,118932,631098,93,773887,775394,770902,637609,770902,visual_patterns,0,0,0,yes,1366
undefined,undefined,undefined,undefined,white,no,Mozilla,Netscape,"5.0 (Macintosh; Intel Mac OS X 10_15_7) AppleWebKit/605.1.15 (KHTML, like Gecko) Version/15.4 Safari/605.1.15",xpyriment,legacy,legacy,0,uniform,0,0,0,0,24,24,24,0,0,74,74,74,74,74,0,74,0,25,25,25,25,25,0,25,27-03-22,27-03-22,17:05:10,Wed Apr 27 2022 17:05:10 GMT+0200 (CEST),The main experiment item,yes,0,0,C:/Users/rrics/Documents/!!ResearchBMECOGSCI/gnet,0,0,0,prototype2.png,no,mono,no,18,no,black,no,no,768,1237,3.5.6,legacy,xpyriment,osweb,1.3.13,IwAR3rcqDdrMMP8LPRIB5LLgNG2Ck9pOLpDnNRed9AQ73dnkhqzkZ4l4vqpAw,0,space,space,space,space,24731,5297,29321,24731,2,legacy,970,1920,24,1080,24,297,40,1920,1651071969738,1024,2,48000,-16,experiment,p8sarr4.png,0,even,MacIntel,93,117404,114399,92,93,636079,637594,631098,118932,631098,93,778407,779916,775424,637609,775424,visual_patterns,0,0,0,yes,1366
undefined,undefined,undefined,undefined,white,no,Mozilla,Netscape,"5.0 (Macintosh; Intel Mac OS X 10_15_7) AppleWebKit/605.1.15 (KHTML, like Gecko) Version/15.4 Safari/605.1.15",xpyriment,legacy,legacy,0,uniform,0,0,0,0,24,24,24,0,0,74,74,74,74,74,0,74,0,26,26,26,26,26,0,26,27-03-22,27-03-22,17:05:10,Wed Apr 27 2022 17:05:10 GMT+0200 (CEST),The main experiment item,yes,0,0,C:/Users/rrics/Documents/!!ResearchBMECOGSCI/gnet,0,0,0,prototype2.png,no,mono,no,18,no,black,no,no,768,1237,3.5.6,legacy,xpyriment,osweb,1.3.13,IwAR3rcqDdrMMP8LPRIB5LLgNG2Ck9pOLpDnNRed9AQ73dnkhqzkZ4l4vqpAw,0,space,space,space,space,24731,5297,29321,24731,2,legacy,970,1920,24,1080,24,297,40,1920,1651071969738,1024,2,48000,-16,experiment,p2sarrshacol4.png,0,even,MacIntel,93,117404,114399,92,93,636079,637594,631098,118932,631098,93,782937,784438,779951,637609,779951,visual_patterns,0,0,0,yes,1366
undefined,undefined,undefined,undefined,white,no,Mozilla,Netscape,"5.0 (Macintosh; Intel Mac OS X 10_15_7) AppleWebKit/605.1.15 (KHTML, like Gecko) Version/15.4 Safari/605.1.15",xpyriment,legacy,legacy,0,uniform,0,0,0,0,24,24,24,0,0,74,74,74,74,74,0,74,0,27,27,27,27,27,0,27,27-03-22,27-03-22,17:05:10,Wed Apr 27 2022 17:05:10 GMT+0200 (CEST),The main experiment item,yes,0,0,C:/Users/rrics/Documents/!!ResearchBMECOGSCI/gnet,0,0,0,prototype2.png,no,mono,no,18,no,black,no,no,768,1237,3.5.6,legacy,xpyriment,osweb,1.3.13,IwAR3rcqDdrMMP8LPRIB5LLgNG2Ck9pOLpDnNRed9AQ73dnkhqzkZ4l4vqpAw,0,space,space,space,space,24731,5297,29321,24731,2,legacy,970,1920,24,1080,24,297,40,1920,1651071969738,1024,2,48000,-16,experiment,p4sarrshacol1.png,0,even,MacIntel,93,117404,114399,92,93,636079,637594,631098,118932,631098,93,787451,788960,784466,637609,784465,visual_patterns,0,0,0,yes,1366
undefined,undefined,undefined,undefined,white,no,Mozilla,Netscape,"5.0 (Macintosh; Intel Mac OS X 10_15_7) AppleWebKit/605.1.15 (KHTML, like Gecko) Version/15.4 Safari/605.1.15",xpyriment,legacy,legacy,0,uniform,0,0,0,0,24,24,24,0,0,74,74,74,74,74,0,74,0,28,28,28,28,28,0,28,27-03-22,27-03-22,17:05:10,Wed Apr 27 2022 17:05:10 GMT+0200 (CEST),The main experiment item,yes,0,0,C:/Users/rrics/Documents/!!ResearchBMECOGSCI/gnet,0,0,0,prototype2.png,no,mono,no,18,no,black,no,no,768,1237,3.5.6,legacy,xpyriment,osweb,1.3.13,IwAR3rcqDdrMMP8LPRIB5LLgNG2Ck9pOLpDnNRed9AQ73dnkhqzkZ4l4vqpAw,0,space,space,space,space,24731,5297,29321,24731,2,legacy,970,1920,24,1080,24,297,40,1920,1651071969738,1024,2,48000,-16,experiment,p1sarrshacol3.png,0,even,MacIntel,93,117404,114399,92,93,636079,637594,631098,118932,631098,93,791976,793481,788990,637609,788990,visual_patterns,0,0,0,yes,1366
undefined,undefined,undefined,undefined,white,no,Mozilla,Netscape,"5.0 (Macintosh; Intel Mac OS X 10_15_7) AppleWebKit/605.1.15 (KHTML, like Gecko) Version/15.4 Safari/605.1.15",xpyriment,legacy,legacy,0,uniform,0,0,0,0,24,24,24,0,0,74,74,74,74,74,0,74,0,29,29,29,29,29,0,29,27-03-22,27-03-22,17:05:10,Wed Apr 27 2022 17:05:10 GMT+0200 (CEST),The main experiment item,yes,0,0,C:/Users/rrics/Documents/!!ResearchBMECOGSCI/gnet,0,0,0,prototype2.png,no,mono,no,18,no,black,no,no,768,1237,3.5.6,legacy,xpyriment,osweb,1.3.13,IwAR3rcqDdrMMP8LPRIB5LLgNG2Ck9pOLpDnNRed9AQ73dnkhqzkZ4l4vqpAw,0,space,space,space,space,24731,5297,29321,24731,2,legacy,970,1920,24,1080,24,297,40,1920,1651071969738,1024,2,48000,-16,experiment,p2sarrsha1.png,0,even,MacIntel,93,117404,114399,92,93,636079,637594,631098,118932,631098,93,796493,798002,793508,637609,793508,visual_patterns,0,0,0,yes,1366
undefined,undefined,undefined,undefined,white,no,Mozilla,Netscape,"5.0 (Macintosh; Intel Mac OS X 10_15_7) AppleWebKit/605.1.15 (KHTML, like Gecko) Version/15.4 Safari/605.1.15",xpyriment,legacy,legacy,0,uniform,0,0,0,0,24,24,24,0,0,74,74,74,74,74,0,74,0,30,30,30,30,30,0,30,27-03-22,27-03-22,17:05:10,Wed Apr 27 2022 17:05:10 GMT+0200 (CEST),The main experiment item,yes,0,0,C:/Users/rrics/Documents/!!ResearchBMECOGSCI/gnet,0,0,0,prototype2.png,no,mono,no,18,no,black,no,no,768,1237,3.5.6,legacy,xpyriment,osweb,1.3.13,IwAR3rcqDdrMMP8LPRIB5LLgNG2Ck9pOLpDnNRed9AQ73dnkhqzkZ4l4vqpAw,0,space,space,space,space,24731,5297,29321,24731,2,legacy,970,1920,24,1080,24,297,40,1920,1651071969738,1024,2,48000,-16,experiment,p3sarr2.png,0,even,MacIntel,93,117404,114399,92,93,636079,637594,631098,118932,631098,93,801014,802525,798028,637609,798028,visual_patterns,0,0,0,yes,1366
undefined,undefined,undefined,undefined,white,no,Mozilla,Netscape,"5.0 (Macintosh; Intel Mac OS X 10_15_7) AppleWebKit/605.1.15 (KHTML, like Gecko) Version/15.4 Safari/605.1.15",xpyriment,legacy,legacy,0,uniform,0,0,0,0,24,24,24,0,0,74,74,74,74,74,0,74,0,31,31,31,31,31,0,31,27-03-22,27-03-22,17:05:10,Wed Apr 27 2022 17:05:10 GMT+0200 (CEST),The main experiment item,yes,0,0,C:/Users/rrics/Documents/!!ResearchBMECOGSCI/gnet,0,0,0,prototype2.png,no,mono,no,18,no,black,no,no,768,1237,3.5.6,legacy,xpyriment,osweb,1.3.13,IwAR3rcqDdrMMP8LPRIB5LLgNG2Ck9pOLpDnNRed9AQ73dnkhqzkZ4l4vqpAw,0,space,space,space,space,24731,5297,29321,24731,2,legacy,970,1920,24,1080,24,297,40,1920,1651071969738,1024,2,48000,-16,experiment,p3sarrshacol3.png,0,even,MacIntel,93,117404,114399,92,93,636079,637594,631098,118932,631098,93,805536,807046,802553,637609,802553,visual_patterns,0,0,0,yes,1366
undefined,undefined,undefined,undefined,white,no,Mozilla,Netscape,"5.0 (Macintosh; Intel Mac OS X 10_15_7) AppleWebKit/605.1.15 (KHTML, like Gecko) Version/15.4 Safari/605.1.15",xpyriment,legacy,legacy,0,uniform,0,0,0,0,24,24,24,0,0,74,74,74,74,74,0,74,0,32,32,32,32,32,0,32,27-03-22,27-03-22,17:05:10,Wed Apr 27 2022 17:05:10 GMT+0200 (CEST),The main experiment item,yes,0,0,C:/Users/rrics/Documents/!!ResearchBMECOGSCI/gnet,0,0,0,prototype2.png,no,mono,no,18,no,black,no,no,768,1237,3.5.6,legacy,xpyriment,osweb,1.3.13,IwAR3rcqDdrMMP8LPRIB5LLgNG2Ck9pOLpDnNRed9AQ73dnkhqzkZ4l4vqpAw,0,space,space,space,space,24731,5297,29321,24731,2,legacy,970,1920,24,1080,24,297,40,1920,1651071969738,1024,2,48000,-16,experiment,p2sarrcol4.png,0,even,MacIntel,93,117404,114399,92,93,636079,637594,631098,118932,631098,93,810063,811568,807075,637609,807075,visual_patterns,0,0,0,yes,1366
undefined,undefined,undefined,undefined,white,no,Mozilla,Netscape,"5.0 (Macintosh; Intel Mac OS X 10_15_7) AppleWebKit/605.1.15 (KHTML, like Gecko) Version/15.4 Safari/605.1.15",xpyriment,legacy,legacy,0,uniform,0,0,0,0,24,24,24,0,0,74,74,74,74,74,0,74,0,33,33,33,33,33,0,33,27-03-22,27-03-22,17:05:10,Wed Apr 27 2022 17:05:10 GMT+0200 (CEST),The main experiment item,yes,0,0,C:/Users/rrics/Documents/!!ResearchBMECOGSCI/gnet,0,0,0,prototype2.png,no,mono,no,18,no,black,no,no,768,1237,3.5.6,legacy,xpyriment,osweb,1.3.13,IwAR3rcqDdrMMP8LPRIB5LLgNG2Ck9pOLpDnNRed9AQ73dnkhqzkZ4l4vqpAw,0,space,space,space,space,24731,5297,29321,24731,2,legacy,970,1920,24,1080,24,297,40,1920,1651071969738,1024,2,48000,-16,experiment,p5sarrcol1.png,0,even,MacIntel,93,117404,114399,92,93,636079,637594,631098,118932,631098,93,814579,816089,811594,637609,811594,visual_patterns,0,0,0,yes,1366
undefined,undefined,undefined,undefined,white,no,Mozilla,Netscape,"5.0 (Macintosh; Intel Mac OS X 10_15_7) AppleWebKit/605.1.15 (KHTML, like Gecko) Version/15.4 Safari/605.1.15",xpyriment,legacy,legacy,0,uniform,0,0,0,0,24,24,24,0,0,74,74,74,74,74,0,74,0,34,34,34,34,34,0,34,27-03-22,27-03-22,17:05:10,Wed Apr 27 2022 17:05:10 GMT+0200 (CEST),The main experiment item,yes,0,0,C:/Users/rrics/Documents/!!ResearchBMECOGSCI/gnet,0,0,0,prototype2.png,no,mono,no,18,no,black,no,no,768,1237,3.5.6,legacy,xpyriment,osweb,1.3.13,IwAR3rcqDdrMMP8LPRIB5LLgNG2Ck9pOLpDnNRed9AQ73dnkhqzkZ4l4vqpAw,0,space,space,space,space,24731,5297,29321,24731,2,legacy,970,1920,24,1080,24,297,40,1920,1651071969738,1024,2,48000,-16,experiment,p8sarr2.png,0,even,MacIntel,93,117404,114399,92,93,636079,637594,631098,118932,631098,93,819102,820611,816116,637609,816116,visual_patterns,0,0,0,yes,1366
undefined,undefined,undefined,undefined,white,no,Mozilla,Netscape,"5.0 (Macintosh; Intel Mac OS X 10_15_7) AppleWebKit/605.1.15 (KHTML, like Gecko) Version/15.4 Safari/605.1.15",xpyriment,legacy,legacy,0,uniform,0,0,0,0,24,24,24,0,0,74,74,74,74,74,0,74,0,35,35,35,35,35,0,35,27-03-22,27-03-22,17:05:10,Wed Apr 27 2022 17:05:10 GMT+0200 (CEST),The main experiment item,yes,0,0,C:/Users/rrics/Documents/!!ResearchBMECOGSCI/gnet,0,0,0,prototype2.png,no,mono,no,18,no,black,no,no,768,1237,3.5.6,legacy,xpyriment,osweb,1.3.13,IwAR3rcqDdrMMP8LPRIB5LLgNG2Ck9pOLpDnNRed9AQ73dnkhqzkZ4l4vqpAw,0,space,space,space,space,24731,5297,29321,24731,2,legacy,970,1920,24,1080,24,297,40,1920,1651071969738,1024,2,48000,-16,experiment,p5sarr3.png,0,even,MacIntel,93,117404,114399,92,93,636079,637594,631098,118932,631098,93,823632,825133,820646,637609,820646,visual_patterns,0,0,0,yes,1366
undefined,undefined,undefined,undefined,white,no,Mozilla,Netscape,"5.0 (Macintosh; Intel Mac OS X 10_15_7) AppleWebKit/605.1.15 (KHTML, like Gecko) Version/15.4 Safari/605.1.15",xpyriment,legacy,legacy,0,uniform,0,0,0,0,24,24,24,0,0,74,74,74,74,74,0,74,0,36,36,36,36,36,0,36,27-03-22,27-03-22,17:05:10,Wed Apr 27 2022 17:05:10 GMT+0200 (CEST),The main experiment item,yes,0,0,C:/Users/rrics/Documents/!!ResearchBMECOGSCI/gnet,0,0,0,prototype2.png,no,mono,no,18,no,black,no,no,768,1237,3.5.6,legacy,xpyriment,osweb,1.3.13,IwAR3rcqDdrMMP8LPRIB5LLgNG2Ck9pOLpDnNRed9AQ73dnkhqzkZ4l4vqpAw,0,space,space,space,space,24731,5297,29321,24731,2,legacy,970,1920,24,1080,24,297,40,1920,1651071969738,1024,2,48000,-16,experiment,p7sarr1.png,0,even,MacIntel,93,117404,114399,92,93,636079,637594,631098,118932,631098,93,828145,829654,825161,637609,825160,visual_patterns,0,0,0,yes,1366
undefined,undefined,undefined,undefined,white,no,Mozilla,Netscape,"5.0 (Macintosh; Intel Mac OS X 10_15_7) AppleWebKit/605.1.15 (KHTML, like Gecko) Version/15.4 Safari/605.1.15",xpyriment,legacy,legacy,0,uniform,0,0,0,0,24,24,24,0,0,74,74,74,74,74,0,74,0,37,37,37,37,37,0,37,27-03-22,27-03-22,17:05:10,Wed Apr 27 2022 17:05:10 GMT+0200 (CEST),The main experiment item,yes,0,0,C:/Users/rrics/Documents/!!ResearchBMECOGSCI/gnet,0,0,0,prototype2.png,no,mono,no,18,no,black,no,no,768,1237,3.5.6,legacy,xpyriment,osweb,1.3.13,IwAR3rcqDdrMMP8LPRIB5LLgNG2Ck9pOLpDnNRed9AQ73dnkhqzkZ4l4vqpAw,0,space,space,space,space,24731,5297,29321,24731,2,legacy,970,1920,24,1080,24,297,40,1920,1651071969738,1024,2,48000,-16,experiment,p1sarrcol4.png,0,even,MacIntel,93,117404,114399,92,93,636079,637594,631098,118932,631098,93,832672,834176,829685,637609,829685,visual_patterns,0,0,0,yes,1366
undefined,undefined,undefined,undefined,white,no,Mozilla,Netscape,"5.0 (Macintosh; Intel Mac OS X 10_15_7) AppleWebKit/605.1.15 (KHTML, like Gecko) Version/15.4 Safari/605.1.15",xpyriment,legacy,legacy,0,uniform,0,0,0,0,24,24,24,0,0,74,74,74,74,74,0,74,0,38,38,38,38,38,0,38,27-03-22,27-03-22,17:05:10,Wed Apr 27 2022 17:05:10 GMT+0200 (CEST),The main experiment item,yes,0,0,C:/Users/rrics/Documents/!!ResearchBMECOGSCI/gnet,0,0,0,prototype2.png,no,mono,no,18,no,black,no,no,768,1237,3.5.6,legacy,xpyriment,osweb,1.3.13,IwAR3rcqDdrMMP8LPRIB5LLgNG2Ck9pOLpDnNRed9AQ73dnkhqzkZ4l4vqpAw,0,space,space,space,space,24731,5297,29321,24731,2,legacy,970,1920,24,1080,24,297,40,1920,1651071969738,1024,2,48000,-16,experiment,p3sarrsha4.png,0,even,MacIntel,93,117404,114399,92,93,636079,637594,631098,118932,631098,93,837193,838698,834207,637609,834207,visual_patterns,0,0,0,yes,1366
undefined,undefined,undefined,undefined,white,no,Mozilla,Netscape,"5.0 (Macintosh; Intel Mac OS X 10_15_7) AppleWebKit/605.1.15 (KHTML, like Gecko) Version/15.4 Safari/605.1.15",xpyriment,legacy,legacy,0,uniform,0,0,0,0,24,24,24,0,0,74,74,74,74,74,0,74,0,39,39,39,39,39,0,39,27-03-22,27-03-22,17:05:10,Wed Apr 27 2022 17:05:10 GMT+0200 (CEST),The main experiment item,yes,0,0,C:/Users/rrics/Documents/!!ResearchBMECOGSCI/gnet,0,0,0,prototype2.png,no,mono,no,18,no,black,no,no,768,1237,3.5.6,legacy,xpyriment,osweb,1.3.13,IwAR3rcqDdrMMP8LPRIB5LLgNG2Ck9pOLpDnNRed9AQ73dnkhqzkZ4l4vqpAw,0,space,space,space,space,24731,5297,29321,24731,2,legacy,970,1920,24,1080,24,297,40,1920,1651071969738,1024,2,48000,-16,experiment,p3sarr1.png,0,even,MacIntel,93,117404,114399,92,93,636079,637594,631098,118932,631098,93,841710,843218,838725,637609,838725,visual_patterns,0,0,0,yes,1366
undefined,undefined,undefined,undefined,white,no,Mozilla,Netscape,"5.0 (Macintosh; Intel Mac OS X 10_15_7) AppleWebKit/605.1.15 (KHTML, like Gecko) Version/15.4 Safari/605.1.15",xpyriment,legacy,legacy,0,uniform,0,0,0,0,24,24,24,0,0,74,74,74,74,74,0,74,0,40,40,40,40,40,0,40,27-03-22,27-03-22,17:05:10,Wed Apr 27 2022 17:05:10 GMT+0200 (CEST),The main experiment item,yes,0,0,C:/Users/rrics/Documents/!!ResearchBMECOGSCI/gnet,0,0,0,prototype2.png,no,mono,no,18,no,black,no,no,768,1237,3.5.6,legacy,xpyriment,osweb,1.3.13,IwAR3rcqDdrMMP8LPRIB5LLgNG2Ck9pOLpDnNRed9AQ73dnkhqzkZ4l4vqpAw,0,space,space,space,space,24731,5297,29321,24731,2,legacy,970,1920,24,1080,24,297,40,1920,1651071969738,1024,2,48000,-16,experiment,p2sarrsha3.png,0,even,MacIntel,93,117404,114399,92,93,636079,637594,631098,118932,631098,93,846230,847741,843264,637609,843264,visual_patterns,0,0,0,yes,1366
undefined,undefined,undefined,undefined,white,no,Mozilla,Netscape,"5.0 (Macintosh; Intel Mac OS X 10_15_7) AppleWebKit/605.1.15 (KHTML, like Gecko) Version/15.4 Safari/605.1.15",xpyriment,legacy,legacy,0,uniform,0,0,0,0,24,24,24,0,0,74,74,74,74,74,0,74,0,41,41,41,41,41,0,41,27-03-22,27-03-22,17:05:10,Wed Apr 27 2022 17:05:10 GMT+0200 (CEST),The main experiment item,yes,0,0,C:/Users/rrics/Documents/!!ResearchBMECOGSCI/gnet,0,0,0,prototype2.png,no,mono,no,18,no,black,no,no,768,1237,3.5.6,legacy,xpyriment,osweb,1.3.13,IwAR3rcqDdrMMP8LPRIB5LLgNG2Ck9pOLpDnNRed9AQ73dnkhqzkZ4l4vqpAw,0,space,space,space,space,24731,5297,29321,24731,2,legacy,970,1920,24,1080,24,297,40,1920,1651071969738,1024,2,48000,-16,experiment,p9sarr3.png,0,even,MacIntel,93,117404,114399,92,93,636079,637594,631098,118932,631098,93,850757,852263,847770,637609,847770,visual_patterns,0,0,0,yes,1366
