acc,accuracy,average_response_time,avg_rt,background,bidi,browser_codename,browser_name,browser_version,canvas_backend,clock_backend,color_backend,compensation,coordinates,count_end,count_experiment,count_osweb,count_prestudy,count_prestudy_isi,count_prestudy_sequence,count_prestudy_stimpres,count_start,count_study,count_study_coroutines,count_study_isi,count_study_logger,count_study_response,count_study_sequence,count_study_start,count_study_stimpres,count_test,count_test_coroutines,count_test_isi,count_test_logger,count_test_response,count_test_sequence,count_test_start,count_test_stimpres,date_startdate,date_startdateUTC,date_starttime,datetime,description,disable_garbage_collection,experiment_debug,experiment_parameters,experiment_path,experiment_pilot,experiment_taskname,experiment_taskversion,fampict,font_bold,font_family,font_italic,font_size,font_underline,foreground,form_clicks,fullscreen,height,jatosStudyResultId,jatosVersion,keyboard_backend,mouse_backend,opensesame_codename,opensesame_version,repeat_cycle,response,response_start,response_study_start,response_test_start,response_time,response_time_start,response_time_study_start,response_time_test_start,round_decimals,sampler_backend,screen_availableHeight,screen_availableWidth,screen_colorDepth,screen_height,screen_pixelDepth,screen_screenX,screen_screenY,screen_width,sessionid,sound_buf_size,sound_channels,sound_freq,sound_sample_size,start,stim,subject_nr,subject_parity,system_os,time_prestudy,time_prestudy_isi,time_prestudy_stimpres,time_start,time_study,time_study_isi,time_study_logger,time_study_response,time_study_start,time_study_stimpres,time_test,time_test_isi,time_test_logger,time_test_response,time_test_start,time_test_stimpres,title,total_correct,total_response_time,total_responses,uniform_coordinates,width
undefined,undefined,undefined,undefined,white,no,Mozilla,Netscape,"5.0 (Windows NT 10.0; Win64; x64) AppleWebKit/537.36 (KHTML, like Gecko) Chrome/100.0.4896.127 Safari/537.36",xpyriment,legacy,legacy,0,uniform,0,0,0,0,24,24,24,0,0,0,0,0,0,0,0,0,0,,,,,,0,,29-03-22,29-03-22,19:33:56,Fri Apr 29 2022 19:33:56 GMT+0200 (közép-európai nyári idő),The main experiment item,yes,0,0,C:/Users/rrics/Documents/!!ResearchBMECOGSCI/gnet,0,0,0,prototype1.png,no,mono,no,18,no,black,no,no,768,1238,3.5.6,legacy,xpyriment,osweb,1.3.13,0,space,space,space,,76437,20184,76437,,2,legacy,680,1280,24,720,24,0,0,1280,1651253653657,1024,2,48000,-16,experiment,p6sarr1.png,1,odd,Win32,134,132064,129052,134,134,215044,216551,210045,133586,210045,134,,,,,,visual_patterns,0,0,0,yes,1366
undefined,undefined,undefined,undefined,white,no,Mozilla,Netscape,"5.0 (Windows NT 10.0; Win64; x64) AppleWebKit/537.36 (KHTML, like Gecko) Chrome/100.0.4896.127 Safari/537.36",xpyriment,legacy,legacy,0,uniform,0,0,0,0,24,24,24,0,0,1,1,1,1,1,0,1,0,,,,,,0,,29-03-22,29-03-22,19:33:56,Fri Apr 29 2022 19:33:56 GMT+0200 (közép-európai nyári idő),The main experiment item,yes,0,0,C:/Users/rrics/Documents/!!ResearchBMECOGSCI/gnet,0,0,0,prototype1.png,no,mono,no,18,no,black,no,no,768,1238,3.5.6,legacy,xpyriment,osweb,1.3.13,0,space,space,space,,76437,20184,76437,,2,legacy,680,1280,24,720,24,0,0,1280,1651253653657,1024,2,48000,-16,experiment,prototype3.png,1,odd,Win32,134,132064,129052,134,134,221569,223080,216569,133586,216569,134,,,,,,visual_patterns,0,0,0,yes,1366
undefined,undefined,undefined,undefined,white,no,Mozilla,Netscape,"5.0 (Windows NT 10.0; Win64; x64) AppleWebKit/537.36 (KHTML, like Gecko) Chrome/100.0.4896.127 Safari/537.36",xpyriment,legacy,legacy,0,uniform,0,0,0,0,24,24,24,0,0,2,2,2,2,2,0,2,0,,,,,,0,,29-03-22,29-03-22,19:33:56,Fri Apr 29 2022 19:33:56 GMT+0200 (közép-európai nyári idő),The main experiment item,yes,0,0,C:/Users/rrics/Documents/!!ResearchBMECOGSCI/gnet,0,0,0,prototype1.png,no,mono,no,18,no,black,no,no,768,1238,3.5.6,legacy,xpyriment,osweb,1.3.13,0,space,space,space,,76437,20184,76437,,2,legacy,680,1280,24,720,24,0,0,1280,1651253653657,1024,2,48000,-16,experiment,p3sarr1.png,1,odd,Win32,134,132064,129052,134,134,228091,229598,223090,133586,223090,134,,,,,,visual_patterns,0,0,0,yes,1366
undefined,undefined,undefined,undefined,white,no,Mozilla,Netscape,"5.0 (Windows NT 10.0; Win64; x64) AppleWebKit/537.36 (KHTML, like Gecko) Chrome/100.0.4896.127 Safari/537.36",xpyriment,legacy,legacy,0,uniform,0,0,0,0,24,24,24,0,0,3,3,3,3,3,0,3,0,,,,,,0,,29-03-22,29-03-22,19:33:56,Fri Apr 29 2022 19:33:56 GMT+0200 (közép-európai nyári idő),The main experiment item,yes,0,0,C:/Users/rrics/Documents/!!ResearchBMECOGSCI/gnet,0,0,0,prototype1.png,no,mono,no,18,no,black,no,no,768,1238,3.5.6,legacy,xpyriment,osweb,1.3.13,0,space,space,space,,76437,20184,76437,,2,legacy,680,1280,24,720,24,0,0,1280,1651253653657,1024,2,48000,-16,experiment,p9sarr2.png,1,odd,Win32,134,132064,129052,134,134,234606,236123,229605,133586,229605,134,,,,,,visual_patterns,0,0,0,yes,1366
undefined,undefined,undefined,undefined,white,no,Mozilla,Netscape,"5.0 (Windows NT 10.0; Win64; x64) AppleWebKit/537.36 (KHTML, like Gecko) Chrome/100.0.4896.127 Safari/537.36",xpyriment,legacy,legacy,0,uniform,0,0,0,0,24,24,24,0,0,4,4,4,4,4,0,4,0,,,,,,0,,29-03-22,29-03-22,19:33:56,Fri Apr 29 2022 19:33:56 GMT+0200 (közép-európai nyári idő),The main experiment item,yes,0,0,C:/Users/rrics/Documents/!!ResearchBMECOGSCI/gnet,0,0,0,prototype1.png,no,mono,no,18,no,black,no,no,768,1238,3.5.6,legacy,xpyriment,osweb,1.3.13,0,space,space,space,,76437,20184,76437,,2,legacy,680,1280,24,720,24,0,0,1280,1651253653657,1024,2,48000,-16,experiment,p4sarr2.png,1,odd,Win32,134,132064,129052,134,134,241130,242636,236128,133586,236128,134,,,,,,visual_patterns,0,0,0,yes,1366
undefined,undefined,undefined,undefined,white,no,Mozilla,Netscape,"5.0 (Windows NT 10.0; Win64; x64) AppleWebKit/537.36 (KHTML, like Gecko) Chrome/100.0.4896.127 Safari/537.36",xpyriment,legacy,legacy,0,uniform,0,0,0,0,24,24,24,0,0,5,5,5,5,5,0,5,0,,,,,,0,,29-03-22,29-03-22,19:33:56,Fri Apr 29 2022 19:33:56 GMT+0200 (közép-európai nyári idő),The main experiment item,yes,0,0,C:/Users/rrics/Documents/!!ResearchBMECOGSCI/gnet,0,0,0,prototype1.png,no,mono,no,18,no,black,no,no,768,1238,3.5.6,legacy,xpyriment,osweb,1.3.13,0,space,space,space,,76437,20184,76437,,2,legacy,680,1280,24,720,24,0,0,1280,1651253653657,1024,2,48000,-16,experiment,p4sarrshacol2.png,1,odd,Win32,134,132064,129052,134,134,247643,249149,242646,133586,242646,134,,,,,,visual_patterns,0,0,0,yes,1366
undefined,undefined,undefined,undefined,white,no,Mozilla,Netscape,"5.0 (Windows NT 10.0; Win64; x64) AppleWebKit/537.36 (KHTML, like Gecko) Chrome/100.0.4896.127 Safari/537.36",xpyriment,legacy,legacy,0,uniform,0,0,0,0,24,24,24,0,0,6,6,6,6,6,0,6,0,,,,,,0,,29-03-22,29-03-22,19:33:56,Fri Apr 29 2022 19:33:56 GMT+0200 (közép-európai nyári idő),The main experiment item,yes,0,0,C:/Users/rrics/Documents/!!ResearchBMECOGSCI/gnet,0,0,0,prototype1.png,no,mono,no,18,no,black,no,no,768,1238,3.5.6,legacy,xpyriment,osweb,1.3.13,0,space,space,space,,76437,20184,76437,,2,legacy,680,1280,24,720,24,0,0,1280,1651253653657,1024,2,48000,-16,experiment,p5sarrsha2.png,1,odd,Win32,134,132064,129052,134,134,254154,255662,249155,133586,249155,134,,,,,,visual_patterns,0,0,0,yes,1366
undefined,undefined,undefined,undefined,white,no,Mozilla,Netscape,"5.0 (Windows NT 10.0; Win64; x64) AppleWebKit/537.36 (KHTML, like Gecko) Chrome/100.0.4896.127 Safari/537.36",xpyriment,legacy,legacy,0,uniform,0,0,0,0,24,24,24,0,0,7,7,7,7,7,0,7,0,,,,,,0,,29-03-22,29-03-22,19:33:56,Fri Apr 29 2022 19:33:56 GMT+0200 (közép-európai nyári idő),The main experiment item,yes,0,0,C:/Users/rrics/Documents/!!ResearchBMECOGSCI/gnet,0,0,0,prototype1.png,no,mono,no,18,no,black,no,no,768,1238,3.5.6,legacy,xpyriment,osweb,1.3.13,0,space,space,space,,76437,20184,76437,,2,legacy,680,1280,24,720,24,0,0,1280,1651253653657,1024,2,48000,-16,experiment,p2sarr1.png,1,odd,Win32,134,132064,129052,134,134,260669,262175,255669,133586,255669,134,,,,,,visual_patterns,0,0,0,yes,1366
undefined,undefined,undefined,undefined,white,no,Mozilla,Netscape,"5.0 (Windows NT 10.0; Win64; x64) AppleWebKit/537.36 (KHTML, like Gecko) Chrome/100.0.4896.127 Safari/537.36",xpyriment,legacy,legacy,0,uniform,0,0,0,0,24,24,24,0,0,8,8,8,8,8,0,8,0,,,,,,0,,29-03-22,29-03-22,19:33:56,Fri Apr 29 2022 19:33:56 GMT+0200 (közép-európai nyári idő),The main experiment item,yes,0,0,C:/Users/rrics/Documents/!!ResearchBMECOGSCI/gnet,0,0,0,prototype1.png,no,mono,no,18,no,black,no,no,768,1238,3.5.6,legacy,xpyriment,osweb,1.3.13,0,space,space,space,,76437,20184,76437,,2,legacy,680,1280,24,720,24,0,0,1280,1651253653657,1024,2,48000,-16,experiment,prototype4.png,1,odd,Win32,134,132064,129052,134,134,267184,268688,262181,133586,262181,134,,,,,,visual_patterns,0,0,0,yes,1366
undefined,undefined,undefined,undefined,white,no,Mozilla,Netscape,"5.0 (Windows NT 10.0; Win64; x64) AppleWebKit/537.36 (KHTML, like Gecko) Chrome/100.0.4896.127 Safari/537.36",xpyriment,legacy,legacy,0,uniform,0,0,0,0,24,24,24,0,0,9,9,9,9,9,0,9,0,,,,,,0,,29-03-22,29-03-22,19:33:56,Fri Apr 29 2022 19:33:56 GMT+0200 (közép-európai nyári idő),The main experiment item,yes,0,0,C:/Users/rrics/Documents/!!ResearchBMECOGSCI/gnet,0,0,0,prototype1.png,no,mono,no,18,no,black,no,no,768,1238,3.5.6,legacy,xpyriment,osweb,1.3.13,0,space,space,space,,76437,20184,76437,,2,legacy,680,1280,24,720,24,0,0,1280,1651253653657,1024,2,48000,-16,experiment,p5sarrsha1.png,1,odd,Win32,134,132064,129052,134,134,273695,275201,268694,133586,268694,134,,,,,,visual_patterns,0,0,0,yes,1366
undefined,undefined,undefined,undefined,white,no,Mozilla,Netscape,"5.0 (Windows NT 10.0; Win64; x64) AppleWebKit/537.36 (KHTML, like Gecko) Chrome/100.0.4896.127 Safari/537.36",xpyriment,legacy,legacy,0,uniform,0,0,0,0,24,24,24,0,0,10,10,10,10,10,0,10,0,,,,,,0,,29-03-22,29-03-22,19:33:56,Fri Apr 29 2022 19:33:56 GMT+0200 (közép-európai nyári idő),The main experiment item,yes,0,0,C:/Users/rrics/Documents/!!ResearchBMECOGSCI/gnet,0,0,0,prototype1.png,no,mono,no,18,no,black,no,no,768,1238,3.5.6,legacy,xpyriment,osweb,1.3.13,0,space,space,space,,76437,20184,76437,,2,legacy,680,1280,24,720,24,0,0,1280,1651253653657,1024,2,48000,-16,experiment,p5sarrcol1.png,1,odd,Win32,134,132064,129052,134,134,280207,281715,275207,133586,275207,134,,,,,,visual_patterns,0,0,0,yes,1366
undefined,undefined,undefined,undefined,white,no,Mozilla,Netscape,"5.0 (Windows NT 10.0; Win64; x64) AppleWebKit/537.36 (KHTML, like Gecko) Chrome/100.0.4896.127 Safari/537.36",xpyriment,legacy,legacy,0,uniform,0,0,0,0,24,24,24,0,0,11,11,11,11,11,0,11,0,,,,,,0,,29-03-22,29-03-22,19:33:56,Fri Apr 29 2022 19:33:56 GMT+0200 (közép-európai nyári idő),The main experiment item,yes,0,0,C:/Users/rrics/Documents/!!ResearchBMECOGSCI/gnet,0,0,0,prototype1.png,no,mono,no,18,no,black,no,no,768,1238,3.5.6,legacy,xpyriment,osweb,1.3.13,0,space,space,space,,76437,20184,76437,,2,legacy,680,1280,24,720,24,0,0,1280,1651253653657,1024,2,48000,-16,experiment,p8sarr2.png,1,odd,Win32,134,132064,129052,134,134,286730,288244,281730,133586,281730,134,,,,,,visual_patterns,0,0,0,yes,1366
undefined,undefined,undefined,undefined,white,no,Mozilla,Netscape,"5.0 (Windows NT 10.0; Win64; x64) AppleWebKit/537.36 (KHTML, like Gecko) Chrome/100.0.4896.127 Safari/537.36",xpyriment,legacy,legacy,0,uniform,0,0,0,0,24,24,24,0,0,12,12,12,12,12,0,12,0,,,,,,0,,29-03-22,29-03-22,19:33:56,Fri Apr 29 2022 19:33:56 GMT+0200 (közép-európai nyári idő),The main experiment item,yes,0,0,C:/Users/rrics/Documents/!!ResearchBMECOGSCI/gnet,0,0,0,prototype1.png,no,mono,no,18,no,black,no,no,768,1238,3.5.6,legacy,xpyriment,osweb,1.3.13,0,space,space,space,,76437,20184,76437,,2,legacy,680,1280,24,720,24,0,0,1280,1651253653657,1024,2,48000,-16,experiment,p5sarrshacol2.png,1,odd,Win32,134,132064,129052,134,134,293251,294757,288249,133586,288249,134,,,,,,visual_patterns,0,0,0,yes,1366
undefined,undefined,undefined,undefined,white,no,Mozilla,Netscape,"5.0 (Windows NT 10.0; Win64; x64) AppleWebKit/537.36 (KHTML, like Gecko) Chrome/100.0.4896.127 Safari/537.36",xpyriment,legacy,legacy,0,uniform,0,0,0,0,24,24,24,0,0,13,13,13,13,13,0,13,0,,,,,,0,,29-03-22,29-03-22,19:33:56,Fri Apr 29 2022 19:33:56 GMT+0200 (közép-európai nyári idő),The main experiment item,yes,0,0,C:/Users/rrics/Documents/!!ResearchBMECOGSCI/gnet,0,0,0,prototype1.png,no,mono,no,18,no,black,no,no,768,1238,3.5.6,legacy,xpyriment,osweb,1.3.13,0,space,space,space,,76437,20184,76437,,2,legacy,680,1280,24,720,24,0,0,1280,1651253653657,1024,2,48000,-16,experiment,p8sarr1.png,1,odd,Win32,134,132064,129052,134,134,299762,301271,294764,133586,294764,134,,,,,,visual_patterns,0,0,0,yes,1366
undefined,undefined,undefined,undefined,white,no,Mozilla,Netscape,"5.0 (Windows NT 10.0; Win64; x64) AppleWebKit/537.36 (KHTML, like Gecko) Chrome/100.0.4896.127 Safari/537.36",xpyriment,legacy,legacy,0,uniform,0,0,0,0,24,24,24,0,0,14,14,14,14,14,0,14,0,,,,,,0,,29-03-22,29-03-22,19:33:56,Fri Apr 29 2022 19:33:56 GMT+0200 (közép-európai nyári idő),The main experiment item,yes,0,0,C:/Users/rrics/Documents/!!ResearchBMECOGSCI/gnet,0,0,0,prototype1.png,no,mono,no,18,no,black,no,no,768,1238,3.5.6,legacy,xpyriment,osweb,1.3.13,0,space,space,space,,76437,20184,76437,,2,legacy,680,1280,24,720,24,0,0,1280,1651253653657,1024,2,48000,-16,experiment,p3sarrcol1.png,1,odd,Win32,134,132064,129052,134,134,306280,307784,301277,133586,301277,134,,,,,,visual_patterns,0,0,0,yes,1366
undefined,undefined,undefined,undefined,white,no,Mozilla,Netscape,"5.0 (Windows NT 10.0; Win64; x64) AppleWebKit/537.36 (KHTML, like Gecko) Chrome/100.0.4896.127 Safari/537.36",xpyriment,legacy,legacy,0,uniform,0,0,0,0,24,24,24,0,0,15,15,15,15,15,0,15,0,,,,,,0,,29-03-22,29-03-22,19:33:56,Fri Apr 29 2022 19:33:56 GMT+0200 (közép-európai nyári idő),The main experiment item,yes,0,0,C:/Users/rrics/Documents/!!ResearchBMECOGSCI/gnet,0,0,0,prototype1.png,no,mono,no,18,no,black,no,no,768,1238,3.5.6,legacy,xpyriment,osweb,1.3.13,0,space,space,space,,76437,20184,76437,,2,legacy,680,1280,24,720,24,0,0,1280,1651253653657,1024,2,48000,-16,experiment,prototype1.png,1,odd,Win32,134,132064,129052,134,134,312792,314297,307791,133586,307791,134,,,,,,visual_patterns,0,0,0,yes,1366
undefined,undefined,undefined,undefined,white,no,Mozilla,Netscape,"5.0 (Windows NT 10.0; Win64; x64) AppleWebKit/537.36 (KHTML, like Gecko) Chrome/100.0.4896.127 Safari/537.36",xpyriment,legacy,legacy,0,uniform,0,0,0,0,24,24,24,0,0,16,16,16,16,16,0,16,0,,,,,,0,,29-03-22,29-03-22,19:33:56,Fri Apr 29 2022 19:33:56 GMT+0200 (közép-európai nyári idő),The main experiment item,yes,0,0,C:/Users/rrics/Documents/!!ResearchBMECOGSCI/gnet,0,0,0,prototype1.png,no,mono,no,18,no,black,no,no,768,1238,3.5.6,legacy,xpyriment,osweb,1.3.13,0,space,space,space,,76437,20184,76437,,2,legacy,680,1280,24,720,24,0,0,1280,1651253653657,1024,2,48000,-16,experiment,p2sarr2.png,1,odd,Win32,134,132064,129052,134,134,319310,320826,314311,133586,314311,134,,,,,,visual_patterns,0,0,0,yes,1366
undefined,undefined,undefined,undefined,white,no,Mozilla,Netscape,"5.0 (Windows NT 10.0; Win64; x64) AppleWebKit/537.36 (KHTML, like Gecko) Chrome/100.0.4896.127 Safari/537.36",xpyriment,legacy,legacy,0,uniform,0,0,0,0,24,24,24,0,0,17,17,17,17,17,0,17,0,,,,,,0,,29-03-22,29-03-22,19:33:56,Fri Apr 29 2022 19:33:56 GMT+0200 (közép-európai nyári idő),The main experiment item,yes,0,0,C:/Users/rrics/Documents/!!ResearchBMECOGSCI/gnet,0,0,0,prototype1.png,no,mono,no,18,no,black,no,no,768,1238,3.5.6,legacy,xpyriment,osweb,1.3.13,0,space,space,space,,76437,20184,76437,,2,legacy,680,1280,24,720,24,0,0,1280,1651253653657,1024,2,48000,-16,experiment,p3sarrsha2.png,1,odd,Win32,134,132064,129052,134,134,325831,327339,320832,133586,320832,134,,,,,,visual_patterns,0,0,0,yes,1366
undefined,undefined,undefined,undefined,white,no,Mozilla,Netscape,"5.0 (Windows NT 10.0; Win64; x64) AppleWebKit/537.36 (KHTML, like Gecko) Chrome/100.0.4896.127 Safari/537.36",xpyriment,legacy,legacy,0,uniform,0,0,0,0,24,24,24,0,0,18,18,18,18,18,0,18,0,,,,,,0,,29-03-22,29-03-22,19:33:56,Fri Apr 29 2022 19:33:56 GMT+0200 (közép-európai nyári idő),The main experiment item,yes,0,0,C:/Users/rrics/Documents/!!ResearchBMECOGSCI/gnet,0,0,0,prototype1.png,no,mono,no,18,no,black,no,no,768,1238,3.5.6,legacy,xpyriment,osweb,1.3.13,0,space,space,space,,76437,20184,76437,,2,legacy,680,1280,24,720,24,0,0,1280,1651253653657,1024,2,48000,-16,experiment,prototype4.png,1,odd,Win32,134,132064,129052,134,134,332346,333852,327343,133586,327343,134,,,,,,visual_patterns,0,0,0,yes,1366
undefined,undefined,undefined,undefined,white,no,Mozilla,Netscape,"5.0 (Windows NT 10.0; Win64; x64) AppleWebKit/537.36 (KHTML, like Gecko) Chrome/100.0.4896.127 Safari/537.36",xpyriment,legacy,legacy,0,uniform,0,0,0,0,24,24,24,0,0,19,19,19,19,19,0,19,0,,,,,,0,,29-03-22,29-03-22,19:33:56,Fri Apr 29 2022 19:33:56 GMT+0200 (közép-európai nyári idő),The main experiment item,yes,0,0,C:/Users/rrics/Documents/!!ResearchBMECOGSCI/gnet,0,0,0,prototype1.png,no,mono,no,18,no,black,no,no,768,1238,3.5.6,legacy,xpyriment,osweb,1.3.13,0,space,space,space,,76437,20184,76437,,2,legacy,680,1280,24,720,24,0,0,1280,1651253653657,1024,2,48000,-16,experiment,p3sarrsha1.png,1,odd,Win32,134,132064,129052,134,134,338859,340366,333858,133586,333858,134,,,,,,visual_patterns,0,0,0,yes,1366
undefined,undefined,undefined,undefined,white,no,Mozilla,Netscape,"5.0 (Windows NT 10.0; Win64; x64) AppleWebKit/537.36 (KHTML, like Gecko) Chrome/100.0.4896.127 Safari/537.36",xpyriment,legacy,legacy,0,uniform,0,0,0,0,24,24,24,0,0,20,20,20,20,20,0,20,0,,,,,,0,,29-03-22,29-03-22,19:33:56,Fri Apr 29 2022 19:33:56 GMT+0200 (közép-európai nyári idő),The main experiment item,yes,0,0,C:/Users/rrics/Documents/!!ResearchBMECOGSCI/gnet,0,0,0,prototype1.png,no,mono,no,18,no,black,no,no,768,1238,3.5.6,legacy,xpyriment,osweb,1.3.13,0,space,space,space,,76437,20184,76437,,2,legacy,680,1280,24,720,24,0,0,1280,1651253653657,1024,2,48000,-16,experiment,prototype2.png,1,odd,Win32,134,132064,129052,134,134,345376,346879,340373,133586,340373,134,,,,,,visual_patterns,0,0,0,yes,1366
undefined,undefined,undefined,undefined,white,no,Mozilla,Netscape,"5.0 (Windows NT 10.0; Win64; x64) AppleWebKit/537.36 (KHTML, like Gecko) Chrome/100.0.4896.127 Safari/537.36",xpyriment,legacy,legacy,0,uniform,0,0,0,0,24,24,24,0,0,21,21,21,21,21,0,21,0,,,,,,0,,29-03-22,29-03-22,19:33:56,Fri Apr 29 2022 19:33:56 GMT+0200 (közép-európai nyári idő),The main experiment item,yes,0,0,C:/Users/rrics/Documents/!!ResearchBMECOGSCI/gnet,0,0,0,prototype1.png,no,mono,no,18,no,black,no,no,768,1238,3.5.6,legacy,xpyriment,osweb,1.3.13,0,space,space,space,,76437,20184,76437,,2,legacy,680,1280,24,720,24,0,0,1280,1651253653657,1024,2,48000,-16,experiment,p4sarrcol2.png,1,odd,Win32,134,132064,129052,134,134,351892,353409,346890,133586,346890,134,,,,,,visual_patterns,0,0,0,yes,1366
undefined,undefined,undefined,undefined,white,no,Mozilla,Netscape,"5.0 (Windows NT 10.0; Win64; x64) AppleWebKit/537.36 (KHTML, like Gecko) Chrome/100.0.4896.127 Safari/537.36",xpyriment,legacy,legacy,0,uniform,0,0,0,0,24,24,24,0,0,22,22,22,22,22,0,22,0,,,,,,0,,29-03-22,29-03-22,19:33:56,Fri Apr 29 2022 19:33:56 GMT+0200 (közép-európai nyári idő),The main experiment item,yes,0,0,C:/Users/rrics/Documents/!!ResearchBMECOGSCI/gnet,0,0,0,prototype1.png,no,mono,no,18,no,black,no,no,768,1238,3.5.6,legacy,xpyriment,osweb,1.3.13,0,space,space,space,,76437,20184,76437,,2,legacy,680,1280,24,720,24,0,0,1280,1651253653657,1024,2,48000,-16,experiment,p5sarrshacol1.png,1,odd,Win32,134,132064,129052,134,134,358416,359922,353417,133586,353417,134,,,,,,visual_patterns,0,0,0,yes,1366
undefined,undefined,undefined,undefined,white,no,Mozilla,Netscape,"5.0 (Windows NT 10.0; Win64; x64) AppleWebKit/537.36 (KHTML, like Gecko) Chrome/100.0.4896.127 Safari/537.36",xpyriment,legacy,legacy,0,uniform,0,0,0,0,24,24,24,0,0,23,23,23,23,23,0,23,0,,,,,,0,,29-03-22,29-03-22,19:33:56,Fri Apr 29 2022 19:33:56 GMT+0200 (közép-európai nyári idő),The main experiment item,yes,0,0,C:/Users/rrics/Documents/!!ResearchBMECOGSCI/gnet,0,0,0,prototype1.png,no,mono,no,18,no,black,no,no,768,1238,3.5.6,legacy,xpyriment,osweb,1.3.13,0,space,space,space,,76437,20184,76437,,2,legacy,680,1280,24,720,24,0,0,1280,1651253653657,1024,2,48000,-16,experiment,prototype2.png,1,odd,Win32,134,132064,129052,134,134,364937,366451,359936,133586,359936,134,,,,,,visual_patterns,0,0,0,yes,1366
undefined,undefined,undefined,undefined,white,no,Mozilla,Netscape,"5.0 (Windows NT 10.0; Win64; x64) AppleWebKit/537.36 (KHTML, like Gecko) Chrome/100.0.4896.127 Safari/537.36",xpyriment,legacy,legacy,0,uniform,0,0,0,0,24,24,24,0,0,24,24,24,24,24,0,24,0,,,,,,0,,29-03-22,29-03-22,19:33:56,Fri Apr 29 2022 19:33:56 GMT+0200 (közép-európai nyári idő),The main experiment item,yes,0,0,C:/Users/rrics/Documents/!!ResearchBMECOGSCI/gnet,0,0,0,prototype1.png,no,mono,no,18,no,black,no,no,768,1238,3.5.6,legacy,xpyriment,osweb,1.3.13,0,space,space,space,,76437,20184,76437,,2,legacy,680,1280,24,720,24,0,0,1280,1651253653657,1024,2,48000,-16,experiment,p4sarrsha2.png,1,odd,Win32,134,132064,129052,134,134,371458,372965,366457,133586,366457,134,,,,,,visual_patterns,0,0,0,yes,1366
undefined,undefined,undefined,undefined,white,no,Mozilla,Netscape,"5.0 (Windows NT 10.0; Win64; x64) AppleWebKit/537.36 (KHTML, like Gecko) Chrome/100.0.4896.127 Safari/537.36",xpyriment,legacy,legacy,0,uniform,0,0,0,0,24,24,24,0,0,25,25,25,25,25,0,25,0,,,,,,0,,29-03-22,29-03-22,19:33:56,Fri Apr 29 2022 19:33:56 GMT+0200 (közép-európai nyári idő),The main experiment item,yes,0,0,C:/Users/rrics/Documents/!!ResearchBMECOGSCI/gnet,0,0,0,prototype1.png,no,mono,no,18,no,black,no,no,768,1238,3.5.6,legacy,xpyriment,osweb,1.3.13,0,space,space,space,,76437,20184,76437,,2,legacy,680,1280,24,720,24,0,0,1280,1651253653657,1024,2,48000,-16,experiment,p9sarr1.png,1,odd,Win32,134,132064,129052,134,134,377972,379478,372973,133586,372973,134,,,,,,visual_patterns,0,0,0,yes,1366
undefined,undefined,undefined,undefined,white,no,Mozilla,Netscape,"5.0 (Windows NT 10.0; Win64; x64) AppleWebKit/537.36 (KHTML, like Gecko) Chrome/100.0.4896.127 Safari/537.36",xpyriment,legacy,legacy,0,uniform,0,0,0,0,24,24,24,0,0,26,26,26,26,26,0,26,0,,,,,,0,,29-03-22,29-03-22,19:33:56,Fri Apr 29 2022 19:33:56 GMT+0200 (közép-európai nyári idő),The main experiment item,yes,0,0,C:/Users/rrics/Documents/!!ResearchBMECOGSCI/gnet,0,0,0,prototype1.png,no,mono,no,18,no,black,no,no,768,1238,3.5.6,legacy,xpyriment,osweb,1.3.13,0,space,space,space,,76437,20184,76437,,2,legacy,680,1280,24,720,24,0,0,1280,1651253653657,1024,2,48000,-16,experiment,prototype1.png,1,odd,Win32,134,132064,129052,134,134,384493,386007,379491,133586,379491,134,,,,,,visual_patterns,0,0,0,yes,1366
undefined,undefined,undefined,undefined,white,no,Mozilla,Netscape,"5.0 (Windows NT 10.0; Win64; x64) AppleWebKit/537.36 (KHTML, like Gecko) Chrome/100.0.4896.127 Safari/537.36",xpyriment,legacy,legacy,0,uniform,0,0,0,0,24,24,24,0,0,27,27,27,27,27,0,27,0,,,,,,0,,29-03-22,29-03-22,19:33:56,Fri Apr 29 2022 19:33:56 GMT+0200 (közép-európai nyári idő),The main experiment item,yes,0,0,C:/Users/rrics/Documents/!!ResearchBMECOGSCI/gnet,0,0,0,prototype1.png,no,mono,no,18,no,black,no,no,768,1238,3.5.6,legacy,xpyriment,osweb,1.3.13,0,space,space,space,,76437,20184,76437,,2,legacy,680,1280,24,720,24,0,0,1280,1651253653657,1024,2,48000,-16,experiment,p4sarrcol1.png,1,odd,Win32,134,132064,129052,134,134,391014,392521,386012,133586,386012,134,,,,,,visual_patterns,0,0,0,yes,1366
undefined,undefined,undefined,undefined,white,no,Mozilla,Netscape,"5.0 (Windows NT 10.0; Win64; x64) AppleWebKit/537.36 (KHTML, like Gecko) Chrome/100.0.4896.127 Safari/537.36",xpyriment,legacy,legacy,0,uniform,0,0,0,0,24,24,24,0,0,28,28,28,28,28,0,28,0,,,,,,0,,29-03-22,29-03-22,19:33:56,Fri Apr 29 2022 19:33:56 GMT+0200 (közép-európai nyári idő),The main experiment item,yes,0,0,C:/Users/rrics/Documents/!!ResearchBMECOGSCI/gnet,0,0,0,prototype1.png,no,mono,no,18,no,black,no,no,768,1238,3.5.6,legacy,xpyriment,osweb,1.3.13,0,space,space,space,,76437,20184,76437,,2,legacy,680,1280,24,720,24,0,0,1280,1651253653657,1024,2,48000,-16,experiment,prototype4.png,1,odd,Win32,134,132064,129052,134,134,397533,399050,392529,133586,392529,134,,,,,,visual_patterns,0,0,0,yes,1366
undefined,undefined,undefined,undefined,white,no,Mozilla,Netscape,"5.0 (Windows NT 10.0; Win64; x64) AppleWebKit/537.36 (KHTML, like Gecko) Chrome/100.0.4896.127 Safari/537.36",xpyriment,legacy,legacy,0,uniform,0,0,0,0,24,24,24,0,0,29,29,29,29,29,0,29,0,,,,,,0,,29-03-22,29-03-22,19:33:56,Fri Apr 29 2022 19:33:56 GMT+0200 (közép-európai nyári idő),The main experiment item,yes,0,0,C:/Users/rrics/Documents/!!ResearchBMECOGSCI/gnet,0,0,0,prototype1.png,no,mono,no,18,no,black,no,no,768,1238,3.5.6,legacy,xpyriment,osweb,1.3.13,0,space,space,space,,76437,20184,76437,,2,legacy,680,1280,24,720,24,0,0,1280,1651253653657,1024,2,48000,-16,experiment,prototype5.png,1,odd,Win32,134,132064,129052,134,134,404056,405564,399054,133586,399054,134,,,,,,visual_patterns,0,0,0,yes,1366
undefined,undefined,undefined,undefined,white,no,Mozilla,Netscape,"5.0 (Windows NT 10.0; Win64; x64) AppleWebKit/537.36 (KHTML, like Gecko) Chrome/100.0.4896.127 Safari/537.36",xpyriment,legacy,legacy,0,uniform,0,0,0,0,24,24,24,0,0,30,30,30,30,30,0,30,0,,,,,,0,,29-03-22,29-03-22,19:33:56,Fri Apr 29 2022 19:33:56 GMT+0200 (közép-európai nyári idő),The main experiment item,yes,0,0,C:/Users/rrics/Documents/!!ResearchBMECOGSCI/gnet,0,0,0,prototype1.png,no,mono,no,18,no,black,no,no,768,1238,3.5.6,legacy,xpyriment,osweb,1.3.13,0,space,space,space,,76437,20184,76437,,2,legacy,680,1280,24,720,24,0,0,1280,1651253653657,1024,2,48000,-16,experiment,p5sarrcol2.png,1,odd,Win32,134,132064,129052,134,134,410577,412093,405574,133586,405574,134,,,,,,visual_patterns,0,0,0,yes,1366
undefined,undefined,undefined,undefined,white,no,Mozilla,Netscape,"5.0 (Windows NT 10.0; Win64; x64) AppleWebKit/537.36 (KHTML, like Gecko) Chrome/100.0.4896.127 Safari/537.36",xpyriment,legacy,legacy,0,uniform,0,0,0,0,24,24,24,0,0,31,31,31,31,31,0,31,0,,,,,,0,,29-03-22,29-03-22,19:33:56,Fri Apr 29 2022 19:33:56 GMT+0200 (közép-európai nyári idő),The main experiment item,yes,0,0,C:/Users/rrics/Documents/!!ResearchBMECOGSCI/gnet,0,0,0,prototype1.png,no,mono,no,18,no,black,no,no,768,1238,3.5.6,legacy,xpyriment,osweb,1.3.13,0,space,space,space,,76437,20184,76437,,2,legacy,680,1280,24,720,24,0,0,1280,1651253653657,1024,2,48000,-16,experiment,p2sarrsha2.png,1,odd,Win32,134,132064,129052,134,134,417105,418607,412107,133586,412107,134,,,,,,visual_patterns,0,0,0,yes,1366
undefined,undefined,undefined,undefined,white,no,Mozilla,Netscape,"5.0 (Windows NT 10.0; Win64; x64) AppleWebKit/537.36 (KHTML, like Gecko) Chrome/100.0.4896.127 Safari/537.36",xpyriment,legacy,legacy,0,uniform,0,0,0,0,24,24,24,0,0,32,32,32,32,32,0,32,0,,,,,,0,,29-03-22,29-03-22,19:33:56,Fri Apr 29 2022 19:33:56 GMT+0200 (közép-európai nyári idő),The main experiment item,yes,0,0,C:/Users/rrics/Documents/!!ResearchBMECOGSCI/gnet,0,0,0,prototype1.png,no,mono,no,18,no,black,no,no,768,1238,3.5.6,legacy,xpyriment,osweb,1.3.13,0,space,space,space,,76437,20184,76437,,2,legacy,680,1280,24,720,24,0,0,1280,1651253653657,1024,2,48000,-16,experiment,p5sarr1.png,1,odd,Win32,134,132064,129052,134,134,423616,425119,418615,133586,418615,134,,,,,,visual_patterns,0,0,0,yes,1366
undefined,undefined,undefined,undefined,white,no,Mozilla,Netscape,"5.0 (Windows NT 10.0; Win64; x64) AppleWebKit/537.36 (KHTML, like Gecko) Chrome/100.0.4896.127 Safari/537.36",xpyriment,legacy,legacy,0,uniform,0,0,0,0,24,24,24,0,0,33,33,33,33,33,0,33,0,,,,,,0,,29-03-22,29-03-22,19:33:56,Fri Apr 29 2022 19:33:56 GMT+0200 (közép-európai nyári idő),The main experiment item,yes,0,0,C:/Users/rrics/Documents/!!ResearchBMECOGSCI/gnet,0,0,0,prototype1.png,no,mono,no,18,no,black,no,no,768,1238,3.5.6,legacy,xpyriment,osweb,1.3.13,0,space,space,space,,76437,20184,76437,,2,legacy,680,1280,24,720,24,0,0,1280,1651253653657,1024,2,48000,-16,experiment,p3sarrshacol1.png,1,odd,Win32,134,132064,129052,134,134,430135,431649,425132,133586,425132,134,,,,,,visual_patterns,0,0,0,yes,1366
undefined,undefined,undefined,undefined,white,no,Mozilla,Netscape,"5.0 (Windows NT 10.0; Win64; x64) AppleWebKit/537.36 (KHTML, like Gecko) Chrome/100.0.4896.127 Safari/537.36",xpyriment,legacy,legacy,0,uniform,0,0,0,0,24,24,24,0,0,34,34,34,34,34,0,34,0,,,,,,0,,29-03-22,29-03-22,19:33:56,Fri Apr 29 2022 19:33:56 GMT+0200 (közép-európai nyári idő),The main experiment item,yes,0,0,C:/Users/rrics/Documents/!!ResearchBMECOGSCI/gnet,0,0,0,prototype1.png,no,mono,no,18,no,black,no,no,768,1238,3.5.6,legacy,xpyriment,osweb,1.3.13,0,space,space,space,,76437,20184,76437,,2,legacy,680,1280,24,720,24,0,0,1280,1651253653657,1024,2,48000,-16,experiment,prototype1.png,1,odd,Win32,134,132064,129052,134,134,436656,438163,431652,133586,431652,134,,,,,,visual_patterns,0,0,0,yes,1366
undefined,undefined,undefined,undefined,white,no,Mozilla,Netscape,"5.0 (Windows NT 10.0; Win64; x64) AppleWebKit/537.36 (KHTML, like Gecko) Chrome/100.0.4896.127 Safari/537.36",xpyriment,legacy,legacy,0,uniform,0,0,0,0,24,24,24,0,0,35,35,35,35,35,0,35,0,,,,,,0,,29-03-22,29-03-22,19:33:56,Fri Apr 29 2022 19:33:56 GMT+0200 (közép-európai nyári idő),The main experiment item,yes,0,0,C:/Users/rrics/Documents/!!ResearchBMECOGSCI/gnet,0,0,0,prototype1.png,no,mono,no,18,no,black,no,no,768,1238,3.5.6,legacy,xpyriment,osweb,1.3.13,0,space,space,space,,76437,20184,76437,,2,legacy,680,1280,24,720,24,0,0,1280,1651253653657,1024,2,48000,-16,experiment,p4sarrshacol1.png,1,odd,Win32,134,132064,129052,134,134,443174,444676,438171,133586,438171,134,,,,,,visual_patterns,0,0,0,yes,1366
undefined,undefined,undefined,undefined,white,no,Mozilla,Netscape,"5.0 (Windows NT 10.0; Win64; x64) AppleWebKit/537.36 (KHTML, like Gecko) Chrome/100.0.4896.127 Safari/537.36",xpyriment,legacy,legacy,0,uniform,0,0,0,0,24,24,24,0,0,36,36,36,36,36,0,36,0,,,,,,0,,29-03-22,29-03-22,19:33:56,Fri Apr 29 2022 19:33:56 GMT+0200 (közép-európai nyári idő),The main experiment item,yes,0,0,C:/Users/rrics/Documents/!!ResearchBMECOGSCI/gnet,0,0,0,prototype1.png,no,mono,no,18,no,black,no,no,768,1238,3.5.6,legacy,xpyriment,osweb,1.3.13,0,space,space,space,,76437,20184,76437,,2,legacy,680,1280,24,720,24,0,0,1280,1651253653657,1024,2,48000,-16,experiment,prototype3.png,1,odd,Win32,134,132064,129052,134,134,449689,451206,444688,133586,444688,134,,,,,,visual_patterns,0,0,0,yes,1366
undefined,undefined,undefined,undefined,white,no,Mozilla,Netscape,"5.0 (Windows NT 10.0; Win64; x64) AppleWebKit/537.36 (KHTML, like Gecko) Chrome/100.0.4896.127 Safari/537.36",xpyriment,legacy,legacy,0,uniform,0,0,0,0,24,24,24,0,0,37,37,37,37,37,0,37,0,,,,,,0,,29-03-22,29-03-22,19:33:56,Fri Apr 29 2022 19:33:56 GMT+0200 (közép-európai nyári idő),The main experiment item,yes,0,0,C:/Users/rrics/Documents/!!ResearchBMECOGSCI/gnet,0,0,0,prototype1.png,no,mono,no,18,no,black,no,no,768,1238,3.5.6,legacy,xpyriment,osweb,1.3.13,0,space,space,space,,76437,20184,76437,,2,legacy,680,1280,24,720,24,0,0,1280,1651253653657,1024,2,48000,-16,experiment,prototype3.png,1,odd,Win32,134,132064,129052,134,134,456217,457719,451214,133586,451214,134,,,,,,visual_patterns,0,0,0,yes,1366
undefined,undefined,undefined,undefined,white,no,Mozilla,Netscape,"5.0 (Windows NT 10.0; Win64; x64) AppleWebKit/537.36 (KHTML, like Gecko) Chrome/100.0.4896.127 Safari/537.36",xpyriment,legacy,legacy,0,uniform,0,0,0,0,24,24,24,0,0,38,38,38,38,38,0,38,0,,,,,,0,,29-03-22,29-03-22,19:33:56,Fri Apr 29 2022 19:33:56 GMT+0200 (közép-európai nyári idő),The main experiment item,yes,0,0,C:/Users/rrics/Documents/!!ResearchBMECOGSCI/gnet,0,0,0,prototype1.png,no,mono,no,18,no,black,no,no,768,1238,3.5.6,legacy,xpyriment,osweb,1.3.13,0,space,space,space,,76437,20184,76437,,2,legacy,680,1280,24,720,24,0,0,1280,1651253653657,1024,2,48000,-16,experiment,p7sarr1.png,1,odd,Win32,134,132064,129052,134,134,462730,464232,457727,133586,457727,134,,,,,,visual_patterns,0,0,0,yes,1366
undefined,undefined,undefined,undefined,white,no,Mozilla,Netscape,"5.0 (Windows NT 10.0; Win64; x64) AppleWebKit/537.36 (KHTML, like Gecko) Chrome/100.0.4896.127 Safari/537.36",xpyriment,legacy,legacy,0,uniform,0,0,0,0,24,24,24,0,0,39,39,39,39,39,0,39,0,,,,,,0,,29-03-22,29-03-22,19:33:56,Fri Apr 29 2022 19:33:56 GMT+0200 (közép-európai nyári idő),The main experiment item,yes,0,0,C:/Users/rrics/Documents/!!ResearchBMECOGSCI/gnet,0,0,0,prototype1.png,no,mono,no,18,no,black,no,no,768,1238,3.5.6,legacy,xpyriment,osweb,1.3.13,0,space,space,space,,76437,20184,76437,,2,legacy,680,1280,24,720,24,0,0,1280,1651253653657,1024,2,48000,-16,experiment,p1sarrsha1.png,1,odd,Win32,134,132064,129052,134,134,469240,470745,464240,133586,464240,134,,,,,,visual_patterns,0,0,0,yes,1366
undefined,undefined,undefined,undefined,white,no,Mozilla,Netscape,"5.0 (Windows NT 10.0; Win64; x64) AppleWebKit/537.36 (KHTML, like Gecko) Chrome/100.0.4896.127 Safari/537.36",xpyriment,legacy,legacy,0,uniform,0,0,0,0,24,24,24,0,0,40,40,40,40,40,0,40,0,,,,,,0,,29-03-22,29-03-22,19:33:56,Fri Apr 29 2022 19:33:56 GMT+0200 (közép-európai nyári idő),The main experiment item,yes,0,0,C:/Users/rrics/Documents/!!ResearchBMECOGSCI/gnet,0,0,0,prototype1.png,no,mono,no,18,no,black,no,no,768,1238,3.5.6,legacy,xpyriment,osweb,1.3.13,0,space,space,space,,76437,20184,76437,,2,legacy,680,1280,24,720,24,0,0,1280,1651253653657,1024,2,48000,-16,experiment,prototype5.png,1,odd,Win32,134,132064,129052,134,134,475754,477258,470754,133586,470754,134,,,,,,visual_patterns,0,0,0,yes,1366
undefined,undefined,undefined,undefined,white,no,Mozilla,Netscape,"5.0 (Windows NT 10.0; Win64; x64) AppleWebKit/537.36 (KHTML, like Gecko) Chrome/100.0.4896.127 Safari/537.36",xpyriment,legacy,legacy,0,uniform,0,0,0,0,24,24,24,0,0,41,41,41,41,41,0,41,0,,,,,,0,,29-03-22,29-03-22,19:33:56,Fri Apr 29 2022 19:33:56 GMT+0200 (közép-európai nyári idő),The main experiment item,yes,0,0,C:/Users/rrics/Documents/!!ResearchBMECOGSCI/gnet,0,0,0,prototype1.png,no,mono,no,18,no,black,no,no,768,1238,3.5.6,legacy,xpyriment,osweb,1.3.13,0,space,space,space,,76437,20184,76437,,2,legacy,680,1280,24,720,24,0,0,1280,1651253653657,1024,2,48000,-16,experiment,p3sarrshacol2.png,1,odd,Win32,134,132064,129052,134,134,482272,483788,477272,133586,477272,134,,,,,,visual_patterns,0,0,0,yes,1366
undefined,undefined,undefined,undefined,white,no,Mozilla,Netscape,"5.0 (Windows NT 10.0; Win64; x64) AppleWebKit/537.36 (KHTML, like Gecko) Chrome/100.0.4896.127 Safari/537.36",xpyriment,legacy,legacy,0,uniform,0,0,0,0,24,24,24,0,0,42,42,42,42,42,0,42,0,,,,,,0,,29-03-22,29-03-22,19:33:56,Fri Apr 29 2022 19:33:56 GMT+0200 (közép-európai nyári idő),The main experiment item,yes,0,0,C:/Users/rrics/Documents/!!ResearchBMECOGSCI/gnet,0,0,0,prototype1.png,no,mono,no,18,no,black,no,no,768,1238,3.5.6,legacy,xpyriment,osweb,1.3.13,0,space,space,space,,76437,20184,76437,,2,legacy,680,1280,24,720,24,0,0,1280,1651253653657,1024,2,48000,-16,experiment,p3sarrcol2.png,1,odd,Win32,134,132064,129052,134,134,488795,490301,483796,133586,483796,134,,,,,,visual_patterns,0,0,0,yes,1366
undefined,undefined,undefined,undefined,white,no,Mozilla,Netscape,"5.0 (Windows NT 10.0; Win64; x64) AppleWebKit/537.36 (KHTML, like Gecko) Chrome/100.0.4896.127 Safari/537.36",xpyriment,legacy,legacy,0,uniform,0,0,0,0,24,24,24,0,0,43,43,43,43,43,0,43,0,,,,,,0,,29-03-22,29-03-22,19:33:56,Fri Apr 29 2022 19:33:56 GMT+0200 (közép-európai nyári idő),The main experiment item,yes,0,0,C:/Users/rrics/Documents/!!ResearchBMECOGSCI/gnet,0,0,0,prototype1.png,no,mono,no,18,no,black,no,no,768,1238,3.5.6,legacy,xpyriment,osweb,1.3.13,0,space,space,space,,76437,20184,76437,,2,legacy,680,1280,24,720,24,0,0,1280,1651253653657,1024,2,48000,-16,experiment,p3sarr2.png,1,odd,Win32,134,132064,129052,134,134,495309,496813,490309,133586,490309,134,,,,,,visual_patterns,0,0,0,yes,1366
undefined,undefined,undefined,undefined,white,no,Mozilla,Netscape,"5.0 (Windows NT 10.0; Win64; x64) AppleWebKit/537.36 (KHTML, like Gecko) Chrome/100.0.4896.127 Safari/537.36",xpyriment,legacy,legacy,0,uniform,0,0,0,0,24,24,24,0,0,44,44,44,44,44,0,44,0,,,,,,0,,29-03-22,29-03-22,19:33:56,Fri Apr 29 2022 19:33:56 GMT+0200 (közép-európai nyári idő),The main experiment item,yes,0,0,C:/Users/rrics/Documents/!!ResearchBMECOGSCI/gnet,0,0,0,prototype1.png,no,mono,no,18,no,black,no,no,768,1238,3.5.6,legacy,xpyriment,osweb,1.3.13,0,space,space,space,,76437,20184,76437,,2,legacy,680,1280,24,720,24,0,0,1280,1651253653657,1024,2,48000,-16,experiment,p2sarrsha1.png,1,odd,Win32,134,132064,129052,134,134,501821,503326,496818,133586,496818,134,,,,,,visual_patterns,0,0,0,yes,1366
undefined,undefined,undefined,undefined,white,no,Mozilla,Netscape,"5.0 (Windows NT 10.0; Win64; x64) AppleWebKit/537.36 (KHTML, like Gecko) Chrome/100.0.4896.127 Safari/537.36",xpyriment,legacy,legacy,0,uniform,0,0,0,0,24,24,24,0,0,45,45,45,45,45,0,45,0,,,,,,0,,29-03-22,29-03-22,19:33:56,Fri Apr 29 2022 19:33:56 GMT+0200 (közép-európai nyári idő),The main experiment item,yes,0,0,C:/Users/rrics/Documents/!!ResearchBMECOGSCI/gnet,0,0,0,prototype1.png,no,mono,no,18,no,black,no,no,768,1238,3.5.6,legacy,xpyriment,osweb,1.3.13,0,space,space,space,,76437,20184,76437,,2,legacy,680,1280,24,720,24,0,0,1280,1651253653657,1024,2,48000,-16,experiment,p4sarrsha1.png,1,odd,Win32,134,132064,129052,134,134,508332,509839,503331,133586,503330,134,,,,,,visual_patterns,0,0,0,yes,1366
undefined,undefined,undefined,undefined,white,no,Mozilla,Netscape,"5.0 (Windows NT 10.0; Win64; x64) AppleWebKit/537.36 (KHTML, like Gecko) Chrome/100.0.4896.127 Safari/537.36",xpyriment,legacy,legacy,0,uniform,0,0,0,0,24,24,24,0,0,46,46,46,46,46,0,46,0,,,,,,0,,29-03-22,29-03-22,19:33:56,Fri Apr 29 2022 19:33:56 GMT+0200 (közép-európai nyári idő),The main experiment item,yes,0,0,C:/Users/rrics/Documents/!!ResearchBMECOGSCI/gnet,0,0,0,prototype1.png,no,mono,no,18,no,black,no,no,768,1238,3.5.6,legacy,xpyriment,osweb,1.3.13,0,space,space,space,,76437,20184,76437,,2,legacy,680,1280,24,720,24,0,0,1280,1651253653657,1024,2,48000,-16,experiment,p1sarrcol1.png,1,odd,Win32,134,132064,129052,134,134,514844,516352,509844,133586,509844,134,,,,,,visual_patterns,0,0,0,yes,1366
undefined,undefined,undefined,undefined,white,no,Mozilla,Netscape,"5.0 (Windows NT 10.0; Win64; x64) AppleWebKit/537.36 (KHTML, like Gecko) Chrome/100.0.4896.127 Safari/537.36",xpyriment,legacy,legacy,0,uniform,0,0,0,0,24,24,24,0,0,47,47,47,47,47,0,47,0,,,,,,0,,29-03-22,29-03-22,19:33:56,Fri Apr 29 2022 19:33:56 GMT+0200 (közép-európai nyári idő),The main experiment item,yes,0,0,C:/Users/rrics/Documents/!!ResearchBMECOGSCI/gnet,0,0,0,prototype1.png,no,mono,no,18,no,black,no,no,768,1238,3.5.6,legacy,xpyriment,osweb,1.3.13,0,space,space,space,,76437,20184,76437,,2,legacy,680,1280,24,720,24,0,0,1280,1651253653657,1024,2,48000,-16,experiment,p1sarrsha2.png,1,odd,Win32,134,132064,129052,134,134,521360,522865,516358,133586,516358,134,,,,,,visual_patterns,0,0,0,yes,1366
undefined,undefined,undefined,undefined,white,no,Mozilla,Netscape,"5.0 (Windows NT 10.0; Win64; x64) AppleWebKit/537.36 (KHTML, like Gecko) Chrome/100.0.4896.127 Safari/537.36",xpyriment,legacy,legacy,0,uniform,0,0,0,0,24,24,24,0,0,48,48,48,48,48,0,48,0,,,,,,0,,29-03-22,29-03-22,19:33:56,Fri Apr 29 2022 19:33:56 GMT+0200 (közép-európai nyári idő),The main experiment item,yes,0,0,C:/Users/rrics/Documents/!!ResearchBMECOGSCI/gnet,0,0,0,prototype1.png,no,mono,no,18,no,black,no,no,768,1238,3.5.6,legacy,xpyriment,osweb,1.3.13,0,space,space,space,,76437,20184,76437,,2,legacy,680,1280,24,720,24,0,0,1280,1651253653657,1024,2,48000,-16,experiment,p7sarr2.png,1,odd,Win32,134,132064,129052,134,134,527871,529379,522871,133586,522871,134,,,,,,visual_patterns,0,0,0,yes,1366
undefined,undefined,undefined,undefined,white,no,Mozilla,Netscape,"5.0 (Windows NT 10.0; Win64; x64) AppleWebKit/537.36 (KHTML, like Gecko) Chrome/100.0.4896.127 Safari/537.36",xpyriment,legacy,legacy,0,uniform,0,0,0,0,24,24,24,0,0,49,49,49,49,49,0,49,0,,,,,,0,,29-03-22,29-03-22,19:33:56,Fri Apr 29 2022 19:33:56 GMT+0200 (közép-európai nyári idő),The main experiment item,yes,0,0,C:/Users/rrics/Documents/!!ResearchBMECOGSCI/gnet,0,0,0,prototype1.png,no,mono,no,18,no,black,no,no,768,1238,3.5.6,legacy,xpyriment,osweb,1.3.13,0,space,space,space,,76437,20184,76437,,2,legacy,680,1280,24,720,24,0,0,1280,1651253653657,1024,2,48000,-16,experiment,p4sarr1.png,1,odd,Win32,134,132064,129052,134,134,534386,535892,529384,133586,529384,134,,,,,,visual_patterns,0,0,0,yes,1366
undefined,undefined,undefined,undefined,white,no,Mozilla,Netscape,"5.0 (Windows NT 10.0; Win64; x64) AppleWebKit/537.36 (KHTML, like Gecko) Chrome/100.0.4896.127 Safari/537.36",xpyriment,legacy,legacy,0,uniform,0,0,0,0,24,24,24,0,0,50,50,50,50,50,0,50,0,,,,,,0,,29-03-22,29-03-22,19:33:56,Fri Apr 29 2022 19:33:56 GMT+0200 (közép-európai nyári idő),The main experiment item,yes,0,0,C:/Users/rrics/Documents/!!ResearchBMECOGSCI/gnet,0,0,0,prototype1.png,no,mono,no,18,no,black,no,no,768,1238,3.5.6,legacy,xpyriment,osweb,1.3.13,0,space,space,space,,76437,20184,76437,,2,legacy,680,1280,24,720,24,0,0,1280,1651253653657,1024,2,48000,-16,experiment,p10sarr1.png,1,odd,Win32,134,132064,129052,134,134,540898,542405,535897,133586,535897,134,,,,,,visual_patterns,0,0,0,yes,1366
undefined,undefined,undefined,undefined,white,no,Mozilla,Netscape,"5.0 (Windows NT 10.0; Win64; x64) AppleWebKit/537.36 (KHTML, like Gecko) Chrome/100.0.4896.127 Safari/537.36",xpyriment,legacy,legacy,0,uniform,0,0,0,0,24,24,24,0,0,51,51,51,51,51,0,51,0,,,,,,0,,29-03-22,29-03-22,19:33:56,Fri Apr 29 2022 19:33:56 GMT+0200 (közép-európai nyári idő),The main experiment item,yes,0,0,C:/Users/rrics/Documents/!!ResearchBMECOGSCI/gnet,0,0,0,prototype1.png,no,mono,no,18,no,black,no,no,768,1238,3.5.6,legacy,xpyriment,osweb,1.3.13,0,space,space,space,,76437,20184,76437,,2,legacy,680,1280,24,720,24,0,0,1280,1651253653657,1024,2,48000,-16,experiment,prototype3.png,1,odd,Win32,134,132064,129052,134,134,547419,548936,542415,133586,542415,134,,,,,,visual_patterns,0,0,0,yes,1366
undefined,undefined,undefined,undefined,white,no,Mozilla,Netscape,"5.0 (Windows NT 10.0; Win64; x64) AppleWebKit/537.36 (KHTML, like Gecko) Chrome/100.0.4896.127 Safari/537.36",xpyriment,legacy,legacy,0,uniform,0,0,0,0,24,24,24,0,0,52,52,52,52,52,0,52,0,,,,,,0,,29-03-22,29-03-22,19:33:56,Fri Apr 29 2022 19:33:56 GMT+0200 (közép-európai nyári idő),The main experiment item,yes,0,0,C:/Users/rrics/Documents/!!ResearchBMECOGSCI/gnet,0,0,0,prototype1.png,no,mono,no,18,no,black,no,no,768,1238,3.5.6,legacy,xpyriment,osweb,1.3.13,0,space,space,space,,76437,20184,76437,,2,legacy,680,1280,24,720,24,0,0,1280,1651253653657,1024,2,48000,-16,experiment,p1sarr1.png,1,odd,Win32,134,132064,129052,134,134,553947,555448,548945,133586,548945,134,,,,,,visual_patterns,0,0,0,yes,1366
undefined,undefined,undefined,undefined,white,no,Mozilla,Netscape,"5.0 (Windows NT 10.0; Win64; x64) AppleWebKit/537.36 (KHTML, like Gecko) Chrome/100.0.4896.127 Safari/537.36",xpyriment,legacy,legacy,0,uniform,0,0,0,0,24,24,24,0,0,53,53,53,53,53,0,53,0,,,,,,0,,29-03-22,29-03-22,19:33:56,Fri Apr 29 2022 19:33:56 GMT+0200 (közép-európai nyári idő),The main experiment item,yes,0,0,C:/Users/rrics/Documents/!!ResearchBMECOGSCI/gnet,0,0,0,prototype1.png,no,mono,no,18,no,black,no,no,768,1238,3.5.6,legacy,xpyriment,osweb,1.3.13,0,space,space,space,,76437,20184,76437,,2,legacy,680,1280,24,720,24,0,0,1280,1651253653657,1024,2,48000,-16,experiment,p1sarrcol2.png,1,odd,Win32,134,132064,129052,134,134,560457,561962,555455,133586,555455,134,,,,,,visual_patterns,0,0,0,yes,1366
undefined,undefined,undefined,undefined,white,no,Mozilla,Netscape,"5.0 (Windows NT 10.0; Win64; x64) AppleWebKit/537.36 (KHTML, like Gecko) Chrome/100.0.4896.127 Safari/537.36",xpyriment,legacy,legacy,0,uniform,0,0,0,0,24,24,24,0,0,54,54,54,54,54,0,54,0,,,,,,0,,29-03-22,29-03-22,19:33:56,Fri Apr 29 2022 19:33:56 GMT+0200 (közép-európai nyári idő),The main experiment item,yes,0,0,C:/Users/rrics/Documents/!!ResearchBMECOGSCI/gnet,0,0,0,prototype1.png,no,mono,no,18,no,black,no,no,768,1238,3.5.6,legacy,xpyriment,osweb,1.3.13,0,space,space,space,,76437,20184,76437,,2,legacy,680,1280,24,720,24,0,0,1280,1651253653657,1024,2,48000,-16,experiment,p2sarrcol2.png,1,odd,Win32,134,132064,129052,134,134,566971,568475,561971,133586,561971,134,,,,,,visual_patterns,0,0,0,yes,1366
undefined,undefined,undefined,undefined,white,no,Mozilla,Netscape,"5.0 (Windows NT 10.0; Win64; x64) AppleWebKit/537.36 (KHTML, like Gecko) Chrome/100.0.4896.127 Safari/537.36",xpyriment,legacy,legacy,0,uniform,0,0,0,0,24,24,24,0,0,55,55,55,55,55,0,55,0,,,,,,0,,29-03-22,29-03-22,19:33:56,Fri Apr 29 2022 19:33:56 GMT+0200 (közép-európai nyári idő),The main experiment item,yes,0,0,C:/Users/rrics/Documents/!!ResearchBMECOGSCI/gnet,0,0,0,prototype1.png,no,mono,no,18,no,black,no,no,768,1238,3.5.6,legacy,xpyriment,osweb,1.3.13,0,space,space,space,,76437,20184,76437,,2,legacy,680,1280,24,720,24,0,0,1280,1651253653657,1024,2,48000,-16,experiment,prototype4.png,1,odd,Win32,134,132064,129052,134,134,573484,574988,568482,133586,568482,134,,,,,,visual_patterns,0,0,0,yes,1366
undefined,undefined,undefined,undefined,white,no,Mozilla,Netscape,"5.0 (Windows NT 10.0; Win64; x64) AppleWebKit/537.36 (KHTML, like Gecko) Chrome/100.0.4896.127 Safari/537.36",xpyriment,legacy,legacy,0,uniform,0,0,0,0,24,24,24,0,0,56,56,56,56,56,0,56,0,,,,,,0,,29-03-22,29-03-22,19:33:56,Fri Apr 29 2022 19:33:56 GMT+0200 (közép-európai nyári idő),The main experiment item,yes,0,0,C:/Users/rrics/Documents/!!ResearchBMECOGSCI/gnet,0,0,0,prototype1.png,no,mono,no,18,no,black,no,no,768,1238,3.5.6,legacy,xpyriment,osweb,1.3.13,0,space,space,space,,76437,20184,76437,,2,legacy,680,1280,24,720,24,0,0,1280,1651253653657,1024,2,48000,-16,experiment,p2sarrshacol1.png,1,odd,Win32,134,132064,129052,134,134,580002,581518,575002,133586,575002,134,,,,,,visual_patterns,0,0,0,yes,1366
undefined,undefined,undefined,undefined,white,no,Mozilla,Netscape,"5.0 (Windows NT 10.0; Win64; x64) AppleWebKit/537.36 (KHTML, like Gecko) Chrome/100.0.4896.127 Safari/537.36",xpyriment,legacy,legacy,0,uniform,0,0,0,0,24,24,24,0,0,57,57,57,57,57,0,57,0,,,,,,0,,29-03-22,29-03-22,19:33:56,Fri Apr 29 2022 19:33:56 GMT+0200 (közép-európai nyári idő),The main experiment item,yes,0,0,C:/Users/rrics/Documents/!!ResearchBMECOGSCI/gnet,0,0,0,prototype1.png,no,mono,no,18,no,black,no,no,768,1238,3.5.6,legacy,xpyriment,osweb,1.3.13,0,space,space,space,,76437,20184,76437,,2,legacy,680,1280,24,720,24,0,0,1280,1651253653657,1024,2,48000,-16,experiment,prototype5.png,1,odd,Win32,134,132064,129052,134,134,586529,588031,581525,133586,581525,134,,,,,,visual_patterns,0,0,0,yes,1366
undefined,undefined,undefined,undefined,white,no,Mozilla,Netscape,"5.0 (Windows NT 10.0; Win64; x64) AppleWebKit/537.36 (KHTML, like Gecko) Chrome/100.0.4896.127 Safari/537.36",xpyriment,legacy,legacy,0,uniform,0,0,0,0,24,24,24,0,0,58,58,58,58,58,0,58,0,,,,,,0,,29-03-22,29-03-22,19:33:56,Fri Apr 29 2022 19:33:56 GMT+0200 (közép-európai nyári idő),The main experiment item,yes,0,0,C:/Users/rrics/Documents/!!ResearchBMECOGSCI/gnet,0,0,0,prototype1.png,no,mono,no,18,no,black,no,no,768,1238,3.5.6,legacy,xpyriment,osweb,1.3.13,0,space,space,space,,76437,20184,76437,,2,legacy,680,1280,24,720,24,0,0,1280,1651253653657,1024,2,48000,-16,experiment,prototype2.png,1,odd,Win32,134,132064,129052,134,134,593041,594544,588039,133586,588039,134,,,,,,visual_patterns,0,0,0,yes,1366
undefined,undefined,undefined,undefined,white,no,Mozilla,Netscape,"5.0 (Windows NT 10.0; Win64; x64) AppleWebKit/537.36 (KHTML, like Gecko) Chrome/100.0.4896.127 Safari/537.36",xpyriment,legacy,legacy,0,uniform,0,0,0,0,24,24,24,0,0,59,59,59,59,59,0,59,0,,,,,,0,,29-03-22,29-03-22,19:33:56,Fri Apr 29 2022 19:33:56 GMT+0200 (közép-európai nyári idő),The main experiment item,yes,0,0,C:/Users/rrics/Documents/!!ResearchBMECOGSCI/gnet,0,0,0,prototype1.png,no,mono,no,18,no,black,no,no,768,1238,3.5.6,legacy,xpyriment,osweb,1.3.13,0,space,space,space,,76437,20184,76437,,2,legacy,680,1280,24,720,24,0,0,1280,1651253653657,1024,2,48000,-16,experiment,prototype5.png,1,odd,Win32,134,132064,129052,134,134,599553,601057,594551,133586,594551,134,,,,,,visual_patterns,0,0,0,yes,1366
undefined,undefined,undefined,undefined,white,no,Mozilla,Netscape,"5.0 (Windows NT 10.0; Win64; x64) AppleWebKit/537.36 (KHTML, like Gecko) Chrome/100.0.4896.127 Safari/537.36",xpyriment,legacy,legacy,0,uniform,0,0,0,0,24,24,24,0,0,60,60,60,60,60,0,60,0,,,,,,0,,29-03-22,29-03-22,19:33:56,Fri Apr 29 2022 19:33:56 GMT+0200 (közép-európai nyári idő),The main experiment item,yes,0,0,C:/Users/rrics/Documents/!!ResearchBMECOGSCI/gnet,0,0,0,prototype1.png,no,mono,no,18,no,black,no,no,768,1238,3.5.6,legacy,xpyriment,osweb,1.3.13,0,space,space,space,,76437,20184,76437,,2,legacy,680,1280,24,720,24,0,0,1280,1651253653657,1024,2,48000,-16,experiment,p1sarrshacol2.png,1,odd,Win32,134,132064,129052,134,134,606063,607570,601062,133586,601062,134,,,,,,visual_patterns,0,0,0,yes,1366
undefined,undefined,undefined,undefined,white,no,Mozilla,Netscape,"5.0 (Windows NT 10.0; Win64; x64) AppleWebKit/537.36 (KHTML, like Gecko) Chrome/100.0.4896.127 Safari/537.36",xpyriment,legacy,legacy,0,uniform,0,0,0,0,24,24,24,0,0,61,61,61,61,61,0,61,0,,,,,,0,,29-03-22,29-03-22,19:33:56,Fri Apr 29 2022 19:33:56 GMT+0200 (közép-európai nyári idő),The main experiment item,yes,0,0,C:/Users/rrics/Documents/!!ResearchBMECOGSCI/gnet,0,0,0,prototype1.png,no,mono,no,18,no,black,no,no,768,1238,3.5.6,legacy,xpyriment,osweb,1.3.13,0,space,space,space,,76437,20184,76437,,2,legacy,680,1280,24,720,24,0,0,1280,1651253653657,1024,2,48000,-16,experiment,p2sarrcol1.png,1,odd,Win32,134,132064,129052,134,134,612585,614100,607582,133586,607582,134,,,,,,visual_patterns,0,0,0,yes,1366
undefined,undefined,undefined,undefined,white,no,Mozilla,Netscape,"5.0 (Windows NT 10.0; Win64; x64) AppleWebKit/537.36 (KHTML, like Gecko) Chrome/100.0.4896.127 Safari/537.36",xpyriment,legacy,legacy,0,uniform,0,0,0,0,24,24,24,0,0,62,62,62,62,62,0,62,0,,,,,,0,,29-03-22,29-03-22,19:33:56,Fri Apr 29 2022 19:33:56 GMT+0200 (közép-európai nyári idő),The main experiment item,yes,0,0,C:/Users/rrics/Documents/!!ResearchBMECOGSCI/gnet,0,0,0,prototype1.png,no,mono,no,18,no,black,no,no,768,1238,3.5.6,legacy,xpyriment,osweb,1.3.13,0,space,space,space,,76437,20184,76437,,2,legacy,680,1280,24,720,24,0,0,1280,1651253653657,1024,2,48000,-16,experiment,p5sarr2.png,1,odd,Win32,134,132064,129052,134,134,619109,620613,614109,133586,614109,134,,,,,,visual_patterns,0,0,0,yes,1366
undefined,undefined,undefined,undefined,white,no,Mozilla,Netscape,"5.0 (Windows NT 10.0; Win64; x64) AppleWebKit/537.36 (KHTML, like Gecko) Chrome/100.0.4896.127 Safari/537.36",xpyriment,legacy,legacy,0,uniform,0,0,0,0,24,24,24,0,0,63,63,63,63,63,0,63,0,,,,,,0,,29-03-22,29-03-22,19:33:56,Fri Apr 29 2022 19:33:56 GMT+0200 (közép-európai nyári idő),The main experiment item,yes,0,0,C:/Users/rrics/Documents/!!ResearchBMECOGSCI/gnet,0,0,0,prototype1.png,no,mono,no,18,no,black,no,no,768,1238,3.5.6,legacy,xpyriment,osweb,1.3.13,0,space,space,space,,76437,20184,76437,,2,legacy,680,1280,24,720,24,0,0,1280,1651253653657,1024,2,48000,-16,experiment,p10sarr2.png,1,odd,Win32,134,132064,129052,134,134,625621,627126,620621,133586,620621,134,,,,,,visual_patterns,0,0,0,yes,1366
undefined,undefined,undefined,undefined,white,no,Mozilla,Netscape,"5.0 (Windows NT 10.0; Win64; x64) AppleWebKit/537.36 (KHTML, like Gecko) Chrome/100.0.4896.127 Safari/537.36",xpyriment,legacy,legacy,0,uniform,0,0,0,0,24,24,24,0,0,64,64,64,64,64,0,64,0,,,,,,0,,29-03-22,29-03-22,19:33:56,Fri Apr 29 2022 19:33:56 GMT+0200 (közép-európai nyári idő),The main experiment item,yes,0,0,C:/Users/rrics/Documents/!!ResearchBMECOGSCI/gnet,0,0,0,prototype1.png,no,mono,no,18,no,black,no,no,768,1238,3.5.6,legacy,xpyriment,osweb,1.3.13,0,space,space,space,,76437,20184,76437,,2,legacy,680,1280,24,720,24,0,0,1280,1651253653657,1024,2,48000,-16,experiment,prototype1.png,1,odd,Win32,134,132064,129052,134,134,632149,633656,627148,133586,627148,134,,,,,,visual_patterns,0,0,0,yes,1366
undefined,undefined,undefined,undefined,white,no,Mozilla,Netscape,"5.0 (Windows NT 10.0; Win64; x64) AppleWebKit/537.36 (KHTML, like Gecko) Chrome/100.0.4896.127 Safari/537.36",xpyriment,legacy,legacy,0,uniform,0,0,0,0,24,24,24,0,0,65,65,65,65,65,0,65,0,,,,,,0,,29-03-22,29-03-22,19:33:56,Fri Apr 29 2022 19:33:56 GMT+0200 (közép-európai nyári idő),The main experiment item,yes,0,0,C:/Users/rrics/Documents/!!ResearchBMECOGSCI/gnet,0,0,0,prototype1.png,no,mono,no,18,no,black,no,no,768,1238,3.5.6,legacy,xpyriment,osweb,1.3.13,0,space,space,space,,76437,20184,76437,,2,legacy,680,1280,24,720,24,0,0,1280,1651253653657,1024,2,48000,-16,experiment,prototype4.png,1,odd,Win32,134,132064,129052,134,134,638667,640169,633663,133586,633663,134,,,,,,visual_patterns,0,0,0,yes,1366
undefined,undefined,undefined,undefined,white,no,Mozilla,Netscape,"5.0 (Windows NT 10.0; Win64; x64) AppleWebKit/537.36 (KHTML, like Gecko) Chrome/100.0.4896.127 Safari/537.36",xpyriment,legacy,legacy,0,uniform,0,0,0,0,24,24,24,0,0,66,66,66,66,66,0,66,0,,,,,,0,,29-03-22,29-03-22,19:33:56,Fri Apr 29 2022 19:33:56 GMT+0200 (közép-európai nyári idő),The main experiment item,yes,0,0,C:/Users/rrics/Documents/!!ResearchBMECOGSCI/gnet,0,0,0,prototype1.png,no,mono,no,18,no,black,no,no,768,1238,3.5.6,legacy,xpyriment,osweb,1.3.13,0,space,space,space,,76437,20184,76437,,2,legacy,680,1280,24,720,24,0,0,1280,1651253653657,1024,2,48000,-16,experiment,p2sarrshacol2.png,1,odd,Win32,134,132064,129052,134,134,645186,646699,640185,133586,640185,134,,,,,,visual_patterns,0,0,0,yes,1366
undefined,undefined,undefined,undefined,white,no,Mozilla,Netscape,"5.0 (Windows NT 10.0; Win64; x64) AppleWebKit/537.36 (KHTML, like Gecko) Chrome/100.0.4896.127 Safari/537.36",xpyriment,legacy,legacy,0,uniform,0,0,0,0,24,24,24,0,0,67,67,67,67,67,0,67,0,,,,,,0,,29-03-22,29-03-22,19:33:56,Fri Apr 29 2022 19:33:56 GMT+0200 (közép-európai nyári idő),The main experiment item,yes,0,0,C:/Users/rrics/Documents/!!ResearchBMECOGSCI/gnet,0,0,0,prototype1.png,no,mono,no,18,no,black,no,no,768,1238,3.5.6,legacy,xpyriment,osweb,1.3.13,0,space,space,space,,76437,20184,76437,,2,legacy,680,1280,24,720,24,0,0,1280,1651253653657,1024,2,48000,-16,experiment,p1sarr2.png,1,odd,Win32,134,132064,129052,134,134,651709,653211,646707,133586,646707,134,,,,,,visual_patterns,0,0,0,yes,1366
undefined,undefined,undefined,undefined,white,no,Mozilla,Netscape,"5.0 (Windows NT 10.0; Win64; x64) AppleWebKit/537.36 (KHTML, like Gecko) Chrome/100.0.4896.127 Safari/537.36",xpyriment,legacy,legacy,0,uniform,0,0,0,0,24,24,24,0,0,68,68,68,68,68,0,68,0,,,,,,0,,29-03-22,29-03-22,19:33:56,Fri Apr 29 2022 19:33:56 GMT+0200 (közép-európai nyári idő),The main experiment item,yes,0,0,C:/Users/rrics/Documents/!!ResearchBMECOGSCI/gnet,0,0,0,prototype1.png,no,mono,no,18,no,black,no,no,768,1238,3.5.6,legacy,xpyriment,osweb,1.3.13,0,space,space,space,,76437,20184,76437,,2,legacy,680,1280,24,720,24,0,0,1280,1651253653657,1024,2,48000,-16,experiment,p6sarr2.png,1,odd,Win32,134,132064,129052,134,134,658220,659725,653217,133586,653217,134,,,,,,visual_patterns,0,0,0,yes,1366
undefined,undefined,undefined,undefined,white,no,Mozilla,Netscape,"5.0 (Windows NT 10.0; Win64; x64) AppleWebKit/537.36 (KHTML, like Gecko) Chrome/100.0.4896.127 Safari/537.36",xpyriment,legacy,legacy,0,uniform,0,0,0,0,24,24,24,0,0,69,69,69,69,69,0,69,0,,,,,,0,,29-03-22,29-03-22,19:33:56,Fri Apr 29 2022 19:33:56 GMT+0200 (közép-európai nyári idő),The main experiment item,yes,0,0,C:/Users/rrics/Documents/!!ResearchBMECOGSCI/gnet,0,0,0,prototype1.png,no,mono,no,18,no,black,no,no,768,1238,3.5.6,legacy,xpyriment,osweb,1.3.13,0,space,space,space,,76437,20184,76437,,2,legacy,680,1280,24,720,24,0,0,1280,1651253653657,1024,2,48000,-16,experiment,prototype2.png,1,odd,Win32,134,132064,129052,134,134,664733,666238,659732,133586,659732,134,,,,,,visual_patterns,0,0,0,yes,1366
undefined,undefined,undefined,undefined,white,no,Mozilla,Netscape,"5.0 (Windows NT 10.0; Win64; x64) AppleWebKit/537.36 (KHTML, like Gecko) Chrome/100.0.4896.127 Safari/537.36",xpyriment,legacy,legacy,0,uniform,0,0,0,0,24,24,24,0,0,70,70,70,70,70,0,70,0,,,,,,0,,29-03-22,29-03-22,19:33:56,Fri Apr 29 2022 19:33:56 GMT+0200 (közép-európai nyári idő),The main experiment item,yes,0,0,C:/Users/rrics/Documents/!!ResearchBMECOGSCI/gnet,0,0,0,prototype1.png,no,mono,no,18,no,black,no,no,768,1238,3.5.6,legacy,xpyriment,osweb,1.3.13,0,space,space,space,,76437,20184,76437,,2,legacy,680,1280,24,720,24,0,0,1280,1651253653657,1024,2,48000,-16,experiment,p1sarrshacol1.png,1,odd,Win32,134,132064,129052,134,134,671246,672751,666246,133586,666246,134,,,,,,visual_patterns,0,0,0,yes,1366
undefined,undefined,undefined,undefined,white,no,Mozilla,Netscape,"5.0 (Windows NT 10.0; Win64; x64) AppleWebKit/537.36 (KHTML, like Gecko) Chrome/100.0.4896.127 Safari/537.36",xpyriment,legacy,legacy,0,uniform,0,0,0,0,24,24,24,0,0,71,71,71,71,71,0,71,0,,,,,,0,,29-03-22,29-03-22,19:33:56,Fri Apr 29 2022 19:33:56 GMT+0200 (közép-európai nyári idő),The main experiment item,yes,0,0,C:/Users/rrics/Documents/!!ResearchBMECOGSCI/gnet,0,0,0,prototype1.png,no,mono,no,18,no,black,no,no,768,1238,3.5.6,legacy,xpyriment,osweb,1.3.13,0,space,space,space,,76437,20184,76437,,2,legacy,680,1280,24,720,24,0,0,1280,1651253653657,1024,2,48000,-16,experiment,prototype1.png,1,odd,Win32,134,132064,129052,134,134,677764,679281,672762,133586,672762,134,,,,,,visual_patterns,0,0,0,yes,1366
undefined,undefined,undefined,undefined,white,no,Mozilla,Netscape,"5.0 (Windows NT 10.0; Win64; x64) AppleWebKit/537.36 (KHTML, like Gecko) Chrome/100.0.4896.127 Safari/537.36",xpyriment,legacy,legacy,0,uniform,0,0,0,0,24,24,24,0,0,72,72,72,72,72,0,72,0,,,,,,0,,29-03-22,29-03-22,19:33:56,Fri Apr 29 2022 19:33:56 GMT+0200 (közép-európai nyári idő),The main experiment item,yes,0,0,C:/Users/rrics/Documents/!!ResearchBMECOGSCI/gnet,0,0,0,prototype1.png,no,mono,no,18,no,black,no,no,768,1238,3.5.6,legacy,xpyriment,osweb,1.3.13,0,space,space,space,,76437,20184,76437,,2,legacy,680,1280,24,720,24,0,0,1280,1651253653657,1024,2,48000,-16,experiment,prototype5.png,1,odd,Win32,134,132064,129052,134,134,684290,685794,679289,133586,679289,134,,,,,,visual_patterns,0,0,0,yes,1366
undefined,undefined,undefined,undefined,white,no,Mozilla,Netscape,"5.0 (Windows NT 10.0; Win64; x64) AppleWebKit/537.36 (KHTML, like Gecko) Chrome/100.0.4896.127 Safari/537.36",xpyriment,legacy,legacy,0,uniform,0,0,0,0,24,24,24,0,0,73,73,73,73,73,0,73,0,,,,,,0,,29-03-22,29-03-22,19:33:56,Fri Apr 29 2022 19:33:56 GMT+0200 (közép-európai nyári idő),The main experiment item,yes,0,0,C:/Users/rrics/Documents/!!ResearchBMECOGSCI/gnet,0,0,0,prototype1.png,no,mono,no,18,no,black,no,no,768,1238,3.5.6,legacy,xpyriment,osweb,1.3.13,0,space,space,space,,76437,20184,76437,,2,legacy,680,1280,24,720,24,0,0,1280,1651253653657,1024,2,48000,-16,experiment,prototype3.png,1,odd,Win32,134,132064,129052,134,134,690802,692307,685802,133586,685802,134,,,,,,visual_patterns,0,0,0,yes,1366
undefined,undefined,undefined,undefined,white,no,Mozilla,Netscape,"5.0 (Windows NT 10.0; Win64; x64) AppleWebKit/537.36 (KHTML, like Gecko) Chrome/100.0.4896.127 Safari/537.36",xpyriment,legacy,legacy,0,uniform,0,0,0,0,24,24,24,0,0,74,74,74,74,74,0,74,0,,,,,,0,,29-03-22,29-03-22,19:33:56,Fri Apr 29 2022 19:33:56 GMT+0200 (közép-európai nyári idő),The main experiment item,yes,0,0,C:/Users/rrics/Documents/!!ResearchBMECOGSCI/gnet,0,0,0,prototype1.png,no,mono,no,18,no,black,no,no,768,1238,3.5.6,legacy,xpyriment,osweb,1.3.13,0,space,space,space,,76437,20184,76437,,2,legacy,680,1280,24,720,24,0,0,1280,1651253653657,1024,2,48000,-16,experiment,prototype2.png,1,odd,Win32,134,132064,129052,134,134,697316,698820,692315,133586,692315,134,,,,,,visual_patterns,0,0,0,yes,1366
undefined,undefined,undefined,undefined,white,no,Mozilla,Netscape,"5.0 (Windows NT 10.0; Win64; x64) AppleWebKit/537.36 (KHTML, like Gecko) Chrome/100.0.4896.127 Safari/537.36",xpyriment,legacy,legacy,0,uniform,0,0,0,0,24,24,24,0,0,74,74,74,74,74,0,74,0,0,0,0,0,0,0,0,29-03-22,29-03-22,19:33:56,Fri Apr 29 2022 19:33:56 GMT+0200 (közép-európai nyári idő),The main experiment item,yes,0,0,C:/Users/rrics/Documents/!!ResearchBMECOGSCI/gnet,0,0,0,prototype1.png,no,mono,no,18,no,black,no,no,768,1238,3.5.6,legacy,xpyriment,osweb,1.3.13,0,space,space,space,space,40387,20184,76437,40387,2,legacy,680,1280,24,720,24,0,0,1280,1651253653657,1024,2,48000,-16,experiment,p5sarrsha3.png,1,odd,Win32,134,132064,129052,134,134,697316,698820,692315,133586,692315,134,742234,743746,739232,698825,739232,visual_patterns,0,0,0,yes,1366
undefined,undefined,undefined,undefined,white,no,Mozilla,Netscape,"5.0 (Windows NT 10.0; Win64; x64) AppleWebKit/537.36 (KHTML, like Gecko) Chrome/100.0.4896.127 Safari/537.36",xpyriment,legacy,legacy,0,uniform,0,0,0,0,24,24,24,0,0,74,74,74,74,74,0,74,0,1,1,1,1,1,0,1,29-03-22,29-03-22,19:33:56,Fri Apr 29 2022 19:33:56 GMT+0200 (közép-európai nyári idő),The main experiment item,yes,0,0,C:/Users/rrics/Documents/!!ResearchBMECOGSCI/gnet,0,0,0,prototype1.png,no,mono,no,18,no,black,no,no,768,1238,3.5.6,legacy,xpyriment,osweb,1.3.13,0,space,space,space,space,40387,20184,76437,40387,2,legacy,680,1280,24,720,24,0,0,1280,1651253653657,1024,2,48000,-16,experiment,p2sarrshacol1.png,1,odd,Win32,134,132064,129052,134,134,697316,698820,692315,133586,692315,134,746764,748276,743761,698825,743761,visual_patterns,0,0,0,yes,1366
undefined,undefined,undefined,undefined,white,no,Mozilla,Netscape,"5.0 (Windows NT 10.0; Win64; x64) AppleWebKit/537.36 (KHTML, like Gecko) Chrome/100.0.4896.127 Safari/537.36",xpyriment,legacy,legacy,0,uniform,0,0,0,0,24,24,24,0,0,74,74,74,74,74,0,74,0,2,2,2,2,2,0,2,29-03-22,29-03-22,19:33:56,Fri Apr 29 2022 19:33:56 GMT+0200 (közép-európai nyári idő),The main experiment item,yes,0,0,C:/Users/rrics/Documents/!!ResearchBMECOGSCI/gnet,0,0,0,prototype1.png,no,mono,no,18,no,black,no,no,768,1238,3.5.6,legacy,xpyriment,osweb,1.3.13,0,space,space,space,space,40387,20184,76437,40387,2,legacy,680,1280,24,720,24,0,0,1280,1651253653657,1024,2,48000,-16,experiment,p4sarr4.png,1,odd,Win32,134,132064,129052,134,134,697316,698820,692315,133586,692315,134,751285,752790,748286,698825,748286,visual_patterns,0,0,0,yes,1366
undefined,undefined,undefined,undefined,white,no,Mozilla,Netscape,"5.0 (Windows NT 10.0; Win64; x64) AppleWebKit/537.36 (KHTML, like Gecko) Chrome/100.0.4896.127 Safari/537.36",xpyriment,legacy,legacy,0,uniform,0,0,0,0,24,24,24,0,0,74,74,74,74,74,0,74,0,3,3,3,3,3,0,3,29-03-22,29-03-22,19:33:56,Fri Apr 29 2022 19:33:56 GMT+0200 (közép-európai nyári idő),The main experiment item,yes,0,0,C:/Users/rrics/Documents/!!ResearchBMECOGSCI/gnet,0,0,0,prototype1.png,no,mono,no,18,no,black,no,no,768,1238,3.5.6,legacy,xpyriment,osweb,1.3.13,0,space,space,space,space,40387,20184,76437,40387,2,legacy,680,1280,24,720,24,0,0,1280,1651253653657,1024,2,48000,-16,experiment,p5sarrsha2.png,1,odd,Win32,134,132064,129052,134,134,697316,698820,692315,133586,692315,134,755798,757304,752795,698825,752795,visual_patterns,0,0,0,yes,1366
undefined,undefined,undefined,undefined,white,no,Mozilla,Netscape,"5.0 (Windows NT 10.0; Win64; x64) AppleWebKit/537.36 (KHTML, like Gecko) Chrome/100.0.4896.127 Safari/537.36",xpyriment,legacy,legacy,0,uniform,0,0,0,0,24,24,24,0,0,74,74,74,74,74,0,74,0,4,4,4,4,4,0,4,29-03-22,29-03-22,19:33:56,Fri Apr 29 2022 19:33:56 GMT+0200 (közép-európai nyári idő),The main experiment item,yes,0,0,C:/Users/rrics/Documents/!!ResearchBMECOGSCI/gnet,0,0,0,prototype1.png,no,mono,no,18,no,black,no,no,768,1238,3.5.6,legacy,xpyriment,osweb,1.3.13,0,space,space,space,space,40387,20184,76437,40387,2,legacy,680,1280,24,720,24,0,0,1280,1651253653657,1024,2,48000,-16,experiment,p7sarr2.png,1,odd,Win32,134,132064,129052,134,134,697316,698820,692315,133586,692315,134,760308,761818,757308,698825,757308,visual_patterns,0,0,0,yes,1366
undefined,undefined,undefined,undefined,white,no,Mozilla,Netscape,"5.0 (Windows NT 10.0; Win64; x64) AppleWebKit/537.36 (KHTML, like Gecko) Chrome/100.0.4896.127 Safari/537.36",xpyriment,legacy,legacy,0,uniform,0,0,0,0,24,24,24,0,0,74,74,74,74,74,0,74,0,5,5,5,5,5,0,5,29-03-22,29-03-22,19:33:56,Fri Apr 29 2022 19:33:56 GMT+0200 (közép-európai nyári idő),The main experiment item,yes,0,0,C:/Users/rrics/Documents/!!ResearchBMECOGSCI/gnet,0,0,0,prototype1.png,no,mono,no,18,no,black,no,no,768,1238,3.5.6,legacy,xpyriment,osweb,1.3.13,0,space,space,space,space,40387,20184,76437,40387,2,legacy,680,1280,24,720,24,0,0,1280,1651253653657,1024,2,48000,-16,experiment,p1sarrsha4.png,1,odd,Win32,134,132064,129052,134,134,697316,698820,692315,133586,692315,134,764826,766333,761825,698825,761825,visual_patterns,0,0,0,yes,1366
undefined,undefined,undefined,undefined,white,no,Mozilla,Netscape,"5.0 (Windows NT 10.0; Win64; x64) AppleWebKit/537.36 (KHTML, like Gecko) Chrome/100.0.4896.127 Safari/537.36",xpyriment,legacy,legacy,0,uniform,0,0,0,0,24,24,24,0,0,74,74,74,74,74,0,74,0,6,6,6,6,6,0,6,29-03-22,29-03-22,19:33:56,Fri Apr 29 2022 19:33:56 GMT+0200 (közép-európai nyári idő),The main experiment item,yes,0,0,C:/Users/rrics/Documents/!!ResearchBMECOGSCI/gnet,0,0,0,prototype1.png,no,mono,no,18,no,black,no,no,768,1238,3.5.6,legacy,xpyriment,osweb,1.3.13,0,space,space,space,space,40387,20184,76437,40387,2,legacy,680,1280,24,720,24,0,0,1280,1651253653657,1024,2,48000,-16,experiment,p3sarrcol2.png,1,odd,Win32,134,132064,129052,134,134,697316,698820,692315,133586,692315,134,769339,770847,766339,698825,766339,visual_patterns,0,0,0,yes,1366
undefined,undefined,undefined,undefined,white,no,Mozilla,Netscape,"5.0 (Windows NT 10.0; Win64; x64) AppleWebKit/537.36 (KHTML, like Gecko) Chrome/100.0.4896.127 Safari/537.36",xpyriment,legacy,legacy,0,uniform,0,0,0,0,24,24,24,0,0,74,74,74,74,74,0,74,0,7,7,7,7,7,0,7,29-03-22,29-03-22,19:33:56,Fri Apr 29 2022 19:33:56 GMT+0200 (közép-európai nyári idő),The main experiment item,yes,0,0,C:/Users/rrics/Documents/!!ResearchBMECOGSCI/gnet,0,0,0,prototype1.png,no,mono,no,18,no,black,no,no,768,1238,3.5.6,legacy,xpyriment,osweb,1.3.13,0,space,space,space,space,40387,20184,76437,40387,2,legacy,680,1280,24,720,24,0,0,1280,1651253653657,1024,2,48000,-16,experiment,p3sarrcol3.png,1,odd,Win32,134,132064,129052,134,134,697316,698820,692315,133586,692315,134,773855,775361,770854,698825,770854,visual_patterns,0,0,0,yes,1366
undefined,undefined,undefined,undefined,white,no,Mozilla,Netscape,"5.0 (Windows NT 10.0; Win64; x64) AppleWebKit/537.36 (KHTML, like Gecko) Chrome/100.0.4896.127 Safari/537.36",xpyriment,legacy,legacy,0,uniform,0,0,0,0,24,24,24,0,0,74,74,74,74,74,0,74,0,8,8,8,8,8,0,8,29-03-22,29-03-22,19:33:56,Fri Apr 29 2022 19:33:56 GMT+0200 (közép-európai nyári idő),The main experiment item,yes,0,0,C:/Users/rrics/Documents/!!ResearchBMECOGSCI/gnet,0,0,0,prototype1.png,no,mono,no,18,no,black,no,no,768,1238,3.5.6,legacy,xpyriment,osweb,1.3.13,0,space,space,space,space,40387,20184,76437,40387,2,legacy,680,1280,24,720,24,0,0,1280,1651253653657,1024,2,48000,-16,experiment,p1sarrsha1.png,1,odd,Win32,134,132064,129052,134,134,697316,698820,692315,133586,692315,134,778366,779875,775365,698825,775365,visual_patterns,0,0,0,yes,1366
undefined,undefined,undefined,undefined,white,no,Mozilla,Netscape,"5.0 (Windows NT 10.0; Win64; x64) AppleWebKit/537.36 (KHTML, like Gecko) Chrome/100.0.4896.127 Safari/537.36",xpyriment,legacy,legacy,0,uniform,0,0,0,0,24,24,24,0,0,74,74,74,74,74,0,74,0,9,9,9,9,9,0,9,29-03-22,29-03-22,19:33:56,Fri Apr 29 2022 19:33:56 GMT+0200 (közép-európai nyári idő),The main experiment item,yes,0,0,C:/Users/rrics/Documents/!!ResearchBMECOGSCI/gnet,0,0,0,prototype1.png,no,mono,no,18,no,black,no,no,768,1238,3.5.6,legacy,xpyriment,osweb,1.3.13,0,space,space,space,space,40387,20184,76437,40387,2,legacy,680,1280,24,720,24,0,0,1280,1651253653657,1024,2,48000,-16,experiment,p4sarr1.png,1,odd,Win32,134,132064,129052,134,134,697316,698820,692315,133586,692315,134,782884,784390,779881,698825,779881,visual_patterns,0,0,0,yes,1366
undefined,undefined,undefined,undefined,white,no,Mozilla,Netscape,"5.0 (Windows NT 10.0; Win64; x64) AppleWebKit/537.36 (KHTML, like Gecko) Chrome/100.0.4896.127 Safari/537.36",xpyriment,legacy,legacy,0,uniform,0,0,0,0,24,24,24,0,0,74,74,74,74,74,0,74,0,10,10,10,10,10,0,10,29-03-22,29-03-22,19:33:56,Fri Apr 29 2022 19:33:56 GMT+0200 (közép-európai nyári idő),The main experiment item,yes,0,0,C:/Users/rrics/Documents/!!ResearchBMECOGSCI/gnet,0,0,0,prototype1.png,no,mono,no,18,no,black,no,no,768,1238,3.5.6,legacy,xpyriment,osweb,1.3.13,0,space,space,space,space,40387,20184,76437,40387,2,legacy,680,1280,24,720,24,0,0,1280,1651253653657,1024,2,48000,-16,experiment,p9sarr2.png,1,odd,Win32,134,132064,129052,134,134,697316,698820,692315,133586,692315,134,787401,788904,784397,698825,784397,visual_patterns,0,0,0,yes,1366
undefined,undefined,undefined,undefined,white,no,Mozilla,Netscape,"5.0 (Windows NT 10.0; Win64; x64) AppleWebKit/537.36 (KHTML, like Gecko) Chrome/100.0.4896.127 Safari/537.36",xpyriment,legacy,legacy,0,uniform,0,0,0,0,24,24,24,0,0,74,74,74,74,74,0,74,0,11,11,11,11,11,0,11,29-03-22,29-03-22,19:33:56,Fri Apr 29 2022 19:33:56 GMT+0200 (közép-európai nyári idő),The main experiment item,yes,0,0,C:/Users/rrics/Documents/!!ResearchBMECOGSCI/gnet,0,0,0,prototype1.png,no,mono,no,18,no,black,no,no,768,1238,3.5.6,legacy,xpyriment,osweb,1.3.13,0,space,space,space,space,40387,20184,76437,40387,2,legacy,680,1280,24,720,24,0,0,1280,1651253653657,1024,2,48000,-16,experiment,p1sarr2.png,1,odd,Win32,134,132064,129052,134,134,697316,698820,692315,133586,692315,134,791911,793418,788910,698825,788910,visual_patterns,0,0,0,yes,1366
undefined,undefined,undefined,undefined,white,no,Mozilla,Netscape,"5.0 (Windows NT 10.0; Win64; x64) AppleWebKit/537.36 (KHTML, like Gecko) Chrome/100.0.4896.127 Safari/537.36",xpyriment,legacy,legacy,0,uniform,0,0,0,0,24,24,24,0,0,74,74,74,74,74,0,74,0,12,12,12,12,12,0,12,29-03-22,29-03-22,19:33:56,Fri Apr 29 2022 19:33:56 GMT+0200 (közép-európai nyári idő),The main experiment item,yes,0,0,C:/Users/rrics/Documents/!!ResearchBMECOGSCI/gnet,0,0,0,prototype1.png,no,mono,no,18,no,black,no,no,768,1238,3.5.6,legacy,xpyriment,osweb,1.3.13,0,space,space,space,space,40387,20184,76437,40387,2,legacy,680,1280,24,720,24,0,0,1280,1651253653657,1024,2,48000,-16,experiment,p3sarrcol4.png,1,odd,Win32,134,132064,129052,134,134,697316,698820,692315,133586,692315,134,796429,797932,793428,698825,793428,visual_patterns,0,0,0,yes,1366
undefined,undefined,undefined,undefined,white,no,Mozilla,Netscape,"5.0 (Windows NT 10.0; Win64; x64) AppleWebKit/537.36 (KHTML, like Gecko) Chrome/100.0.4896.127 Safari/537.36",xpyriment,legacy,legacy,0,uniform,0,0,0,0,24,24,24,0,0,74,74,74,74,74,0,74,0,13,13,13,13,13,0,13,29-03-22,29-03-22,19:33:56,Fri Apr 29 2022 19:33:56 GMT+0200 (közép-európai nyári idő),The main experiment item,yes,0,0,C:/Users/rrics/Documents/!!ResearchBMECOGSCI/gnet,0,0,0,prototype1.png,no,mono,no,18,no,black,no,no,768,1238,3.5.6,legacy,xpyriment,osweb,1.3.13,0,space,space,space,space,40387,20184,76437,40387,2,legacy,680,1280,24,720,24,0,0,1280,1651253653657,1024,2,48000,-16,experiment,p2sarrshacol2.png,1,odd,Win32,134,132064,129052,134,134,697316,698820,692315,133586,692315,134,800937,802447,797937,698825,797936,visual_patterns,0,0,0,yes,1366
undefined,undefined,undefined,undefined,white,no,Mozilla,Netscape,"5.0 (Windows NT 10.0; Win64; x64) AppleWebKit/537.36 (KHTML, like Gecko) Chrome/100.0.4896.127 Safari/537.36",xpyriment,legacy,legacy,0,uniform,0,0,0,0,24,24,24,0,0,74,74,74,74,74,0,74,0,14,14,14,14,14,0,14,29-03-22,29-03-22,19:33:56,Fri Apr 29 2022 19:33:56 GMT+0200 (közép-európai nyári idő),The main experiment item,yes,0,0,C:/Users/rrics/Documents/!!ResearchBMECOGSCI/gnet,0,0,0,prototype1.png,no,mono,no,18,no,black,no,no,768,1238,3.5.6,legacy,xpyriment,osweb,1.3.13,0,space,space,space,space,40387,20184,76437,40387,2,legacy,680,1280,24,720,24,0,0,1280,1651253653657,1024,2,48000,-16,experiment,p6sarr1.png,1,odd,Win32,134,132064,129052,134,134,697316,698820,692315,133586,692315,134,805455,806961,802455,698825,802455,visual_patterns,0,0,0,yes,1366
undefined,undefined,undefined,undefined,white,no,Mozilla,Netscape,"5.0 (Windows NT 10.0; Win64; x64) AppleWebKit/537.36 (KHTML, like Gecko) Chrome/100.0.4896.127 Safari/537.36",xpyriment,legacy,legacy,0,uniform,0,0,0,0,24,24,24,0,0,74,74,74,74,74,0,74,0,15,15,15,15,15,0,15,29-03-22,29-03-22,19:33:56,Fri Apr 29 2022 19:33:56 GMT+0200 (közép-európai nyári idő),The main experiment item,yes,0,0,C:/Users/rrics/Documents/!!ResearchBMECOGSCI/gnet,0,0,0,prototype1.png,no,mono,no,18,no,black,no,no,768,1238,3.5.6,legacy,xpyriment,osweb,1.3.13,0,space,space,space,space,40387,20184,76437,40387,2,legacy,680,1280,24,720,24,0,0,1280,1651253653657,1024,2,48000,-16,experiment,p4sarrshacol3.png,1,odd,Win32,134,132064,129052,134,134,697316,698820,692315,133586,692315,134,809973,811475,806971,698825,806971,visual_patterns,0,0,0,yes,1366
undefined,undefined,undefined,undefined,white,no,Mozilla,Netscape,"5.0 (Windows NT 10.0; Win64; x64) AppleWebKit/537.36 (KHTML, like Gecko) Chrome/100.0.4896.127 Safari/537.36",xpyriment,legacy,legacy,0,uniform,0,0,0,0,24,24,24,0,0,74,74,74,74,74,0,74,0,16,16,16,16,16,0,16,29-03-22,29-03-22,19:33:56,Fri Apr 29 2022 19:33:56 GMT+0200 (közép-európai nyári idő),The main experiment item,yes,0,0,C:/Users/rrics/Documents/!!ResearchBMECOGSCI/gnet,0,0,0,prototype1.png,no,mono,no,18,no,black,no,no,768,1238,3.5.6,legacy,xpyriment,osweb,1.3.13,0,space,space,space,space,40387,20184,76437,40387,2,legacy,680,1280,24,720,24,0,0,1280,1651253653657,1024,2,48000,-16,experiment,p4sarrshacol4.png,1,odd,Win32,134,132064,129052,134,134,697316,698820,692315,133586,692315,134,814491,816006,811489,698825,811489,visual_patterns,0,0,0,yes,1366
undefined,undefined,undefined,undefined,white,no,Mozilla,Netscape,"5.0 (Windows NT 10.0; Win64; x64) AppleWebKit/537.36 (KHTML, like Gecko) Chrome/100.0.4896.127 Safari/537.36",xpyriment,legacy,legacy,0,uniform,0,0,0,0,24,24,24,0,0,74,74,74,74,74,0,74,0,17,17,17,17,17,0,17,29-03-22,29-03-22,19:33:56,Fri Apr 29 2022 19:33:56 GMT+0200 (közép-európai nyári idő),The main experiment item,yes,0,0,C:/Users/rrics/Documents/!!ResearchBMECOGSCI/gnet,0,0,0,prototype1.png,no,mono,no,18,no,black,no,no,768,1238,3.5.6,legacy,xpyriment,osweb,1.3.13,0,space,space,space,space,40387,20184,76437,40387,2,legacy,680,1280,24,720,24,0,0,1280,1651253653657,1024,2,48000,-16,experiment,p2sarrcol1.png,1,odd,Win32,134,132064,129052,134,134,697316,698820,692315,133586,692315,134,819017,820520,816015,698825,816015,visual_patterns,0,0,0,yes,1366
undefined,undefined,undefined,undefined,white,no,Mozilla,Netscape,"5.0 (Windows NT 10.0; Win64; x64) AppleWebKit/537.36 (KHTML, like Gecko) Chrome/100.0.4896.127 Safari/537.36",xpyriment,legacy,legacy,0,uniform,0,0,0,0,24,24,24,0,0,74,74,74,74,74,0,74,0,18,18,18,18,18,0,18,29-03-22,29-03-22,19:33:56,Fri Apr 29 2022 19:33:56 GMT+0200 (közép-európai nyári idő),The main experiment item,yes,0,0,C:/Users/rrics/Documents/!!ResearchBMECOGSCI/gnet,0,0,0,prototype1.png,no,mono,no,18,no,black,no,no,768,1238,3.5.6,legacy,xpyriment,osweb,1.3.13,0,space,space,space,space,40387,20184,76437,40387,2,legacy,680,1280,24,720,24,0,0,1280,1651253653657,1024,2,48000,-16,experiment,p1sarr4.png,1,odd,Win32,134,132064,129052,134,134,697316,698820,692315,133586,692315,134,823528,825034,820528,698825,820528,visual_patterns,0,0,0,yes,1366
undefined,undefined,undefined,undefined,white,no,Mozilla,Netscape,"5.0 (Windows NT 10.0; Win64; x64) AppleWebKit/537.36 (KHTML, like Gecko) Chrome/100.0.4896.127 Safari/537.36",xpyriment,legacy,legacy,0,uniform,0,0,0,0,24,24,24,0,0,74,74,74,74,74,0,74,0,19,19,19,19,19,0,19,29-03-22,29-03-22,19:33:56,Fri Apr 29 2022 19:33:56 GMT+0200 (közép-európai nyári idő),The main experiment item,yes,0,0,C:/Users/rrics/Documents/!!ResearchBMECOGSCI/gnet,0,0,0,prototype1.png,no,mono,no,18,no,black,no,no,768,1238,3.5.6,legacy,xpyriment,osweb,1.3.13,0,space,space,space,space,40387,20184,76437,40387,2,legacy,680,1280,24,720,24,0,0,1280,1651253653657,1024,2,48000,-16,experiment,p10sarr1.png,1,odd,Win32,134,132064,129052,134,134,697316,698820,692315,133586,692315,134,828042,829548,825043,698825,825043,visual_patterns,0,0,0,yes,1366
undefined,undefined,undefined,undefined,white,no,Mozilla,Netscape,"5.0 (Windows NT 10.0; Win64; x64) AppleWebKit/537.36 (KHTML, like Gecko) Chrome/100.0.4896.127 Safari/537.36",xpyriment,legacy,legacy,0,uniform,0,0,0,0,24,24,24,0,0,74,74,74,74,74,0,74,0,20,20,20,20,20,0,20,29-03-22,29-03-22,19:33:56,Fri Apr 29 2022 19:33:56 GMT+0200 (közép-európai nyári idő),The main experiment item,yes,0,0,C:/Users/rrics/Documents/!!ResearchBMECOGSCI/gnet,0,0,0,prototype1.png,no,mono,no,18,no,black,no,no,768,1238,3.5.6,legacy,xpyriment,osweb,1.3.13,0,space,space,space,space,40387,20184,76437,40387,2,legacy,680,1280,24,720,24,0,0,1280,1651253653657,1024,2,48000,-16,experiment,p8sarr3.png,1,odd,Win32,134,132064,129052,134,134,697316,698820,692315,133586,692315,134,832556,834062,829555,698825,829555,visual_patterns,0,0,0,yes,1366
undefined,undefined,undefined,undefined,white,no,Mozilla,Netscape,"5.0 (Windows NT 10.0; Win64; x64) AppleWebKit/537.36 (KHTML, like Gecko) Chrome/100.0.4896.127 Safari/537.36",xpyriment,legacy,legacy,0,uniform,0,0,0,0,24,24,24,0,0,74,74,74,74,74,0,74,0,21,21,21,21,21,0,21,29-03-22,29-03-22,19:33:56,Fri Apr 29 2022 19:33:56 GMT+0200 (közép-európai nyári idő),The main experiment item,yes,0,0,C:/Users/rrics/Documents/!!ResearchBMECOGSCI/gnet,0,0,0,prototype1.png,no,mono,no,18,no,black,no,no,768,1238,3.5.6,legacy,xpyriment,osweb,1.3.13,0,space,space,space,space,40387,20184,76437,40387,2,legacy,680,1280,24,720,24,0,0,1280,1651253653657,1024,2,48000,-16,experiment,p9sarr4.png,1,odd,Win32,134,132064,129052,134,134,697316,698820,692315,133586,692315,134,837070,838577,834068,698825,834068,visual_patterns,0,0,0,yes,1366
undefined,undefined,undefined,undefined,white,no,Mozilla,Netscape,"5.0 (Windows NT 10.0; Win64; x64) AppleWebKit/537.36 (KHTML, like Gecko) Chrome/100.0.4896.127 Safari/537.36",xpyriment,legacy,legacy,0,uniform,0,0,0,0,24,24,24,0,0,74,74,74,74,74,0,74,0,22,22,22,22,22,0,22,29-03-22,29-03-22,19:33:56,Fri Apr 29 2022 19:33:56 GMT+0200 (közép-európai nyári idő),The main experiment item,yes,0,0,C:/Users/rrics/Documents/!!ResearchBMECOGSCI/gnet,0,0,0,prototype1.png,no,mono,no,18,no,black,no,no,768,1238,3.5.6,legacy,xpyriment,osweb,1.3.13,0,space,space,space,space,40387,20184,76437,40387,2,legacy,680,1280,24,720,24,0,0,1280,1651253653657,1024,2,48000,-16,experiment,p5sarrcol2.png,1,odd,Win32,134,132064,129052,134,134,697316,698820,692315,133586,692315,134,841586,843090,838586,698825,838586,visual_patterns,0,0,0,yes,1366
undefined,undefined,undefined,undefined,white,no,Mozilla,Netscape,"5.0 (Windows NT 10.0; Win64; x64) AppleWebKit/537.36 (KHTML, like Gecko) Chrome/100.0.4896.127 Safari/537.36",xpyriment,legacy,legacy,0,uniform,0,0,0,0,24,24,24,0,0,74,74,74,74,74,0,74,0,23,23,23,23,23,0,23,29-03-22,29-03-22,19:33:56,Fri Apr 29 2022 19:33:56 GMT+0200 (közép-európai nyári idő),The main experiment item,yes,0,0,C:/Users/rrics/Documents/!!ResearchBMECOGSCI/gnet,0,0,0,prototype1.png,no,mono,no,18,no,black,no,no,768,1238,3.5.6,legacy,xpyriment,osweb,1.3.13,0,space,space,space,space,40387,20184,76437,40387,2,legacy,680,1280,24,720,24,0,0,1280,1651253653657,1024,2,48000,-16,experiment,p7sarr4.png,1,odd,Win32,134,132064,129052,134,134,697316,698820,692315,133586,692315,134,846096,847605,843096,698825,843096,visual_patterns,0,0,0,yes,1366
undefined,undefined,undefined,undefined,white,no,Mozilla,Netscape,"5.0 (Windows NT 10.0; Win64; x64) AppleWebKit/537.36 (KHTML, like Gecko) Chrome/100.0.4896.127 Safari/537.36",xpyriment,legacy,legacy,0,uniform,0,0,0,0,24,24,24,0,0,74,74,74,74,74,0,74,0,24,24,24,24,24,0,24,29-03-22,29-03-22,19:33:56,Fri Apr 29 2022 19:33:56 GMT+0200 (közép-európai nyári idő),The main experiment item,yes,0,0,C:/Users/rrics/Documents/!!ResearchBMECOGSCI/gnet,0,0,0,prototype1.png,no,mono,no,18,no,black,no,no,768,1238,3.5.6,legacy,xpyriment,osweb,1.3.13,0,space,space,space,space,40387,20184,76437,40387,2,legacy,680,1280,24,720,24,0,0,1280,1651253653657,1024,2,48000,-16,experiment,p3sarrsha3.png,1,odd,Win32,134,132064,129052,134,134,697316,698820,692315,133586,692315,134,850615,852119,847615,698825,847615,visual_patterns,0,0,0,yes,1366
undefined,undefined,undefined,undefined,white,no,Mozilla,Netscape,"5.0 (Windows NT 10.0; Win64; x64) AppleWebKit/537.36 (KHTML, like Gecko) Chrome/100.0.4896.127 Safari/537.36",xpyriment,legacy,legacy,0,uniform,0,0,0,0,24,24,24,0,0,74,74,74,74,74,0,74,0,25,25,25,25,25,0,25,29-03-22,29-03-22,19:33:56,Fri Apr 29 2022 19:33:56 GMT+0200 (közép-európai nyári idő),The main experiment item,yes,0,0,C:/Users/rrics/Documents/!!ResearchBMECOGSCI/gnet,0,0,0,prototype1.png,no,mono,no,18,no,black,no,no,768,1238,3.5.6,legacy,xpyriment,osweb,1.3.13,0,space,space,space,space,40387,20184,76437,40387,2,legacy,680,1280,24,720,24,0,0,1280,1651253653657,1024,2,48000,-16,experiment,p8sarr4.png,1,odd,Win32,134,132064,129052,134,134,697316,698820,692315,133586,692315,134,855129,856634,852128,698825,852128,visual_patterns,0,0,0,yes,1366
undefined,undefined,undefined,undefined,white,no,Mozilla,Netscape,"5.0 (Windows NT 10.0; Win64; x64) AppleWebKit/537.36 (KHTML, like Gecko) Chrome/100.0.4896.127 Safari/537.36",xpyriment,legacy,legacy,0,uniform,0,0,0,0,24,24,24,0,0,74,74,74,74,74,0,74,0,26,26,26,26,26,0,26,29-03-22,29-03-22,19:33:56,Fri Apr 29 2022 19:33:56 GMT+0200 (közép-európai nyári idő),The main experiment item,yes,0,0,C:/Users/rrics/Documents/!!ResearchBMECOGSCI/gnet,0,0,0,prototype1.png,no,mono,no,18,no,black,no,no,768,1238,3.5.6,legacy,xpyriment,osweb,1.3.13,0,space,space,space,space,40387,20184,76437,40387,2,legacy,680,1280,24,720,24,0,0,1280,1651253653657,1024,2,48000,-16,experiment,p2sarrshacol4.png,1,odd,Win32,134,132064,129052,134,134,697316,698820,692315,133586,692315,134,859647,861148,856657,698825,856657,visual_patterns,0,0,0,yes,1366
undefined,undefined,undefined,undefined,white,no,Mozilla,Netscape,"5.0 (Windows NT 10.0; Win64; x64) AppleWebKit/537.36 (KHTML, like Gecko) Chrome/100.0.4896.127 Safari/537.36",xpyriment,legacy,legacy,0,uniform,0,0,0,0,24,24,24,0,0,74,74,74,74,74,0,74,0,27,27,27,27,27,0,27,29-03-22,29-03-22,19:33:56,Fri Apr 29 2022 19:33:56 GMT+0200 (közép-európai nyári idő),The main experiment item,yes,0,0,C:/Users/rrics/Documents/!!ResearchBMECOGSCI/gnet,0,0,0,prototype1.png,no,mono,no,18,no,black,no,no,768,1238,3.5.6,legacy,xpyriment,osweb,1.3.13,0,space,space,space,space,40387,20184,76437,40387,2,legacy,680,1280,24,720,24,0,0,1280,1651253653657,1024,2,48000,-16,experiment,p4sarrshacol1.png,1,odd,Win32,134,132064,129052,134,134,697316,698820,692315,133586,692315,134,864156,865662,861156,698825,861156,visual_patterns,0,0,0,yes,1366
undefined,undefined,undefined,undefined,white,no,Mozilla,Netscape,"5.0 (Windows NT 10.0; Win64; x64) AppleWebKit/537.36 (KHTML, like Gecko) Chrome/100.0.4896.127 Safari/537.36",xpyriment,legacy,legacy,0,uniform,0,0,0,0,24,24,24,0,0,74,74,74,74,74,0,74,0,28,28,28,28,28,0,28,29-03-22,29-03-22,19:33:56,Fri Apr 29 2022 19:33:56 GMT+0200 (közép-európai nyári idő),The main experiment item,yes,0,0,C:/Users/rrics/Documents/!!ResearchBMECOGSCI/gnet,0,0,0,prototype1.png,no,mono,no,18,no,black,no,no,768,1238,3.5.6,legacy,xpyriment,osweb,1.3.13,0,space,space,space,space,40387,20184,76437,40387,2,legacy,680,1280,24,720,24,0,0,1280,1651253653657,1024,2,48000,-16,experiment,p1sarrshacol3.png,1,odd,Win32,134,132064,129052,134,134,697316,698820,692315,133586,692315,134,868670,870176,865671,698825,865671,visual_patterns,0,0,0,yes,1366
undefined,undefined,undefined,undefined,white,no,Mozilla,Netscape,"5.0 (Windows NT 10.0; Win64; x64) AppleWebKit/537.36 (KHTML, like Gecko) Chrome/100.0.4896.127 Safari/537.36",xpyriment,legacy,legacy,0,uniform,0,0,0,0,24,24,24,0,0,74,74,74,74,74,0,74,0,29,29,29,29,29,0,29,29-03-22,29-03-22,19:33:56,Fri Apr 29 2022 19:33:56 GMT+0200 (közép-európai nyári idő),The main experiment item,yes,0,0,C:/Users/rrics/Documents/!!ResearchBMECOGSCI/gnet,0,0,0,prototype1.png,no,mono,no,18,no,black,no,no,768,1238,3.5.6,legacy,xpyriment,osweb,1.3.13,0,space,space,space,space,40387,20184,76437,40387,2,legacy,680,1280,24,720,24,0,0,1280,1651253653657,1024,2,48000,-16,experiment,p2sarrsha1.png,1,odd,Win32,134,132064,129052,134,134,697316,698820,692315,133586,692315,134,873187,874690,870184,698825,870184,visual_patterns,0,0,0,yes,1366
undefined,undefined,undefined,undefined,white,no,Mozilla,Netscape,"5.0 (Windows NT 10.0; Win64; x64) AppleWebKit/537.36 (KHTML, like Gecko) Chrome/100.0.4896.127 Safari/537.36",xpyriment,legacy,legacy,0,uniform,0,0,0,0,24,24,24,0,0,74,74,74,74,74,0,74,0,30,30,30,30,30,0,30,29-03-22,29-03-22,19:33:56,Fri Apr 29 2022 19:33:56 GMT+0200 (közép-európai nyári idő),The main experiment item,yes,0,0,C:/Users/rrics/Documents/!!ResearchBMECOGSCI/gnet,0,0,0,prototype1.png,no,mono,no,18,no,black,no,no,768,1238,3.5.6,legacy,xpyriment,osweb,1.3.13,0,space,space,space,space,40387,20184,76437,40387,2,legacy,680,1280,24,720,24,0,0,1280,1651253653657,1024,2,48000,-16,experiment,p3sarr2.png,1,odd,Win32,134,132064,129052,134,134,697316,698820,692315,133586,692315,134,877698,879205,874695,698825,874695,visual_patterns,0,0,0,yes,1366
undefined,undefined,undefined,undefined,white,no,Mozilla,Netscape,"5.0 (Windows NT 10.0; Win64; x64) AppleWebKit/537.36 (KHTML, like Gecko) Chrome/100.0.4896.127 Safari/537.36",xpyriment,legacy,legacy,0,uniform,0,0,0,0,24,24,24,0,0,74,74,74,74,74,0,74,0,31,31,31,31,31,0,31,29-03-22,29-03-22,19:33:56,Fri Apr 29 2022 19:33:56 GMT+0200 (közép-európai nyári idő),The main experiment item,yes,0,0,C:/Users/rrics/Documents/!!ResearchBMECOGSCI/gnet,0,0,0,prototype1.png,no,mono,no,18,no,black,no,no,768,1238,3.5.6,legacy,xpyriment,osweb,1.3.13,0,space,space,space,space,40387,20184,76437,40387,2,legacy,680,1280,24,720,24,0,0,1280,1651253653657,1024,2,48000,-16,experiment,p3sarrshacol3.png,1,odd,Win32,134,132064,129052,134,134,697316,698820,692315,133586,692315,134,882220,883735,879218,698825,879218,visual_patterns,0,0,0,yes,1366
undefined,undefined,undefined,undefined,white,no,Mozilla,Netscape,"5.0 (Windows NT 10.0; Win64; x64) AppleWebKit/537.36 (KHTML, like Gecko) Chrome/100.0.4896.127 Safari/537.36",xpyriment,legacy,legacy,0,uniform,0,0,0,0,24,24,24,0,0,74,74,74,74,74,0,74,0,32,32,32,32,32,0,32,29-03-22,29-03-22,19:33:56,Fri Apr 29 2022 19:33:56 GMT+0200 (közép-európai nyári idő),The main experiment item,yes,0,0,C:/Users/rrics/Documents/!!ResearchBMECOGSCI/gnet,0,0,0,prototype1.png,no,mono,no,18,no,black,no,no,768,1238,3.5.6,legacy,xpyriment,osweb,1.3.13,0,space,space,space,space,40387,20184,76437,40387,2,legacy,680,1280,24,720,24,0,0,1280,1651253653657,1024,2,48000,-16,experiment,p2sarrcol4.png,1,odd,Win32,134,132064,129052,134,134,697316,698820,692315,133586,692315,134,886745,888250,883744,698825,883744,visual_patterns,0,0,0,yes,1366
undefined,undefined,undefined,undefined,white,no,Mozilla,Netscape,"5.0 (Windows NT 10.0; Win64; x64) AppleWebKit/537.36 (KHTML, like Gecko) Chrome/100.0.4896.127 Safari/537.36",xpyriment,legacy,legacy,0,uniform,0,0,0,0,24,24,24,0,0,74,74,74,74,74,0,74,0,33,33,33,33,33,0,33,29-03-22,29-03-22,19:33:56,Fri Apr 29 2022 19:33:56 GMT+0200 (közép-európai nyári idő),The main experiment item,yes,0,0,C:/Users/rrics/Documents/!!ResearchBMECOGSCI/gnet,0,0,0,prototype1.png,no,mono,no,18,no,black,no,no,768,1238,3.5.6,legacy,xpyriment,osweb,1.3.13,0,space,space,space,space,40387,20184,76437,40387,2,legacy,680,1280,24,720,24,0,0,1280,1651253653657,1024,2,48000,-16,experiment,p5sarrcol1.png,1,odd,Win32,134,132064,129052,134,134,697316,698820,692315,133586,692315,134,891259,892765,888258,698825,888258,visual_patterns,0,0,0,yes,1366
undefined,undefined,undefined,undefined,white,no,Mozilla,Netscape,"5.0 (Windows NT 10.0; Win64; x64) AppleWebKit/537.36 (KHTML, like Gecko) Chrome/100.0.4896.127 Safari/537.36",xpyriment,legacy,legacy,0,uniform,0,0,0,0,24,24,24,0,0,74,74,74,74,74,0,74,0,34,34,34,34,34,0,34,29-03-22,29-03-22,19:33:56,Fri Apr 29 2022 19:33:56 GMT+0200 (közép-európai nyári idő),The main experiment item,yes,0,0,C:/Users/rrics/Documents/!!ResearchBMECOGSCI/gnet,0,0,0,prototype1.png,no,mono,no,18,no,black,no,no,768,1238,3.5.6,legacy,xpyriment,osweb,1.3.13,0,space,space,space,space,40387,20184,76437,40387,2,legacy,680,1280,24,720,24,0,0,1280,1651253653657,1024,2,48000,-16,experiment,p8sarr2.png,1,odd,Win32,134,132064,129052,134,134,697316,698820,692315,133586,692315,134,895777,897278,892773,698825,892773,visual_patterns,0,0,0,yes,1366
undefined,undefined,undefined,undefined,white,no,Mozilla,Netscape,"5.0 (Windows NT 10.0; Win64; x64) AppleWebKit/537.36 (KHTML, like Gecko) Chrome/100.0.4896.127 Safari/537.36",xpyriment,legacy,legacy,0,uniform,0,0,0,0,24,24,24,0,0,74,74,74,74,74,0,74,0,35,35,35,35,35,0,35,29-03-22,29-03-22,19:33:56,Fri Apr 29 2022 19:33:56 GMT+0200 (közép-európai nyári idő),The main experiment item,yes,0,0,C:/Users/rrics/Documents/!!ResearchBMECOGSCI/gnet,0,0,0,prototype1.png,no,mono,no,18,no,black,no,no,768,1238,3.5.6,legacy,xpyriment,osweb,1.3.13,0,space,space,space,space,40387,20184,76437,40387,2,legacy,680,1280,24,720,24,0,0,1280,1651253653657,1024,2,48000,-16,experiment,p5sarr3.png,1,odd,Win32,134,132064,129052,134,134,697316,698820,692315,133586,692315,134,900286,901792,897287,698825,897287,visual_patterns,0,0,0,yes,1366
undefined,undefined,undefined,undefined,white,no,Mozilla,Netscape,"5.0 (Windows NT 10.0; Win64; x64) AppleWebKit/537.36 (KHTML, like Gecko) Chrome/100.0.4896.127 Safari/537.36",xpyriment,legacy,legacy,0,uniform,0,0,0,0,24,24,24,0,0,74,74,74,74,74,0,74,0,36,36,36,36,36,0,36,29-03-22,29-03-22,19:33:56,Fri Apr 29 2022 19:33:56 GMT+0200 (közép-európai nyári idő),The main experiment item,yes,0,0,C:/Users/rrics/Documents/!!ResearchBMECOGSCI/gnet,0,0,0,prototype1.png,no,mono,no,18,no,black,no,no,768,1238,3.5.6,legacy,xpyriment,osweb,1.3.13,0,space,space,space,space,40387,20184,76437,40387,2,legacy,680,1280,24,720,24,0,0,1280,1651253653657,1024,2,48000,-16,experiment,p7sarr1.png,1,odd,Win32,134,132064,129052,134,134,697316,698820,692315,133586,692315,134,904810,906323,901806,698825,901806,visual_patterns,0,0,0,yes,1366
undefined,undefined,undefined,undefined,white,no,Mozilla,Netscape,"5.0 (Windows NT 10.0; Win64; x64) AppleWebKit/537.36 (KHTML, like Gecko) Chrome/100.0.4896.127 Safari/537.36",xpyriment,legacy,legacy,0,uniform,0,0,0,0,24,24,24,0,0,74,74,74,74,74,0,74,0,37,37,37,37,37,0,37,29-03-22,29-03-22,19:33:56,Fri Apr 29 2022 19:33:56 GMT+0200 (közép-európai nyári idő),The main experiment item,yes,0,0,C:/Users/rrics/Documents/!!ResearchBMECOGSCI/gnet,0,0,0,prototype1.png,no,mono,no,18,no,black,no,no,768,1238,3.5.6,legacy,xpyriment,osweb,1.3.13,0,space,space,space,space,40387,20184,76437,40387,2,legacy,680,1280,24,720,24,0,0,1280,1651253653657,1024,2,48000,-16,experiment,p1sarrcol4.png,1,odd,Win32,134,132064,129052,134,134,697316,698820,692315,133586,692315,134,909334,910837,906332,698825,906332,visual_patterns,0,0,0,yes,1366
undefined,undefined,undefined,undefined,white,no,Mozilla,Netscape,"5.0 (Windows NT 10.0; Win64; x64) AppleWebKit/537.36 (KHTML, like Gecko) Chrome/100.0.4896.127 Safari/537.36",xpyriment,legacy,legacy,0,uniform,0,0,0,0,24,24,24,0,0,74,74,74,74,74,0,74,0,38,38,38,38,38,0,38,29-03-22,29-03-22,19:33:56,Fri Apr 29 2022 19:33:56 GMT+0200 (közép-európai nyári idő),The main experiment item,yes,0,0,C:/Users/rrics/Documents/!!ResearchBMECOGSCI/gnet,0,0,0,prototype1.png,no,mono,no,18,no,black,no,no,768,1238,3.5.6,legacy,xpyriment,osweb,1.3.13,0,space,space,space,space,40387,20184,76437,40387,2,legacy,680,1280,24,720,24,0,0,1280,1651253653657,1024,2,48000,-16,experiment,p3sarrsha4.png,1,odd,Win32,134,132064,129052,134,134,697316,698820,692315,133586,692315,134,913855,915368,910850,698825,910850,visual_patterns,0,0,0,yes,1366
undefined,undefined,undefined,undefined,white,no,Mozilla,Netscape,"5.0 (Windows NT 10.0; Win64; x64) AppleWebKit/537.36 (KHTML, like Gecko) Chrome/100.0.4896.127 Safari/537.36",xpyriment,legacy,legacy,0,uniform,0,0,0,0,24,24,24,0,0,74,74,74,74,74,0,74,0,39,39,39,39,39,0,39,29-03-22,29-03-22,19:33:56,Fri Apr 29 2022 19:33:56 GMT+0200 (közép-európai nyári idő),The main experiment item,yes,0,0,C:/Users/rrics/Documents/!!ResearchBMECOGSCI/gnet,0,0,0,prototype1.png,no,mono,no,18,no,black,no,no,768,1238,3.5.6,legacy,xpyriment,osweb,1.3.13,0,space,space,space,space,40387,20184,76437,40387,2,legacy,680,1280,24,720,24,0,0,1280,1651253653657,1024,2,48000,-16,experiment,p3sarr1.png,1,odd,Win32,134,132064,129052,134,134,697316,698820,692315,133586,692315,134,918380,919882,915376,698825,915376,visual_patterns,0,0,0,yes,1366
undefined,undefined,undefined,undefined,white,no,Mozilla,Netscape,"5.0 (Windows NT 10.0; Win64; x64) AppleWebKit/537.36 (KHTML, like Gecko) Chrome/100.0.4896.127 Safari/537.36",xpyriment,legacy,legacy,0,uniform,0,0,0,0,24,24,24,0,0,74,74,74,74,74,0,74,0,40,40,40,40,40,0,40,29-03-22,29-03-22,19:33:56,Fri Apr 29 2022 19:33:56 GMT+0200 (közép-európai nyári idő),The main experiment item,yes,0,0,C:/Users/rrics/Documents/!!ResearchBMECOGSCI/gnet,0,0,0,prototype1.png,no,mono,no,18,no,black,no,no,768,1238,3.5.6,legacy,xpyriment,osweb,1.3.13,0,space,space,space,space,40387,20184,76437,40387,2,legacy,680,1280,24,720,24,0,0,1280,1651253653657,1024,2,48000,-16,experiment,p2sarrsha3.png,1,odd,Win32,134,132064,129052,134,134,697316,698820,692315,133586,692315,134,922894,924397,919892,698825,919892,visual_patterns,0,0,0,yes,1366
undefined,undefined,undefined,undefined,white,no,Mozilla,Netscape,"5.0 (Windows NT 10.0; Win64; x64) AppleWebKit/537.36 (KHTML, like Gecko) Chrome/100.0.4896.127 Safari/537.36",xpyriment,legacy,legacy,0,uniform,0,0,0,0,24,24,24,0,0,74,74,74,74,74,0,74,0,41,41,41,41,41,0,41,29-03-22,29-03-22,19:33:56,Fri Apr 29 2022 19:33:56 GMT+0200 (közép-európai nyári idő),The main experiment item,yes,0,0,C:/Users/rrics/Documents/!!ResearchBMECOGSCI/gnet,0,0,0,prototype1.png,no,mono,no,18,no,black,no,no,768,1238,3.5.6,legacy,xpyriment,osweb,1.3.13,0,space,space,space,space,40387,20184,76437,40387,2,legacy,680,1280,24,720,24,0,0,1280,1651253653657,1024,2,48000,-16,experiment,p9sarr3.png,1,odd,Win32,134,132064,129052,134,134,697316,698820,692315,133586,692315,134,927414,928928,924410,698825,924410,visual_patterns,0,0,0,yes,1366
undefined,undefined,undefined,undefined,white,no,Mozilla,Netscape,"5.0 (Windows NT 10.0; Win64; x64) AppleWebKit/537.36 (KHTML, like Gecko) Chrome/100.0.4896.127 Safari/537.36",xpyriment,legacy,legacy,0,uniform,0,0,0,0,24,24,24,0,0,74,74,74,74,74,0,74,0,42,42,42,42,42,0,42,29-03-22,29-03-22,19:33:56,Fri Apr 29 2022 19:33:56 GMT+0200 (közép-európai nyári idő),The main experiment item,yes,0,0,C:/Users/rrics/Documents/!!ResearchBMECOGSCI/gnet,0,0,0,prototype1.png,no,mono,no,18,no,black,no,no,768,1238,3.5.6,legacy,xpyriment,osweb,1.3.13,0,space,space,space,space,40387,20184,76437,40387,2,legacy,680,1280,24,720,24,0,0,1280,1651253653657,1024,2,48000,-16,experiment,p10sarr4.png,1,odd,Win32,134,132064,129052,134,134,697316,698820,692315,133586,692315,134,931937,933442,928937,698825,928937,visual_patterns,0,0,0,yes,1366
undefined,undefined,undefined,undefined,white,no,Mozilla,Netscape,"5.0 (Windows NT 10.0; Win64; x64) AppleWebKit/537.36 (KHTML, like Gecko) Chrome/100.0.4896.127 Safari/537.36",xpyriment,legacy,legacy,0,uniform,0,0,0,0,24,24,24,0,0,74,74,74,74,74,0,74,0,43,43,43,43,43,0,43,29-03-22,29-03-22,19:33:56,Fri Apr 29 2022 19:33:56 GMT+0200 (közép-európai nyári idő),The main experiment item,yes,0,0,C:/Users/rrics/Documents/!!ResearchBMECOGSCI/gnet,0,0,0,prototype1.png,no,mono,no,18,no,black,no,no,768,1238,3.5.6,legacy,xpyriment,osweb,1.3.13,0,space,space,space,space,40387,20184,76437,40387,2,legacy,680,1280,24,720,24,0,0,1280,1651253653657,1024,2,48000,-16,experiment,p4sarrcol1.png,1,odd,Win32,134,132064,129052,134,134,697316,698820,692315,133586,692315,134,936450,937956,933450,698825,933450,visual_patterns,0,0,0,yes,1366
undefined,undefined,undefined,undefined,white,no,Mozilla,Netscape,"5.0 (Windows NT 10.0; Win64; x64) AppleWebKit/537.36 (KHTML, like Gecko) Chrome/100.0.4896.127 Safari/537.36",xpyriment,legacy,legacy,0,uniform,0,0,0,0,24,24,24,0,0,74,74,74,74,74,0,74,0,44,44,44,44,44,0,44,29-03-22,29-03-22,19:33:56,Fri Apr 29 2022 19:33:56 GMT+0200 (közép-európai nyári idő),The main experiment item,yes,0,0,C:/Users/rrics/Documents/!!ResearchBMECOGSCI/gnet,0,0,0,prototype1.png,no,mono,no,18,no,black,no,no,768,1238,3.5.6,legacy,xpyriment,osweb,1.3.13,0,space,space,space,space,40387,20184,76437,40387,2,legacy,680,1280,24,720,24,0,0,1280,1651253653657,1024,2,48000,-16,experiment,p5sarrshacol4.png,1,odd,Win32,134,132064,129052,134,134,697316,698820,692315,133586,692315,134,940968,942470,937966,698825,937966,visual_patterns,0,0,0,yes,1366
undefined,undefined,undefined,undefined,white,no,Mozilla,Netscape,"5.0 (Windows NT 10.0; Win64; x64) AppleWebKit/537.36 (KHTML, like Gecko) Chrome/100.0.4896.127 Safari/537.36",xpyriment,legacy,legacy,0,uniform,0,0,0,0,24,24,24,0,0,74,74,74,74,74,0,74,0,45,45,45,45,45,0,45,29-03-22,29-03-22,19:33:56,Fri Apr 29 2022 19:33:56 GMT+0200 (közép-európai nyári idő),The main experiment item,yes,0,0,C:/Users/rrics/Documents/!!ResearchBMECOGSCI/gnet,0,0,0,prototype1.png,no,mono,no,18,no,black,no,no,768,1238,3.5.6,legacy,xpyriment,osweb,1.3.13,0,space,space,space,space,40387,20184,76437,40387,2,legacy,680,1280,24,720,24,0,0,1280,1651253653657,1024,2,48000,-16,experiment,p3sarr3.png,1,odd,Win32,134,132064,129052,134,134,697316,698820,692315,133586,692315,134,945481,946985,942480,698825,942480,visual_patterns,0,0,0,yes,1366
undefined,undefined,undefined,undefined,white,no,Mozilla,Netscape,"5.0 (Windows NT 10.0; Win64; x64) AppleWebKit/537.36 (KHTML, like Gecko) Chrome/100.0.4896.127 Safari/537.36",xpyriment,legacy,legacy,0,uniform,0,0,0,0,24,24,24,0,0,74,74,74,74,74,0,74,0,46,46,46,46,46,0,46,29-03-22,29-03-22,19:33:56,Fri Apr 29 2022 19:33:56 GMT+0200 (közép-európai nyári idő),The main experiment item,yes,0,0,C:/Users/rrics/Documents/!!ResearchBMECOGSCI/gnet,0,0,0,prototype1.png,no,mono,no,18,no,black,no,no,768,1238,3.5.6,legacy,xpyriment,osweb,1.3.13,0,space,space,space,space,40387,20184,76437,40387,2,legacy,680,1280,24,720,24,0,0,1280,1651253653657,1024,2,48000,-16,experiment,p2sarr3.png,1,odd,Win32,134,132064,129052,134,134,697316,698820,692315,133586,692315,134,950002,951515,946999,698825,946999,visual_patterns,0,0,0,yes,1366
undefined,undefined,undefined,undefined,white,no,Mozilla,Netscape,"5.0 (Windows NT 10.0; Win64; x64) AppleWebKit/537.36 (KHTML, like Gecko) Chrome/100.0.4896.127 Safari/537.36",xpyriment,legacy,legacy,0,uniform,0,0,0,0,24,24,24,0,0,74,74,74,74,74,0,74,0,47,47,47,47,47,0,47,29-03-22,29-03-22,19:33:56,Fri Apr 29 2022 19:33:56 GMT+0200 (közép-európai nyári idő),The main experiment item,yes,0,0,C:/Users/rrics/Documents/!!ResearchBMECOGSCI/gnet,0,0,0,prototype1.png,no,mono,no,18,no,black,no,no,768,1238,3.5.6,legacy,xpyriment,osweb,1.3.13,0,space,space,space,space,40387,20184,76437,40387,2,legacy,680,1280,24,720,24,0,0,1280,1651253653657,1024,2,48000,-16,experiment,p4sarr2.png,1,odd,Win32,134,132064,129052,134,134,697316,698820,692315,133586,692315,134,954526,956029,951523,698825,951523,visual_patterns,0,0,0,yes,1366
