acc,accuracy,average_response_time,avg_rt,background,bidi,browser_codename,browser_name,browser_version,canvas_backend,clock_backend,color_backend,compensation,coordinates,count_end,count_experiment,count_osweb,count_prestudy,count_prestudy_isi,count_prestudy_sequence,count_prestudy_stimpres,count_start,count_study,count_study_coroutines,count_study_isi,count_study_logger,count_study_response,count_study_sequence,count_study_start,count_study_stimpres,count_test,count_test_coroutines,count_test_isi,count_test_logger,count_test_response,count_test_sequence,count_test_start,count_test_stimpres,date_startdate,date_startdateUTC,date_starttime,datetime,description,disable_garbage_collection,experiment_debug,experiment_parameters,experiment_path,experiment_pilot,experiment_taskname,experiment_taskversion,fampict,font_bold,font_family,font_italic,font_size,font_underline,foreground,form_clicks,fullscreen,height,jatosStudyResultId,jatosVersion,keyboard_backend,mouse_backend,opensesame_codename,opensesame_version,repeat_cycle,response,response_start,response_study_start,response_test_start,response_time,response_time_start,response_time_study_start,response_time_test_start,round_decimals,sampler_backend,screen_availableHeight,screen_availableWidth,screen_colorDepth,screen_height,screen_pixelDepth,screen_screenX,screen_screenY,screen_width,sessionid,sound_buf_size,sound_channels,sound_freq,sound_sample_size,start,stim,subject_nr,subject_parity,system_os,time_prestudy,time_prestudy_isi,time_prestudy_stimpres,time_start,time_study,time_study_isi,time_study_logger,time_study_response,time_study_start,time_study_stimpres,time_test,time_test_isi,time_test_logger,time_test_response,time_test_start,time_test_stimpres,title,total_correct,total_response_time,total_responses,uniform_coordinates,width
undefined,undefined,undefined,undefined,white,no,Mozilla,Netscape,"5.0 (Windows NT 10.0; Win64; x64) AppleWebKit/537.36 (KHTML, like Gecko) Chrome/100.0.4896.127 Safari/537.36",xpyriment,legacy,legacy,0,uniform,0,0,0,0,24,24,24,0,0,0,0,0,0,0,0,0,0,,,,,,0,,30-03-22,30-03-22,21:56:18,Sat Apr 30 2022 21:56:18 GMT+0300 (kelet-európai nyári idő),The main experiment item,yes,0,0,C:/Users/rrics/Documents/!!ResearchBMECOGSCI/gnet,0,0,0,prototype1.png,no,mono,no,18,no,black,no,no,768,1241,3.5.6,legacy,xpyriment,osweb,1.3.13,0,space,space,space,,26554,25162,26554,,2,legacy,824,1536,24,864,24,0,0,1536,1651345023116,1024,2,48000,-16,experiment,p6sarr1.png,0,even,Win32,309,137271,134256,309,309,170379,171884,165379,138789,165379,309,,,,,,visual_patterns,0,0,0,yes,1366
undefined,undefined,undefined,undefined,white,no,Mozilla,Netscape,"5.0 (Windows NT 10.0; Win64; x64) AppleWebKit/537.36 (KHTML, like Gecko) Chrome/100.0.4896.127 Safari/537.36",xpyriment,legacy,legacy,0,uniform,0,0,0,0,24,24,24,0,0,1,1,1,1,1,0,1,0,,,,,,0,,30-03-22,30-03-22,21:56:18,Sat Apr 30 2022 21:56:18 GMT+0300 (kelet-európai nyári idő),The main experiment item,yes,0,0,C:/Users/rrics/Documents/!!ResearchBMECOGSCI/gnet,0,0,0,prototype1.png,no,mono,no,18,no,black,no,no,768,1241,3.5.6,legacy,xpyriment,osweb,1.3.13,0,space,space,space,,26554,25162,26554,,2,legacy,824,1536,24,864,24,0,0,1536,1651345023116,1024,2,48000,-16,experiment,prototype3.png,0,even,Win32,309,137271,134256,309,309,176905,178414,171902,138789,171902,309,,,,,,visual_patterns,0,0,0,yes,1366
undefined,undefined,undefined,undefined,white,no,Mozilla,Netscape,"5.0 (Windows NT 10.0; Win64; x64) AppleWebKit/537.36 (KHTML, like Gecko) Chrome/100.0.4896.127 Safari/537.36",xpyriment,legacy,legacy,0,uniform,0,0,0,0,24,24,24,0,0,2,2,2,2,2,0,2,0,,,,,,0,,30-03-22,30-03-22,21:56:18,Sat Apr 30 2022 21:56:18 GMT+0300 (kelet-európai nyári idő),The main experiment item,yes,0,0,C:/Users/rrics/Documents/!!ResearchBMECOGSCI/gnet,0,0,0,prototype1.png,no,mono,no,18,no,black,no,no,768,1241,3.5.6,legacy,xpyriment,osweb,1.3.13,0,space,space,space,,26554,25162,26554,,2,legacy,824,1536,24,864,24,0,0,1536,1651345023116,1024,2,48000,-16,experiment,p3sarr1.png,0,even,Win32,309,137271,134256,309,309,183431,184947,178432,138789,178431,309,,,,,,visual_patterns,0,0,0,yes,1366
undefined,undefined,undefined,undefined,white,no,Mozilla,Netscape,"5.0 (Windows NT 10.0; Win64; x64) AppleWebKit/537.36 (KHTML, like Gecko) Chrome/100.0.4896.127 Safari/537.36",xpyriment,legacy,legacy,0,uniform,0,0,0,0,24,24,24,0,0,3,3,3,3,3,0,3,0,,,,,,0,,30-03-22,30-03-22,21:56:18,Sat Apr 30 2022 21:56:18 GMT+0300 (kelet-európai nyári idő),The main experiment item,yes,0,0,C:/Users/rrics/Documents/!!ResearchBMECOGSCI/gnet,0,0,0,prototype1.png,no,mono,no,18,no,black,no,no,768,1241,3.5.6,legacy,xpyriment,osweb,1.3.13,0,space,space,space,,26554,25162,26554,,2,legacy,824,1536,24,864,24,0,0,1536,1651345023116,1024,2,48000,-16,experiment,p9sarr2.png,0,even,Win32,309,137271,134256,309,309,189963,191479,184961,138789,184961,309,,,,,,visual_patterns,0,0,0,yes,1366
undefined,undefined,undefined,undefined,white,no,Mozilla,Netscape,"5.0 (Windows NT 10.0; Win64; x64) AppleWebKit/537.36 (KHTML, like Gecko) Chrome/100.0.4896.127 Safari/537.36",xpyriment,legacy,legacy,0,uniform,0,0,0,0,24,24,24,0,0,4,4,4,4,4,0,4,0,,,,,,0,,30-03-22,30-03-22,21:56:18,Sat Apr 30 2022 21:56:18 GMT+0300 (kelet-európai nyári idő),The main experiment item,yes,0,0,C:/Users/rrics/Documents/!!ResearchBMECOGSCI/gnet,0,0,0,prototype1.png,no,mono,no,18,no,black,no,no,768,1241,3.5.6,legacy,xpyriment,osweb,1.3.13,0,space,space,space,,26554,25162,26554,,2,legacy,824,1536,24,864,24,0,0,1536,1651345023116,1024,2,48000,-16,experiment,p4sarr2.png,0,even,Win32,309,137271,134256,309,309,196495,198011,191495,138789,191495,309,,,,,,visual_patterns,0,0,0,yes,1366
undefined,undefined,undefined,undefined,white,no,Mozilla,Netscape,"5.0 (Windows NT 10.0; Win64; x64) AppleWebKit/537.36 (KHTML, like Gecko) Chrome/100.0.4896.127 Safari/537.36",xpyriment,legacy,legacy,0,uniform,0,0,0,0,24,24,24,0,0,5,5,5,5,5,0,5,0,,,,,,0,,30-03-22,30-03-22,21:56:18,Sat Apr 30 2022 21:56:18 GMT+0300 (kelet-európai nyári idő),The main experiment item,yes,0,0,C:/Users/rrics/Documents/!!ResearchBMECOGSCI/gnet,0,0,0,prototype1.png,no,mono,no,18,no,black,no,no,768,1241,3.5.6,legacy,xpyriment,osweb,1.3.13,0,space,space,space,,26554,25162,26554,,2,legacy,824,1536,24,864,24,0,0,1536,1651345023116,1024,2,48000,-16,experiment,p4sarrshacol2.png,0,even,Win32,309,137271,134256,309,309,203028,204551,198025,138789,198025,309,,,,,,visual_patterns,0,0,0,yes,1366
undefined,undefined,undefined,undefined,white,no,Mozilla,Netscape,"5.0 (Windows NT 10.0; Win64; x64) AppleWebKit/537.36 (KHTML, like Gecko) Chrome/100.0.4896.127 Safari/537.36",xpyriment,legacy,legacy,0,uniform,0,0,0,0,24,24,24,0,0,6,6,6,6,6,0,6,0,,,,,,0,,30-03-22,30-03-22,21:56:18,Sat Apr 30 2022 21:56:18 GMT+0300 (kelet-európai nyári idő),The main experiment item,yes,0,0,C:/Users/rrics/Documents/!!ResearchBMECOGSCI/gnet,0,0,0,prototype1.png,no,mono,no,18,no,black,no,no,768,1241,3.5.6,legacy,xpyriment,osweb,1.3.13,0,space,space,space,,26554,25162,26554,,2,legacy,824,1536,24,864,24,0,0,1536,1651345023116,1024,2,48000,-16,experiment,p5sarrsha2.png,0,even,Win32,309,137271,134256,309,309,209569,211077,204565,138789,204565,309,,,,,,visual_patterns,0,0,0,yes,1366
undefined,undefined,undefined,undefined,white,no,Mozilla,Netscape,"5.0 (Windows NT 10.0; Win64; x64) AppleWebKit/537.36 (KHTML, like Gecko) Chrome/100.0.4896.127 Safari/537.36",xpyriment,legacy,legacy,0,uniform,0,0,0,0,24,24,24,0,0,7,7,7,7,7,0,7,0,,,,,,0,,30-03-22,30-03-22,21:56:18,Sat Apr 30 2022 21:56:18 GMT+0300 (kelet-európai nyári idő),The main experiment item,yes,0,0,C:/Users/rrics/Documents/!!ResearchBMECOGSCI/gnet,0,0,0,prototype1.png,no,mono,no,18,no,black,no,no,768,1241,3.5.6,legacy,xpyriment,osweb,1.3.13,0,space,space,space,,26554,25162,26554,,2,legacy,824,1536,24,864,24,0,0,1536,1651345023116,1024,2,48000,-16,experiment,p2sarr1.png,0,even,Win32,309,137271,134256,309,309,216089,217592,211093,138789,211093,309,,,,,,visual_patterns,0,0,0,yes,1366
undefined,undefined,undefined,undefined,white,no,Mozilla,Netscape,"5.0 (Windows NT 10.0; Win64; x64) AppleWebKit/537.36 (KHTML, like Gecko) Chrome/100.0.4896.127 Safari/537.36",xpyriment,legacy,legacy,0,uniform,0,0,0,0,24,24,24,0,0,8,8,8,8,8,0,8,0,,,,,,0,,30-03-22,30-03-22,21:56:18,Sat Apr 30 2022 21:56:18 GMT+0300 (kelet-európai nyári idő),The main experiment item,yes,0,0,C:/Users/rrics/Documents/!!ResearchBMECOGSCI/gnet,0,0,0,prototype1.png,no,mono,no,18,no,black,no,no,768,1241,3.5.6,legacy,xpyriment,osweb,1.3.13,0,space,space,space,,26554,25162,26554,,2,legacy,824,1536,24,864,24,0,0,1536,1651345023116,1024,2,48000,-16,experiment,prototype4.png,0,even,Win32,309,137271,134256,309,309,222609,224125,217606,138789,217605,309,,,,,,visual_patterns,0,0,0,yes,1366
undefined,undefined,undefined,undefined,white,no,Mozilla,Netscape,"5.0 (Windows NT 10.0; Win64; x64) AppleWebKit/537.36 (KHTML, like Gecko) Chrome/100.0.4896.127 Safari/537.36",xpyriment,legacy,legacy,0,uniform,0,0,0,0,24,24,24,0,0,9,9,9,9,9,0,9,0,,,,,,0,,30-03-22,30-03-22,21:56:18,Sat Apr 30 2022 21:56:18 GMT+0300 (kelet-európai nyári idő),The main experiment item,yes,0,0,C:/Users/rrics/Documents/!!ResearchBMECOGSCI/gnet,0,0,0,prototype1.png,no,mono,no,18,no,black,no,no,768,1241,3.5.6,legacy,xpyriment,osweb,1.3.13,0,space,space,space,,26554,25162,26554,,2,legacy,824,1536,24,864,24,0,0,1536,1651345023116,1024,2,48000,-16,experiment,p5sarrsha1.png,0,even,Win32,309,137271,134256,309,309,229141,230657,224142,138789,224142,309,,,,,,visual_patterns,0,0,0,yes,1366
undefined,undefined,undefined,undefined,white,no,Mozilla,Netscape,"5.0 (Windows NT 10.0; Win64; x64) AppleWebKit/537.36 (KHTML, like Gecko) Chrome/100.0.4896.127 Safari/537.36",xpyriment,legacy,legacy,0,uniform,0,0,0,0,24,24,24,0,0,10,10,10,10,10,0,10,0,,,,,,0,,30-03-22,30-03-22,21:56:18,Sat Apr 30 2022 21:56:18 GMT+0300 (kelet-európai nyári idő),The main experiment item,yes,0,0,C:/Users/rrics/Documents/!!ResearchBMECOGSCI/gnet,0,0,0,prototype1.png,no,mono,no,18,no,black,no,no,768,1241,3.5.6,legacy,xpyriment,osweb,1.3.13,0,space,space,space,,26554,25162,26554,,2,legacy,824,1536,24,864,24,0,0,1536,1651345023116,1024,2,48000,-16,experiment,p5sarrcol1.png,0,even,Win32,309,137271,134256,309,309,235672,237173,230672,138789,230672,309,,,,,,visual_patterns,0,0,0,yes,1366
undefined,undefined,undefined,undefined,white,no,Mozilla,Netscape,"5.0 (Windows NT 10.0; Win64; x64) AppleWebKit/537.36 (KHTML, like Gecko) Chrome/100.0.4896.127 Safari/537.36",xpyriment,legacy,legacy,0,uniform,0,0,0,0,24,24,24,0,0,11,11,11,11,11,0,11,0,,,,,,0,,30-03-22,30-03-22,21:56:18,Sat Apr 30 2022 21:56:18 GMT+0300 (kelet-európai nyári idő),The main experiment item,yes,0,0,C:/Users/rrics/Documents/!!ResearchBMECOGSCI/gnet,0,0,0,prototype1.png,no,mono,no,18,no,black,no,no,768,1241,3.5.6,legacy,xpyriment,osweb,1.3.13,0,space,space,space,,26554,25162,26554,,2,legacy,824,1536,24,864,24,0,0,1536,1651345023116,1024,2,48000,-16,experiment,p8sarr2.png,0,even,Win32,309,137271,134256,309,309,242201,243705,237206,138789,237206,309,,,,,,visual_patterns,0,0,0,yes,1366
undefined,undefined,undefined,undefined,white,no,Mozilla,Netscape,"5.0 (Windows NT 10.0; Win64; x64) AppleWebKit/537.36 (KHTML, like Gecko) Chrome/100.0.4896.127 Safari/537.36",xpyriment,legacy,legacy,0,uniform,0,0,0,0,24,24,24,0,0,12,12,12,12,12,0,12,0,,,,,,0,,30-03-22,30-03-22,21:56:18,Sat Apr 30 2022 21:56:18 GMT+0300 (kelet-európai nyári idő),The main experiment item,yes,0,0,C:/Users/rrics/Documents/!!ResearchBMECOGSCI/gnet,0,0,0,prototype1.png,no,mono,no,18,no,black,no,no,768,1241,3.5.6,legacy,xpyriment,osweb,1.3.13,0,space,space,space,,26554,25162,26554,,2,legacy,824,1536,24,864,24,0,0,1536,1651345023116,1024,2,48000,-16,experiment,p5sarrshacol2.png,0,even,Win32,309,137271,134256,309,309,248722,250238,243720,138789,243720,309,,,,,,visual_patterns,0,0,0,yes,1366
undefined,undefined,undefined,undefined,white,no,Mozilla,Netscape,"5.0 (Windows NT 10.0; Win64; x64) AppleWebKit/537.36 (KHTML, like Gecko) Chrome/100.0.4896.127 Safari/537.36",xpyriment,legacy,legacy,0,uniform,0,0,0,0,24,24,24,0,0,13,13,13,13,13,0,13,0,,,,,,0,,30-03-22,30-03-22,21:56:18,Sat Apr 30 2022 21:56:18 GMT+0300 (kelet-európai nyári idő),The main experiment item,yes,0,0,C:/Users/rrics/Documents/!!ResearchBMECOGSCI/gnet,0,0,0,prototype1.png,no,mono,no,18,no,black,no,no,768,1241,3.5.6,legacy,xpyriment,osweb,1.3.13,0,space,space,space,,26554,25162,26554,,2,legacy,824,1536,24,864,24,0,0,1536,1651345023116,1024,2,48000,-16,experiment,p8sarr1.png,0,even,Win32,309,137271,134256,309,309,255249,256754,250247,138789,250247,309,,,,,,visual_patterns,0,0,0,yes,1366
undefined,undefined,undefined,undefined,white,no,Mozilla,Netscape,"5.0 (Windows NT 10.0; Win64; x64) AppleWebKit/537.36 (KHTML, like Gecko) Chrome/100.0.4896.127 Safari/537.36",xpyriment,legacy,legacy,0,uniform,0,0,0,0,24,24,24,0,0,14,14,14,14,14,0,14,0,,,,,,0,,30-03-22,30-03-22,21:56:18,Sat Apr 30 2022 21:56:18 GMT+0300 (kelet-európai nyári idő),The main experiment item,yes,0,0,C:/Users/rrics/Documents/!!ResearchBMECOGSCI/gnet,0,0,0,prototype1.png,no,mono,no,18,no,black,no,no,768,1241,3.5.6,legacy,xpyriment,osweb,1.3.13,0,space,space,space,,26554,25162,26554,,2,legacy,824,1536,24,864,24,0,0,1536,1651345023116,1024,2,48000,-16,experiment,p3sarrcol1.png,0,even,Win32,309,137271,134256,309,309,261768,263270,256767,138789,256767,309,,,,,,visual_patterns,0,0,0,yes,1366
undefined,undefined,undefined,undefined,white,no,Mozilla,Netscape,"5.0 (Windows NT 10.0; Win64; x64) AppleWebKit/537.36 (KHTML, like Gecko) Chrome/100.0.4896.127 Safari/537.36",xpyriment,legacy,legacy,0,uniform,0,0,0,0,24,24,24,0,0,15,15,15,15,15,0,15,0,,,,,,0,,30-03-22,30-03-22,21:56:18,Sat Apr 30 2022 21:56:18 GMT+0300 (kelet-európai nyári idő),The main experiment item,yes,0,0,C:/Users/rrics/Documents/!!ResearchBMECOGSCI/gnet,0,0,0,prototype1.png,no,mono,no,18,no,black,no,no,768,1241,3.5.6,legacy,xpyriment,osweb,1.3.13,0,space,space,space,,26554,25162,26554,,2,legacy,824,1536,24,864,24,0,0,1536,1651345023116,1024,2,48000,-16,experiment,prototype1.png,0,even,Win32,309,137271,134256,309,309,268286,269802,263281,138789,263281,309,,,,,,visual_patterns,0,0,0,yes,1366
undefined,undefined,undefined,undefined,white,no,Mozilla,Netscape,"5.0 (Windows NT 10.0; Win64; x64) AppleWebKit/537.36 (KHTML, like Gecko) Chrome/100.0.4896.127 Safari/537.36",xpyriment,legacy,legacy,0,uniform,0,0,0,0,24,24,24,0,0,16,16,16,16,16,0,16,0,,,,,,0,,30-03-22,30-03-22,21:56:18,Sat Apr 30 2022 21:56:18 GMT+0300 (kelet-európai nyári idő),The main experiment item,yes,0,0,C:/Users/rrics/Documents/!!ResearchBMECOGSCI/gnet,0,0,0,prototype1.png,no,mono,no,18,no,black,no,no,768,1241,3.5.6,legacy,xpyriment,osweb,1.3.13,0,space,space,space,,26554,25162,26554,,2,legacy,824,1536,24,864,24,0,0,1536,1651345023116,1024,2,48000,-16,experiment,p2sarr2.png,0,even,Win32,309,137271,134256,309,309,274835,276351,269838,138789,269838,309,,,,,,visual_patterns,0,0,0,yes,1366
undefined,undefined,undefined,undefined,white,no,Mozilla,Netscape,"5.0 (Windows NT 10.0; Win64; x64) AppleWebKit/537.36 (KHTML, like Gecko) Chrome/100.0.4896.127 Safari/537.36",xpyriment,legacy,legacy,0,uniform,0,0,0,0,24,24,24,0,0,17,17,17,17,17,0,17,0,,,,,,0,,30-03-22,30-03-22,21:56:18,Sat Apr 30 2022 21:56:18 GMT+0300 (kelet-európai nyári idő),The main experiment item,yes,0,0,C:/Users/rrics/Documents/!!ResearchBMECOGSCI/gnet,0,0,0,prototype1.png,no,mono,no,18,no,black,no,no,768,1241,3.5.6,legacy,xpyriment,osweb,1.3.13,0,space,space,space,,26554,25162,26554,,2,legacy,824,1536,24,864,24,0,0,1536,1651345023116,1024,2,48000,-16,experiment,p3sarrsha2.png,0,even,Win32,309,137271,134256,309,309,281366,282867,276365,138789,276365,309,,,,,,visual_patterns,0,0,0,yes,1366
undefined,undefined,undefined,undefined,white,no,Mozilla,Netscape,"5.0 (Windows NT 10.0; Win64; x64) AppleWebKit/537.36 (KHTML, like Gecko) Chrome/100.0.4896.127 Safari/537.36",xpyriment,legacy,legacy,0,uniform,0,0,0,0,24,24,24,0,0,18,18,18,18,18,0,18,0,,,,,,0,,30-03-22,30-03-22,21:56:18,Sat Apr 30 2022 21:56:18 GMT+0300 (kelet-európai nyári idő),The main experiment item,yes,0,0,C:/Users/rrics/Documents/!!ResearchBMECOGSCI/gnet,0,0,0,prototype1.png,no,mono,no,18,no,black,no,no,768,1241,3.5.6,legacy,xpyriment,osweb,1.3.13,0,space,space,space,,26554,25162,26554,,2,legacy,824,1536,24,864,24,0,0,1536,1651345023116,1024,2,48000,-16,experiment,prototype4.png,0,even,Win32,309,137271,134256,309,309,287880,289383,282878,138789,282878,309,,,,,,visual_patterns,0,0,0,yes,1366
undefined,undefined,undefined,undefined,white,no,Mozilla,Netscape,"5.0 (Windows NT 10.0; Win64; x64) AppleWebKit/537.36 (KHTML, like Gecko) Chrome/100.0.4896.127 Safari/537.36",xpyriment,legacy,legacy,0,uniform,0,0,0,0,24,24,24,0,0,19,19,19,19,19,0,19,0,,,,,,0,,30-03-22,30-03-22,21:56:18,Sat Apr 30 2022 21:56:18 GMT+0300 (kelet-európai nyári idő),The main experiment item,yes,0,0,C:/Users/rrics/Documents/!!ResearchBMECOGSCI/gnet,0,0,0,prototype1.png,no,mono,no,18,no,black,no,no,768,1241,3.5.6,legacy,xpyriment,osweb,1.3.13,0,space,space,space,,26554,25162,26554,,2,legacy,824,1536,24,864,24,0,0,1536,1651345023116,1024,2,48000,-16,experiment,p3sarrsha1.png,0,even,Win32,309,137271,134256,309,309,294398,295915,289396,138789,289396,309,,,,,,visual_patterns,0,0,0,yes,1366
undefined,undefined,undefined,undefined,white,no,Mozilla,Netscape,"5.0 (Windows NT 10.0; Win64; x64) AppleWebKit/537.36 (KHTML, like Gecko) Chrome/100.0.4896.127 Safari/537.36",xpyriment,legacy,legacy,0,uniform,0,0,0,0,24,24,24,0,0,20,20,20,20,20,0,20,0,,,,,,0,,30-03-22,30-03-22,21:56:18,Sat Apr 30 2022 21:56:18 GMT+0300 (kelet-európai nyári idő),The main experiment item,yes,0,0,C:/Users/rrics/Documents/!!ResearchBMECOGSCI/gnet,0,0,0,prototype1.png,no,mono,no,18,no,black,no,no,768,1241,3.5.6,legacy,xpyriment,osweb,1.3.13,0,space,space,space,,26554,25162,26554,,2,legacy,824,1536,24,864,24,0,0,1536,1651345023116,1024,2,48000,-16,experiment,prototype2.png,0,even,Win32,309,137271,134256,309,309,300929,302431,295924,138789,295924,309,,,,,,visual_patterns,0,0,0,yes,1366
undefined,undefined,undefined,undefined,white,no,Mozilla,Netscape,"5.0 (Windows NT 10.0; Win64; x64) AppleWebKit/537.36 (KHTML, like Gecko) Chrome/100.0.4896.127 Safari/537.36",xpyriment,legacy,legacy,0,uniform,0,0,0,0,24,24,24,0,0,21,21,21,21,21,0,21,0,,,,,,0,,30-03-22,30-03-22,21:56:18,Sat Apr 30 2022 21:56:18 GMT+0300 (kelet-európai nyári idő),The main experiment item,yes,0,0,C:/Users/rrics/Documents/!!ResearchBMECOGSCI/gnet,0,0,0,prototype1.png,no,mono,no,18,no,black,no,no,768,1241,3.5.6,legacy,xpyriment,osweb,1.3.13,0,space,space,space,,26554,25162,26554,,2,legacy,824,1536,24,864,24,0,0,1536,1651345023116,1024,2,48000,-16,experiment,p4sarrcol2.png,0,even,Win32,309,137271,134256,309,309,307463,308964,302463,138789,302463,309,,,,,,visual_patterns,0,0,0,yes,1366
undefined,undefined,undefined,undefined,white,no,Mozilla,Netscape,"5.0 (Windows NT 10.0; Win64; x64) AppleWebKit/537.36 (KHTML, like Gecko) Chrome/100.0.4896.127 Safari/537.36",xpyriment,legacy,legacy,0,uniform,0,0,0,0,24,24,24,0,0,22,22,22,22,22,0,22,0,,,,,,0,,30-03-22,30-03-22,21:56:18,Sat Apr 30 2022 21:56:18 GMT+0300 (kelet-európai nyári idő),The main experiment item,yes,0,0,C:/Users/rrics/Documents/!!ResearchBMECOGSCI/gnet,0,0,0,prototype1.png,no,mono,no,18,no,black,no,no,768,1241,3.5.6,legacy,xpyriment,osweb,1.3.13,0,space,space,space,,26554,25162,26554,,2,legacy,824,1536,24,864,24,0,0,1536,1651345023116,1024,2,48000,-16,experiment,p5sarrshacol1.png,0,even,Win32,309,137271,134256,309,309,313977,315480,308978,138789,308978,309,,,,,,visual_patterns,0,0,0,yes,1366
undefined,undefined,undefined,undefined,white,no,Mozilla,Netscape,"5.0 (Windows NT 10.0; Win64; x64) AppleWebKit/537.36 (KHTML, like Gecko) Chrome/100.0.4896.127 Safari/537.36",xpyriment,legacy,legacy,0,uniform,0,0,0,0,24,24,24,0,0,23,23,23,23,23,0,23,0,,,,,,0,,30-03-22,30-03-22,21:56:18,Sat Apr 30 2022 21:56:18 GMT+0300 (kelet-európai nyári idő),The main experiment item,yes,0,0,C:/Users/rrics/Documents/!!ResearchBMECOGSCI/gnet,0,0,0,prototype1.png,no,mono,no,18,no,black,no,no,768,1241,3.5.6,legacy,xpyriment,osweb,1.3.13,0,space,space,space,,26554,25162,26554,,2,legacy,824,1536,24,864,24,0,0,1536,1651345023116,1024,2,48000,-16,experiment,prototype2.png,0,even,Win32,309,137271,134256,309,309,320492,321995,315490,138789,315490,309,,,,,,visual_patterns,0,0,0,yes,1366
undefined,undefined,undefined,undefined,white,no,Mozilla,Netscape,"5.0 (Windows NT 10.0; Win64; x64) AppleWebKit/537.36 (KHTML, like Gecko) Chrome/100.0.4896.127 Safari/537.36",xpyriment,legacy,legacy,0,uniform,0,0,0,0,24,24,24,0,0,24,24,24,24,24,0,24,0,,,,,,0,,30-03-22,30-03-22,21:56:18,Sat Apr 30 2022 21:56:18 GMT+0300 (kelet-európai nyári idő),The main experiment item,yes,0,0,C:/Users/rrics/Documents/!!ResearchBMECOGSCI/gnet,0,0,0,prototype1.png,no,mono,no,18,no,black,no,no,768,1241,3.5.6,legacy,xpyriment,osweb,1.3.13,0,space,space,space,,26554,25162,26554,,2,legacy,824,1536,24,864,24,0,0,1536,1651345023116,1024,2,48000,-16,experiment,p4sarrsha2.png,0,even,Win32,309,137271,134256,309,309,327007,328512,322010,138789,322010,309,,,,,,visual_patterns,0,0,0,yes,1366
undefined,undefined,undefined,undefined,white,no,Mozilla,Netscape,"5.0 (Windows NT 10.0; Win64; x64) AppleWebKit/537.36 (KHTML, like Gecko) Chrome/100.0.4896.127 Safari/537.36",xpyriment,legacy,legacy,0,uniform,0,0,0,0,24,24,24,0,0,25,25,25,25,25,0,25,0,,,,,,0,,30-03-22,30-03-22,21:56:18,Sat Apr 30 2022 21:56:18 GMT+0300 (kelet-európai nyári idő),The main experiment item,yes,0,0,C:/Users/rrics/Documents/!!ResearchBMECOGSCI/gnet,0,0,0,prototype1.png,no,mono,no,18,no,black,no,no,768,1241,3.5.6,legacy,xpyriment,osweb,1.3.13,0,space,space,space,,26554,25162,26554,,2,legacy,824,1536,24,864,24,0,0,1536,1651345023116,1024,2,48000,-16,experiment,p9sarr1.png,0,even,Win32,309,137271,134256,309,309,333522,335027,328526,138789,328526,309,,,,,,visual_patterns,0,0,0,yes,1366
undefined,undefined,undefined,undefined,white,no,Mozilla,Netscape,"5.0 (Windows NT 10.0; Win64; x64) AppleWebKit/537.36 (KHTML, like Gecko) Chrome/100.0.4896.127 Safari/537.36",xpyriment,legacy,legacy,0,uniform,0,0,0,0,24,24,24,0,0,26,26,26,26,26,0,26,0,,,,,,0,,30-03-22,30-03-22,21:56:18,Sat Apr 30 2022 21:56:18 GMT+0300 (kelet-európai nyári idő),The main experiment item,yes,0,0,C:/Users/rrics/Documents/!!ResearchBMECOGSCI/gnet,0,0,0,prototype1.png,no,mono,no,18,no,black,no,no,768,1241,3.5.6,legacy,xpyriment,osweb,1.3.13,0,space,space,space,,26554,25162,26554,,2,legacy,824,1536,24,864,24,0,0,1536,1651345023116,1024,2,48000,-16,experiment,prototype1.png,0,even,Win32,309,137271,134256,309,309,340044,341559,335039,138789,335039,309,,,,,,visual_patterns,0,0,0,yes,1366
undefined,undefined,undefined,undefined,white,no,Mozilla,Netscape,"5.0 (Windows NT 10.0; Win64; x64) AppleWebKit/537.36 (KHTML, like Gecko) Chrome/100.0.4896.127 Safari/537.36",xpyriment,legacy,legacy,0,uniform,0,0,0,0,24,24,24,0,0,27,27,27,27,27,0,27,0,,,,,,0,,30-03-22,30-03-22,21:56:18,Sat Apr 30 2022 21:56:18 GMT+0300 (kelet-európai nyári idő),The main experiment item,yes,0,0,C:/Users/rrics/Documents/!!ResearchBMECOGSCI/gnet,0,0,0,prototype1.png,no,mono,no,18,no,black,no,no,768,1241,3.5.6,legacy,xpyriment,osweb,1.3.13,0,space,space,space,,26554,25162,26554,,2,legacy,824,1536,24,864,24,0,0,1536,1651345023116,1024,2,48000,-16,experiment,p4sarrcol1.png,0,even,Win32,309,137271,134256,309,309,346575,348091,341577,138789,341577,309,,,,,,visual_patterns,0,0,0,yes,1366
undefined,undefined,undefined,undefined,white,no,Mozilla,Netscape,"5.0 (Windows NT 10.0; Win64; x64) AppleWebKit/537.36 (KHTML, like Gecko) Chrome/100.0.4896.127 Safari/537.36",xpyriment,legacy,legacy,0,uniform,0,0,0,0,24,24,24,0,0,28,28,28,28,28,0,28,0,,,,,,0,,30-03-22,30-03-22,21:56:18,Sat Apr 30 2022 21:56:18 GMT+0300 (kelet-európai nyári idő),The main experiment item,yes,0,0,C:/Users/rrics/Documents/!!ResearchBMECOGSCI/gnet,0,0,0,prototype1.png,no,mono,no,18,no,black,no,no,768,1241,3.5.6,legacy,xpyriment,osweb,1.3.13,0,space,space,space,,26554,25162,26554,,2,legacy,824,1536,24,864,24,0,0,1536,1651345023116,1024,2,48000,-16,experiment,prototype4.png,0,even,Win32,309,137271,134256,309,309,353107,354608,348101,138789,348101,309,,,,,,visual_patterns,0,0,0,yes,1366
undefined,undefined,undefined,undefined,white,no,Mozilla,Netscape,"5.0 (Windows NT 10.0; Win64; x64) AppleWebKit/537.36 (KHTML, like Gecko) Chrome/100.0.4896.127 Safari/537.36",xpyriment,legacy,legacy,0,uniform,0,0,0,0,24,24,24,0,0,29,29,29,29,29,0,29,0,,,,,,0,,30-03-22,30-03-22,21:56:18,Sat Apr 30 2022 21:56:18 GMT+0300 (kelet-európai nyári idő),The main experiment item,yes,0,0,C:/Users/rrics/Documents/!!ResearchBMECOGSCI/gnet,0,0,0,prototype1.png,no,mono,no,18,no,black,no,no,768,1241,3.5.6,legacy,xpyriment,osweb,1.3.13,0,space,space,space,,26554,25162,26554,,2,legacy,824,1536,24,864,24,0,0,1536,1651345023116,1024,2,48000,-16,experiment,prototype5.png,0,even,Win32,309,137271,134256,309,309,359624,361140,354618,138789,354618,309,,,,,,visual_patterns,0,0,0,yes,1366
undefined,undefined,undefined,undefined,white,no,Mozilla,Netscape,"5.0 (Windows NT 10.0; Win64; x64) AppleWebKit/537.36 (KHTML, like Gecko) Chrome/100.0.4896.127 Safari/537.36",xpyriment,legacy,legacy,0,uniform,0,0,0,0,24,24,24,0,0,30,30,30,30,30,0,30,0,,,,,,0,,30-03-22,30-03-22,21:56:18,Sat Apr 30 2022 21:56:18 GMT+0300 (kelet-európai nyári idő),The main experiment item,yes,0,0,C:/Users/rrics/Documents/!!ResearchBMECOGSCI/gnet,0,0,0,prototype1.png,no,mono,no,18,no,black,no,no,768,1241,3.5.6,legacy,xpyriment,osweb,1.3.13,0,space,space,space,,26554,25162,26554,,2,legacy,824,1536,24,864,24,0,0,1536,1651345023116,1024,2,48000,-16,experiment,p5sarrcol2.png,0,even,Win32,309,137271,134256,309,309,366157,367673,361156,138789,361156,309,,,,,,visual_patterns,0,0,0,yes,1366
undefined,undefined,undefined,undefined,white,no,Mozilla,Netscape,"5.0 (Windows NT 10.0; Win64; x64) AppleWebKit/537.36 (KHTML, like Gecko) Chrome/100.0.4896.127 Safari/537.36",xpyriment,legacy,legacy,0,uniform,0,0,0,0,24,24,24,0,0,31,31,31,31,31,0,31,0,,,,,,0,,30-03-22,30-03-22,21:56:18,Sat Apr 30 2022 21:56:18 GMT+0300 (kelet-európai nyári idő),The main experiment item,yes,0,0,C:/Users/rrics/Documents/!!ResearchBMECOGSCI/gnet,0,0,0,prototype1.png,no,mono,no,18,no,black,no,no,768,1241,3.5.6,legacy,xpyriment,osweb,1.3.13,0,space,space,space,,26554,25162,26554,,2,legacy,824,1536,24,864,24,0,0,1536,1651345023116,1024,2,48000,-16,experiment,p2sarrsha2.png,0,even,Win32,309,137271,134256,309,309,372684,374195,367687,138789,367687,309,,,,,,visual_patterns,0,0,0,yes,1366
undefined,undefined,undefined,undefined,white,no,Mozilla,Netscape,"5.0 (Windows NT 10.0; Win64; x64) AppleWebKit/537.36 (KHTML, like Gecko) Chrome/100.0.4896.127 Safari/537.36",xpyriment,legacy,legacy,0,uniform,0,0,0,0,24,24,24,0,0,32,32,32,32,32,0,32,0,,,,,,0,,30-03-22,30-03-22,21:56:18,Sat Apr 30 2022 21:56:18 GMT+0300 (kelet-európai nyári idő),The main experiment item,yes,0,0,C:/Users/rrics/Documents/!!ResearchBMECOGSCI/gnet,0,0,0,prototype1.png,no,mono,no,18,no,black,no,no,768,1241,3.5.6,legacy,xpyriment,osweb,1.3.13,0,space,space,space,,26554,25162,26554,,2,legacy,824,1536,24,864,24,0,0,1536,1651345023116,1024,2,48000,-16,experiment,p5sarr1.png,0,even,Win32,309,137271,134256,309,309,379212,380721,374211,138789,374211,309,,,,,,visual_patterns,0,0,0,yes,1366
undefined,undefined,undefined,undefined,white,no,Mozilla,Netscape,"5.0 (Windows NT 10.0; Win64; x64) AppleWebKit/537.36 (KHTML, like Gecko) Chrome/100.0.4896.127 Safari/537.36",xpyriment,legacy,legacy,0,uniform,0,0,0,0,24,24,24,0,0,33,33,33,33,33,0,33,0,,,,,,0,,30-03-22,30-03-22,21:56:18,Sat Apr 30 2022 21:56:18 GMT+0300 (kelet-európai nyári idő),The main experiment item,yes,0,0,C:/Users/rrics/Documents/!!ResearchBMECOGSCI/gnet,0,0,0,prototype1.png,no,mono,no,18,no,black,no,no,768,1241,3.5.6,legacy,xpyriment,osweb,1.3.13,0,space,space,space,,26554,25162,26554,,2,legacy,824,1536,24,864,24,0,0,1536,1651345023116,1024,2,48000,-16,experiment,p3sarrshacol1.png,0,even,Win32,309,137271,134256,309,309,385734,387237,380735,138789,380735,309,,,,,,visual_patterns,0,0,0,yes,1366
undefined,undefined,undefined,undefined,white,no,Mozilla,Netscape,"5.0 (Windows NT 10.0; Win64; x64) AppleWebKit/537.36 (KHTML, like Gecko) Chrome/100.0.4896.127 Safari/537.36",xpyriment,legacy,legacy,0,uniform,0,0,0,0,24,24,24,0,0,34,34,34,34,34,0,34,0,,,,,,0,,30-03-22,30-03-22,21:56:18,Sat Apr 30 2022 21:56:18 GMT+0300 (kelet-európai nyári idő),The main experiment item,yes,0,0,C:/Users/rrics/Documents/!!ResearchBMECOGSCI/gnet,0,0,0,prototype1.png,no,mono,no,18,no,black,no,no,768,1241,3.5.6,legacy,xpyriment,osweb,1.3.13,0,space,space,space,,26554,25162,26554,,2,legacy,824,1536,24,864,24,0,0,1536,1651345023116,1024,2,48000,-16,experiment,prototype1.png,0,even,Win32,309,137271,134256,309,309,392247,393753,387247,138789,387247,309,,,,,,visual_patterns,0,0,0,yes,1366
undefined,undefined,undefined,undefined,white,no,Mozilla,Netscape,"5.0 (Windows NT 10.0; Win64; x64) AppleWebKit/537.36 (KHTML, like Gecko) Chrome/100.0.4896.127 Safari/537.36",xpyriment,legacy,legacy,0,uniform,0,0,0,0,24,24,24,0,0,35,35,35,35,35,0,35,0,,,,,,0,,30-03-22,30-03-22,21:56:18,Sat Apr 30 2022 21:56:18 GMT+0300 (kelet-európai nyári idő),The main experiment item,yes,0,0,C:/Users/rrics/Documents/!!ResearchBMECOGSCI/gnet,0,0,0,prototype1.png,no,mono,no,18,no,black,no,no,768,1241,3.5.6,legacy,xpyriment,osweb,1.3.13,0,space,space,space,,26554,25162,26554,,2,legacy,824,1536,24,864,24,0,0,1536,1651345023116,1024,2,48000,-16,experiment,p4sarrshacol1.png,0,even,Win32,309,137271,134256,309,309,398765,400268,393766,138789,393766,309,,,,,,visual_patterns,0,0,0,yes,1366
undefined,undefined,undefined,undefined,white,no,Mozilla,Netscape,"5.0 (Windows NT 10.0; Win64; x64) AppleWebKit/537.36 (KHTML, like Gecko) Chrome/100.0.4896.127 Safari/537.36",xpyriment,legacy,legacy,0,uniform,0,0,0,0,24,24,24,0,0,36,36,36,36,36,0,36,0,,,,,,0,,30-03-22,30-03-22,21:56:18,Sat Apr 30 2022 21:56:18 GMT+0300 (kelet-európai nyári idő),The main experiment item,yes,0,0,C:/Users/rrics/Documents/!!ResearchBMECOGSCI/gnet,0,0,0,prototype1.png,no,mono,no,18,no,black,no,no,768,1241,3.5.6,legacy,xpyriment,osweb,1.3.13,0,space,space,space,,26554,25162,26554,,2,legacy,824,1536,24,864,24,0,0,1536,1651345023116,1024,2,48000,-16,experiment,prototype3.png,0,even,Win32,309,137271,134256,309,309,405302,406817,400297,138789,400297,309,,,,,,visual_patterns,0,0,0,yes,1366
undefined,undefined,undefined,undefined,white,no,Mozilla,Netscape,"5.0 (Windows NT 10.0; Win64; x64) AppleWebKit/537.36 (KHTML, like Gecko) Chrome/100.0.4896.127 Safari/537.36",xpyriment,legacy,legacy,0,uniform,0,0,0,0,24,24,24,0,0,37,37,37,37,37,0,37,0,,,,,,0,,30-03-22,30-03-22,21:56:18,Sat Apr 30 2022 21:56:18 GMT+0300 (kelet-európai nyári idő),The main experiment item,yes,0,0,C:/Users/rrics/Documents/!!ResearchBMECOGSCI/gnet,0,0,0,prototype1.png,no,mono,no,18,no,black,no,no,768,1241,3.5.6,legacy,xpyriment,osweb,1.3.13,0,space,space,space,,26554,25162,26554,,2,legacy,824,1536,24,864,24,0,0,1536,1651345023116,1024,2,48000,-16,experiment,prototype3.png,0,even,Win32,309,137271,134256,309,309,411833,413350,406829,138789,406829,309,,,,,,visual_patterns,0,0,0,yes,1366
undefined,undefined,undefined,undefined,white,no,Mozilla,Netscape,"5.0 (Windows NT 10.0; Win64; x64) AppleWebKit/537.36 (KHTML, like Gecko) Chrome/100.0.4896.127 Safari/537.36",xpyriment,legacy,legacy,0,uniform,0,0,0,0,24,24,24,0,0,38,38,38,38,38,0,38,0,,,,,,0,,30-03-22,30-03-22,21:56:18,Sat Apr 30 2022 21:56:18 GMT+0300 (kelet-európai nyári idő),The main experiment item,yes,0,0,C:/Users/rrics/Documents/!!ResearchBMECOGSCI/gnet,0,0,0,prototype1.png,no,mono,no,18,no,black,no,no,768,1241,3.5.6,legacy,xpyriment,osweb,1.3.13,0,space,space,space,,26554,25162,26554,,2,legacy,824,1536,24,864,24,0,0,1536,1651345023116,1024,2,48000,-16,experiment,p7sarr1.png,0,even,Win32,309,137271,134256,309,309,418360,419866,413366,138789,413366,309,,,,,,visual_patterns,0,0,0,yes,1366
undefined,undefined,undefined,undefined,white,no,Mozilla,Netscape,"5.0 (Windows NT 10.0; Win64; x64) AppleWebKit/537.36 (KHTML, like Gecko) Chrome/100.0.4896.127 Safari/537.36",xpyriment,legacy,legacy,0,uniform,0,0,0,0,24,24,24,0,0,39,39,39,39,39,0,39,0,,,,,,0,,30-03-22,30-03-22,21:56:18,Sat Apr 30 2022 21:56:18 GMT+0300 (kelet-európai nyári idő),The main experiment item,yes,0,0,C:/Users/rrics/Documents/!!ResearchBMECOGSCI/gnet,0,0,0,prototype1.png,no,mono,no,18,no,black,no,no,768,1241,3.5.6,legacy,xpyriment,osweb,1.3.13,0,space,space,space,,26554,25162,26554,,2,legacy,824,1536,24,864,24,0,0,1536,1651345023116,1024,2,48000,-16,experiment,p1sarrsha1.png,0,even,Win32,309,137271,134256,309,309,424878,426381,419882,138789,419882,309,,,,,,visual_patterns,0,0,0,yes,1366
undefined,undefined,undefined,undefined,white,no,Mozilla,Netscape,"5.0 (Windows NT 10.0; Win64; x64) AppleWebKit/537.36 (KHTML, like Gecko) Chrome/100.0.4896.127 Safari/537.36",xpyriment,legacy,legacy,0,uniform,0,0,0,0,24,24,24,0,0,40,40,40,40,40,0,40,0,,,,,,0,,30-03-22,30-03-22,21:56:18,Sat Apr 30 2022 21:56:18 GMT+0300 (kelet-európai nyári idő),The main experiment item,yes,0,0,C:/Users/rrics/Documents/!!ResearchBMECOGSCI/gnet,0,0,0,prototype1.png,no,mono,no,18,no,black,no,no,768,1241,3.5.6,legacy,xpyriment,osweb,1.3.13,0,space,space,space,,26554,25162,26554,,2,legacy,824,1536,24,864,24,0,0,1536,1651345023116,1024,2,48000,-16,experiment,prototype5.png,0,even,Win32,309,137271,134256,309,309,431397,432914,426393,138789,426393,309,,,,,,visual_patterns,0,0,0,yes,1366
undefined,undefined,undefined,undefined,white,no,Mozilla,Netscape,"5.0 (Windows NT 10.0; Win64; x64) AppleWebKit/537.36 (KHTML, like Gecko) Chrome/100.0.4896.127 Safari/537.36",xpyriment,legacy,legacy,0,uniform,0,0,0,0,24,24,24,0,0,41,41,41,41,41,0,41,0,,,,,,0,,30-03-22,30-03-22,21:56:18,Sat Apr 30 2022 21:56:18 GMT+0300 (kelet-európai nyári idő),The main experiment item,yes,0,0,C:/Users/rrics/Documents/!!ResearchBMECOGSCI/gnet,0,0,0,prototype1.png,no,mono,no,18,no,black,no,no,768,1241,3.5.6,legacy,xpyriment,osweb,1.3.13,0,space,space,space,,26554,25162,26554,,2,legacy,824,1536,24,864,24,0,0,1536,1651345023116,1024,2,48000,-16,experiment,p3sarrshacol2.png,0,even,Win32,309,137271,134256,309,309,437943,439446,432946,138789,432946,309,,,,,,visual_patterns,0,0,0,yes,1366
undefined,undefined,undefined,undefined,white,no,Mozilla,Netscape,"5.0 (Windows NT 10.0; Win64; x64) AppleWebKit/537.36 (KHTML, like Gecko) Chrome/100.0.4896.127 Safari/537.36",xpyriment,legacy,legacy,0,uniform,0,0,0,0,24,24,24,0,0,42,42,42,42,42,0,42,0,,,,,,0,,30-03-22,30-03-22,21:56:18,Sat Apr 30 2022 21:56:18 GMT+0300 (kelet-európai nyári idő),The main experiment item,yes,0,0,C:/Users/rrics/Documents/!!ResearchBMECOGSCI/gnet,0,0,0,prototype1.png,no,mono,no,18,no,black,no,no,768,1241,3.5.6,legacy,xpyriment,osweb,1.3.13,0,space,space,space,,26554,25162,26554,,2,legacy,824,1536,24,864,24,0,0,1536,1651345023116,1024,2,48000,-16,experiment,p3sarrcol2.png,0,even,Win32,309,137271,134256,309,309,444463,445979,439460,138789,439460,309,,,,,,visual_patterns,0,0,0,yes,1366
undefined,undefined,undefined,undefined,white,no,Mozilla,Netscape,"5.0 (Windows NT 10.0; Win64; x64) AppleWebKit/537.36 (KHTML, like Gecko) Chrome/100.0.4896.127 Safari/537.36",xpyriment,legacy,legacy,0,uniform,0,0,0,0,24,24,24,0,0,43,43,43,43,43,0,43,0,,,,,,0,,30-03-22,30-03-22,21:56:18,Sat Apr 30 2022 21:56:18 GMT+0300 (kelet-európai nyári idő),The main experiment item,yes,0,0,C:/Users/rrics/Documents/!!ResearchBMECOGSCI/gnet,0,0,0,prototype1.png,no,mono,no,18,no,black,no,no,768,1241,3.5.6,legacy,xpyriment,osweb,1.3.13,0,space,space,space,,26554,25162,26554,,2,legacy,824,1536,24,864,24,0,0,1536,1651345023116,1024,2,48000,-16,experiment,p3sarr2.png,0,even,Win32,309,137271,134256,309,309,450992,452495,445993,138789,445993,309,,,,,,visual_patterns,0,0,0,yes,1366
undefined,undefined,undefined,undefined,white,no,Mozilla,Netscape,"5.0 (Windows NT 10.0; Win64; x64) AppleWebKit/537.36 (KHTML, like Gecko) Chrome/100.0.4896.127 Safari/537.36",xpyriment,legacy,legacy,0,uniform,0,0,0,0,24,24,24,0,0,44,44,44,44,44,0,44,0,,,,,,0,,30-03-22,30-03-22,21:56:18,Sat Apr 30 2022 21:56:18 GMT+0300 (kelet-európai nyári idő),The main experiment item,yes,0,0,C:/Users/rrics/Documents/!!ResearchBMECOGSCI/gnet,0,0,0,prototype1.png,no,mono,no,18,no,black,no,no,768,1241,3.5.6,legacy,xpyriment,osweb,1.3.13,0,space,space,space,,26554,25162,26554,,2,legacy,824,1536,24,864,24,0,0,1536,1651345023116,1024,2,48000,-16,experiment,p2sarrsha1.png,0,even,Win32,309,137271,134256,309,309,457507,459011,452509,138789,452509,309,,,,,,visual_patterns,0,0,0,yes,1366
undefined,undefined,undefined,undefined,white,no,Mozilla,Netscape,"5.0 (Windows NT 10.0; Win64; x64) AppleWebKit/537.36 (KHTML, like Gecko) Chrome/100.0.4896.127 Safari/537.36",xpyriment,legacy,legacy,0,uniform,0,0,0,0,24,24,24,0,0,45,45,45,45,45,0,45,0,,,,,,0,,30-03-22,30-03-22,21:56:18,Sat Apr 30 2022 21:56:18 GMT+0300 (kelet-európai nyári idő),The main experiment item,yes,0,0,C:/Users/rrics/Documents/!!ResearchBMECOGSCI/gnet,0,0,0,prototype1.png,no,mono,no,18,no,black,no,no,768,1241,3.5.6,legacy,xpyriment,osweb,1.3.13,0,space,space,space,,26554,25162,26554,,2,legacy,824,1536,24,864,24,0,0,1536,1651345023116,1024,2,48000,-16,experiment,p4sarrsha1.png,0,even,Win32,309,137271,134256,309,309,464021,465527,459024,138789,459024,309,,,,,,visual_patterns,0,0,0,yes,1366
undefined,undefined,undefined,undefined,white,no,Mozilla,Netscape,"5.0 (Windows NT 10.0; Win64; x64) AppleWebKit/537.36 (KHTML, like Gecko) Chrome/100.0.4896.127 Safari/537.36",xpyriment,legacy,legacy,0,uniform,0,0,0,0,24,24,24,0,0,46,46,46,46,46,0,46,0,,,,,,0,,30-03-22,30-03-22,21:56:18,Sat Apr 30 2022 21:56:18 GMT+0300 (kelet-európai nyári idő),The main experiment item,yes,0,0,C:/Users/rrics/Documents/!!ResearchBMECOGSCI/gnet,0,0,0,prototype1.png,no,mono,no,18,no,black,no,no,768,1241,3.5.6,legacy,xpyriment,osweb,1.3.13,0,space,space,space,,26554,25162,26554,,2,legacy,824,1536,24,864,24,0,0,1536,1651345023116,1024,2,48000,-16,experiment,p1sarrcol1.png,0,even,Win32,309,137271,134256,309,309,470560,472076,465560,138789,465560,309,,,,,,visual_patterns,0,0,0,yes,1366
undefined,undefined,undefined,undefined,white,no,Mozilla,Netscape,"5.0 (Windows NT 10.0; Win64; x64) AppleWebKit/537.36 (KHTML, like Gecko) Chrome/100.0.4896.127 Safari/537.36",xpyriment,legacy,legacy,0,uniform,0,0,0,0,24,24,24,0,0,47,47,47,47,47,0,47,0,,,,,,0,,30-03-22,30-03-22,21:56:18,Sat Apr 30 2022 21:56:18 GMT+0300 (kelet-európai nyári idő),The main experiment item,yes,0,0,C:/Users/rrics/Documents/!!ResearchBMECOGSCI/gnet,0,0,0,prototype1.png,no,mono,no,18,no,black,no,no,768,1241,3.5.6,legacy,xpyriment,osweb,1.3.13,0,space,space,space,,26554,25162,26554,,2,legacy,824,1536,24,864,24,0,0,1536,1651345023116,1024,2,48000,-16,experiment,p1sarrsha2.png,0,even,Win32,309,137271,134256,309,309,477090,478592,472089,138789,472089,309,,,,,,visual_patterns,0,0,0,yes,1366
undefined,undefined,undefined,undefined,white,no,Mozilla,Netscape,"5.0 (Windows NT 10.0; Win64; x64) AppleWebKit/537.36 (KHTML, like Gecko) Chrome/100.0.4896.127 Safari/537.36",xpyriment,legacy,legacy,0,uniform,0,0,0,0,24,24,24,0,0,48,48,48,48,48,0,48,0,,,,,,0,,30-03-22,30-03-22,21:56:18,Sat Apr 30 2022 21:56:18 GMT+0300 (kelet-európai nyári idő),The main experiment item,yes,0,0,C:/Users/rrics/Documents/!!ResearchBMECOGSCI/gnet,0,0,0,prototype1.png,no,mono,no,18,no,black,no,no,768,1241,3.5.6,legacy,xpyriment,osweb,1.3.13,0,space,space,space,,26554,25162,26554,,2,legacy,824,1536,24,864,24,0,0,1536,1651345023116,1024,2,48000,-16,experiment,p7sarr2.png,0,even,Win32,309,137271,134256,309,309,483600,485107,478602,138789,478602,309,,,,,,visual_patterns,0,0,0,yes,1366
undefined,undefined,undefined,undefined,white,no,Mozilla,Netscape,"5.0 (Windows NT 10.0; Win64; x64) AppleWebKit/537.36 (KHTML, like Gecko) Chrome/100.0.4896.127 Safari/537.36",xpyriment,legacy,legacy,0,uniform,0,0,0,0,24,24,24,0,0,49,49,49,49,49,0,49,0,,,,,,0,,30-03-22,30-03-22,21:56:18,Sat Apr 30 2022 21:56:18 GMT+0300 (kelet-európai nyári idő),The main experiment item,yes,0,0,C:/Users/rrics/Documents/!!ResearchBMECOGSCI/gnet,0,0,0,prototype1.png,no,mono,no,18,no,black,no,no,768,1241,3.5.6,legacy,xpyriment,osweb,1.3.13,0,space,space,space,,26554,25162,26554,,2,legacy,824,1536,24,864,24,0,0,1536,1651345023116,1024,2,48000,-16,experiment,p4sarr1.png,0,even,Win32,309,137271,134256,309,309,490123,491640,485121,138789,485121,309,,,,,,visual_patterns,0,0,0,yes,1366
undefined,undefined,undefined,undefined,white,no,Mozilla,Netscape,"5.0 (Windows NT 10.0; Win64; x64) AppleWebKit/537.36 (KHTML, like Gecko) Chrome/100.0.4896.127 Safari/537.36",xpyriment,legacy,legacy,0,uniform,0,0,0,0,24,24,24,0,0,50,50,50,50,50,0,50,0,,,,,,0,,30-03-22,30-03-22,21:56:18,Sat Apr 30 2022 21:56:18 GMT+0300 (kelet-európai nyári idő),The main experiment item,yes,0,0,C:/Users/rrics/Documents/!!ResearchBMECOGSCI/gnet,0,0,0,prototype1.png,no,mono,no,18,no,black,no,no,768,1241,3.5.6,legacy,xpyriment,osweb,1.3.13,0,space,space,space,,26554,25162,26554,,2,legacy,824,1536,24,864,24,0,0,1536,1651345023116,1024,2,48000,-16,experiment,p10sarr1.png,0,even,Win32,309,137271,134256,309,309,496654,498156,491654,138789,491654,309,,,,,,visual_patterns,0,0,0,yes,1366
undefined,undefined,undefined,undefined,white,no,Mozilla,Netscape,"5.0 (Windows NT 10.0; Win64; x64) AppleWebKit/537.36 (KHTML, like Gecko) Chrome/100.0.4896.127 Safari/537.36",xpyriment,legacy,legacy,0,uniform,0,0,0,0,24,24,24,0,0,51,51,51,51,51,0,51,0,,,,,,0,,30-03-22,30-03-22,21:56:18,Sat Apr 30 2022 21:56:18 GMT+0300 (kelet-európai nyári idő),The main experiment item,yes,0,0,C:/Users/rrics/Documents/!!ResearchBMECOGSCI/gnet,0,0,0,prototype1.png,no,mono,no,18,no,black,no,no,768,1241,3.5.6,legacy,xpyriment,osweb,1.3.13,0,space,space,space,,26554,25162,26554,,2,legacy,824,1536,24,864,24,0,0,1536,1651345023116,1024,2,48000,-16,experiment,prototype3.png,0,even,Win32,309,137271,134256,309,309,503182,504688,498183,138789,498183,309,,,,,,visual_patterns,0,0,0,yes,1366
undefined,undefined,undefined,undefined,white,no,Mozilla,Netscape,"5.0 (Windows NT 10.0; Win64; x64) AppleWebKit/537.36 (KHTML, like Gecko) Chrome/100.0.4896.127 Safari/537.36",xpyriment,legacy,legacy,0,uniform,0,0,0,0,24,24,24,0,0,52,52,52,52,52,0,52,0,,,,,,0,,30-03-22,30-03-22,21:56:18,Sat Apr 30 2022 21:56:18 GMT+0300 (kelet-európai nyári idő),The main experiment item,yes,0,0,C:/Users/rrics/Documents/!!ResearchBMECOGSCI/gnet,0,0,0,prototype1.png,no,mono,no,18,no,black,no,no,768,1241,3.5.6,legacy,xpyriment,osweb,1.3.13,0,space,space,space,,26554,25162,26554,,2,legacy,824,1536,24,864,24,0,0,1536,1651345023116,1024,2,48000,-16,experiment,p1sarr1.png,0,even,Win32,309,137271,134256,309,309,509698,511204,504701,138789,504701,309,,,,,,visual_patterns,0,0,0,yes,1366
undefined,undefined,undefined,undefined,white,no,Mozilla,Netscape,"5.0 (Windows NT 10.0; Win64; x64) AppleWebKit/537.36 (KHTML, like Gecko) Chrome/100.0.4896.127 Safari/537.36",xpyriment,legacy,legacy,0,uniform,0,0,0,0,24,24,24,0,0,53,53,53,53,53,0,53,0,,,,,,0,,30-03-22,30-03-22,21:56:18,Sat Apr 30 2022 21:56:18 GMT+0300 (kelet-európai nyári idő),The main experiment item,yes,0,0,C:/Users/rrics/Documents/!!ResearchBMECOGSCI/gnet,0,0,0,prototype1.png,no,mono,no,18,no,black,no,no,768,1241,3.5.6,legacy,xpyriment,osweb,1.3.13,0,space,space,space,,26554,25162,26554,,2,legacy,824,1536,24,864,24,0,0,1536,1651345023116,1024,2,48000,-16,experiment,p1sarrcol2.png,0,even,Win32,309,137271,134256,309,309,516215,517720,511219,138789,511219,309,,,,,,visual_patterns,0,0,0,yes,1366
undefined,undefined,undefined,undefined,white,no,Mozilla,Netscape,"5.0 (Windows NT 10.0; Win64; x64) AppleWebKit/537.36 (KHTML, like Gecko) Chrome/100.0.4896.127 Safari/537.36",xpyriment,legacy,legacy,0,uniform,0,0,0,0,24,24,24,0,0,54,54,54,54,54,0,54,0,,,,,,0,,30-03-22,30-03-22,21:56:18,Sat Apr 30 2022 21:56:18 GMT+0300 (kelet-európai nyári idő),The main experiment item,yes,0,0,C:/Users/rrics/Documents/!!ResearchBMECOGSCI/gnet,0,0,0,prototype1.png,no,mono,no,18,no,black,no,no,768,1241,3.5.6,legacy,xpyriment,osweb,1.3.13,0,space,space,space,,26554,25162,26554,,2,legacy,824,1536,24,864,24,0,0,1536,1651345023116,1024,2,48000,-16,experiment,p2sarrcol2.png,0,even,Win32,309,137271,134256,309,309,522737,524252,517733,138789,517733,309,,,,,,visual_patterns,0,0,0,yes,1366
undefined,undefined,undefined,undefined,white,no,Mozilla,Netscape,"5.0 (Windows NT 10.0; Win64; x64) AppleWebKit/537.36 (KHTML, like Gecko) Chrome/100.0.4896.127 Safari/537.36",xpyriment,legacy,legacy,0,uniform,0,0,0,0,24,24,24,0,0,55,55,55,55,55,0,55,0,,,,,,0,,30-03-22,30-03-22,21:56:18,Sat Apr 30 2022 21:56:18 GMT+0300 (kelet-európai nyári idő),The main experiment item,yes,0,0,C:/Users/rrics/Documents/!!ResearchBMECOGSCI/gnet,0,0,0,prototype1.png,no,mono,no,18,no,black,no,no,768,1241,3.5.6,legacy,xpyriment,osweb,1.3.13,0,space,space,space,,26554,25162,26554,,2,legacy,824,1536,24,864,24,0,0,1536,1651345023116,1024,2,48000,-16,experiment,prototype4.png,0,even,Win32,309,137271,134256,309,309,529269,530785,524264,138789,524264,309,,,,,,visual_patterns,0,0,0,yes,1366
undefined,undefined,undefined,undefined,white,no,Mozilla,Netscape,"5.0 (Windows NT 10.0; Win64; x64) AppleWebKit/537.36 (KHTML, like Gecko) Chrome/100.0.4896.127 Safari/537.36",xpyriment,legacy,legacy,0,uniform,0,0,0,0,24,24,24,0,0,56,56,56,56,56,0,56,0,,,,,,0,,30-03-22,30-03-22,21:56:18,Sat Apr 30 2022 21:56:18 GMT+0300 (kelet-európai nyári idő),The main experiment item,yes,0,0,C:/Users/rrics/Documents/!!ResearchBMECOGSCI/gnet,0,0,0,prototype1.png,no,mono,no,18,no,black,no,no,768,1241,3.5.6,legacy,xpyriment,osweb,1.3.13,0,space,space,space,,26554,25162,26554,,2,legacy,824,1536,24,864,24,0,0,1536,1651345023116,1024,2,48000,-16,experiment,p2sarrshacol1.png,0,even,Win32,309,137271,134256,309,309,535794,537300,530799,138789,530799,309,,,,,,visual_patterns,0,0,0,yes,1366
undefined,undefined,undefined,undefined,white,no,Mozilla,Netscape,"5.0 (Windows NT 10.0; Win64; x64) AppleWebKit/537.36 (KHTML, like Gecko) Chrome/100.0.4896.127 Safari/537.36",xpyriment,legacy,legacy,0,uniform,0,0,0,0,24,24,24,0,0,57,57,57,57,57,0,57,0,,,,,,0,,30-03-22,30-03-22,21:56:18,Sat Apr 30 2022 21:56:18 GMT+0300 (kelet-európai nyári idő),The main experiment item,yes,0,0,C:/Users/rrics/Documents/!!ResearchBMECOGSCI/gnet,0,0,0,prototype1.png,no,mono,no,18,no,black,no,no,768,1241,3.5.6,legacy,xpyriment,osweb,1.3.13,0,space,space,space,,26554,25162,26554,,2,legacy,824,1536,24,864,24,0,0,1536,1651345023116,1024,2,48000,-16,experiment,prototype5.png,0,even,Win32,309,137271,134256,309,309,542317,543833,537312,138789,537312,309,,,,,,visual_patterns,0,0,0,yes,1366
undefined,undefined,undefined,undefined,white,no,Mozilla,Netscape,"5.0 (Windows NT 10.0; Win64; x64) AppleWebKit/537.36 (KHTML, like Gecko) Chrome/100.0.4896.127 Safari/537.36",xpyriment,legacy,legacy,0,uniform,0,0,0,0,24,24,24,0,0,58,58,58,58,58,0,58,0,,,,,,0,,30-03-22,30-03-22,21:56:18,Sat Apr 30 2022 21:56:18 GMT+0300 (kelet-európai nyári idő),The main experiment item,yes,0,0,C:/Users/rrics/Documents/!!ResearchBMECOGSCI/gnet,0,0,0,prototype1.png,no,mono,no,18,no,black,no,no,768,1241,3.5.6,legacy,xpyriment,osweb,1.3.13,0,space,space,space,,26554,25162,26554,,2,legacy,824,1536,24,864,24,0,0,1536,1651345023116,1024,2,48000,-16,experiment,prototype2.png,0,even,Win32,309,137271,134256,309,309,548846,550349,543843,138789,543843,309,,,,,,visual_patterns,0,0,0,yes,1366
undefined,undefined,undefined,undefined,white,no,Mozilla,Netscape,"5.0 (Windows NT 10.0; Win64; x64) AppleWebKit/537.36 (KHTML, like Gecko) Chrome/100.0.4896.127 Safari/537.36",xpyriment,legacy,legacy,0,uniform,0,0,0,0,24,24,24,0,0,59,59,59,59,59,0,59,0,,,,,,0,,30-03-22,30-03-22,21:56:18,Sat Apr 30 2022 21:56:18 GMT+0300 (kelet-európai nyári idő),The main experiment item,yes,0,0,C:/Users/rrics/Documents/!!ResearchBMECOGSCI/gnet,0,0,0,prototype1.png,no,mono,no,18,no,black,no,no,768,1241,3.5.6,legacy,xpyriment,osweb,1.3.13,0,space,space,space,,26554,25162,26554,,2,legacy,824,1536,24,864,24,0,0,1536,1651345023116,1024,2,48000,-16,experiment,prototype5.png,0,even,Win32,309,137271,134256,309,309,555361,556864,550360,138789,550360,309,,,,,,visual_patterns,0,0,0,yes,1366
undefined,undefined,undefined,undefined,white,no,Mozilla,Netscape,"5.0 (Windows NT 10.0; Win64; x64) AppleWebKit/537.36 (KHTML, like Gecko) Chrome/100.0.4896.127 Safari/537.36",xpyriment,legacy,legacy,0,uniform,0,0,0,0,24,24,24,0,0,60,60,60,60,60,0,60,0,,,,,,0,,30-03-22,30-03-22,21:56:18,Sat Apr 30 2022 21:56:18 GMT+0300 (kelet-európai nyári idő),The main experiment item,yes,0,0,C:/Users/rrics/Documents/!!ResearchBMECOGSCI/gnet,0,0,0,prototype1.png,no,mono,no,18,no,black,no,no,768,1241,3.5.6,legacy,xpyriment,osweb,1.3.13,0,space,space,space,,26554,25162,26554,,2,legacy,824,1536,24,864,24,0,0,1536,1651345023116,1024,2,48000,-16,experiment,p1sarrshacol2.png,0,even,Win32,309,137271,134256,309,309,561881,563397,556883,138789,556883,309,,,,,,visual_patterns,0,0,0,yes,1366
undefined,undefined,undefined,undefined,white,no,Mozilla,Netscape,"5.0 (Windows NT 10.0; Win64; x64) AppleWebKit/537.36 (KHTML, like Gecko) Chrome/100.0.4896.127 Safari/537.36",xpyriment,legacy,legacy,0,uniform,0,0,0,0,24,24,24,0,0,61,61,61,61,61,0,61,0,,,,,,0,,30-03-22,30-03-22,21:56:18,Sat Apr 30 2022 21:56:18 GMT+0300 (kelet-európai nyári idő),The main experiment item,yes,0,0,C:/Users/rrics/Documents/!!ResearchBMECOGSCI/gnet,0,0,0,prototype1.png,no,mono,no,18,no,black,no,no,768,1241,3.5.6,legacy,xpyriment,osweb,1.3.13,0,space,space,space,,26554,25162,26554,,2,legacy,824,1536,24,864,24,0,0,1536,1651345023116,1024,2,48000,-16,experiment,p2sarrcol1.png,0,even,Win32,309,137271,134256,309,309,568421,569930,563415,138789,563415,309,,,,,,visual_patterns,0,0,0,yes,1366
undefined,undefined,undefined,undefined,white,no,Mozilla,Netscape,"5.0 (Windows NT 10.0; Win64; x64) AppleWebKit/537.36 (KHTML, like Gecko) Chrome/100.0.4896.127 Safari/537.36",xpyriment,legacy,legacy,0,uniform,0,0,0,0,24,24,24,0,0,62,62,62,62,62,0,62,0,,,,,,0,,30-03-22,30-03-22,21:56:18,Sat Apr 30 2022 21:56:18 GMT+0300 (kelet-európai nyári idő),The main experiment item,yes,0,0,C:/Users/rrics/Documents/!!ResearchBMECOGSCI/gnet,0,0,0,prototype1.png,no,mono,no,18,no,black,no,no,768,1241,3.5.6,legacy,xpyriment,osweb,1.3.13,0,space,space,space,,26554,25162,26554,,2,legacy,824,1536,24,864,24,0,0,1536,1651345023116,1024,2,48000,-16,experiment,p5sarr2.png,0,even,Win32,309,137271,134256,309,309,574941,576446,569944,138789,569944,309,,,,,,visual_patterns,0,0,0,yes,1366
undefined,undefined,undefined,undefined,white,no,Mozilla,Netscape,"5.0 (Windows NT 10.0; Win64; x64) AppleWebKit/537.36 (KHTML, like Gecko) Chrome/100.0.4896.127 Safari/537.36",xpyriment,legacy,legacy,0,uniform,0,0,0,0,24,24,24,0,0,63,63,63,63,63,0,63,0,,,,,,0,,30-03-22,30-03-22,21:56:18,Sat Apr 30 2022 21:56:18 GMT+0300 (kelet-európai nyári idő),The main experiment item,yes,0,0,C:/Users/rrics/Documents/!!ResearchBMECOGSCI/gnet,0,0,0,prototype1.png,no,mono,no,18,no,black,no,no,768,1241,3.5.6,legacy,xpyriment,osweb,1.3.13,0,space,space,space,,26554,25162,26554,,2,legacy,824,1536,24,864,24,0,0,1536,1651345023116,1024,2,48000,-16,experiment,p10sarr2.png,0,even,Win32,309,137271,134256,309,309,581458,582961,576462,138789,576462,309,,,,,,visual_patterns,0,0,0,yes,1366
undefined,undefined,undefined,undefined,white,no,Mozilla,Netscape,"5.0 (Windows NT 10.0; Win64; x64) AppleWebKit/537.36 (KHTML, like Gecko) Chrome/100.0.4896.127 Safari/537.36",xpyriment,legacy,legacy,0,uniform,0,0,0,0,24,24,24,0,0,64,64,64,64,64,0,64,0,,,,,,0,,30-03-22,30-03-22,21:56:18,Sat Apr 30 2022 21:56:18 GMT+0300 (kelet-európai nyári idő),The main experiment item,yes,0,0,C:/Users/rrics/Documents/!!ResearchBMECOGSCI/gnet,0,0,0,prototype1.png,no,mono,no,18,no,black,no,no,768,1241,3.5.6,legacy,xpyriment,osweb,1.3.13,0,space,space,space,,26554,25162,26554,,2,legacy,824,1536,24,864,24,0,0,1536,1651345023116,1024,2,48000,-16,experiment,prototype1.png,0,even,Win32,309,137271,134256,309,309,587971,589477,582972,138789,582972,309,,,,,,visual_patterns,0,0,0,yes,1366
undefined,undefined,undefined,undefined,white,no,Mozilla,Netscape,"5.0 (Windows NT 10.0; Win64; x64) AppleWebKit/537.36 (KHTML, like Gecko) Chrome/100.0.4896.127 Safari/537.36",xpyriment,legacy,legacy,0,uniform,0,0,0,0,24,24,24,0,0,65,65,65,65,65,0,65,0,,,,,,0,,30-03-22,30-03-22,21:56:18,Sat Apr 30 2022 21:56:18 GMT+0300 (kelet-európai nyári idő),The main experiment item,yes,0,0,C:/Users/rrics/Documents/!!ResearchBMECOGSCI/gnet,0,0,0,prototype1.png,no,mono,no,18,no,black,no,no,768,1241,3.5.6,legacy,xpyriment,osweb,1.3.13,0,space,space,space,,26554,25162,26554,,2,legacy,824,1536,24,864,24,0,0,1536,1651345023116,1024,2,48000,-16,experiment,prototype4.png,0,even,Win32,309,137271,134256,309,309,594489,595993,589487,138789,589487,309,,,,,,visual_patterns,0,0,0,yes,1366
undefined,undefined,undefined,undefined,white,no,Mozilla,Netscape,"5.0 (Windows NT 10.0; Win64; x64) AppleWebKit/537.36 (KHTML, like Gecko) Chrome/100.0.4896.127 Safari/537.36",xpyriment,legacy,legacy,0,uniform,0,0,0,0,24,24,24,0,0,66,66,66,66,66,0,66,0,,,,,,0,,30-03-22,30-03-22,21:56:18,Sat Apr 30 2022 21:56:18 GMT+0300 (kelet-európai nyári idő),The main experiment item,yes,0,0,C:/Users/rrics/Documents/!!ResearchBMECOGSCI/gnet,0,0,0,prototype1.png,no,mono,no,18,no,black,no,no,768,1241,3.5.6,legacy,xpyriment,osweb,1.3.13,0,space,space,space,,26554,25162,26554,,2,legacy,824,1536,24,864,24,0,0,1536,1651345023116,1024,2,48000,-16,experiment,p2sarrshacol2.png,0,even,Win32,309,137271,134256,309,309,601026,602542,596026,138789,596026,309,,,,,,visual_patterns,0,0,0,yes,1366
undefined,undefined,undefined,undefined,white,no,Mozilla,Netscape,"5.0 (Windows NT 10.0; Win64; x64) AppleWebKit/537.36 (KHTML, like Gecko) Chrome/100.0.4896.127 Safari/537.36",xpyriment,legacy,legacy,0,uniform,0,0,0,0,24,24,24,0,0,67,67,67,67,67,0,67,0,,,,,,0,,30-03-22,30-03-22,21:56:18,Sat Apr 30 2022 21:56:18 GMT+0300 (kelet-európai nyári idő),The main experiment item,yes,0,0,C:/Users/rrics/Documents/!!ResearchBMECOGSCI/gnet,0,0,0,prototype1.png,no,mono,no,18,no,black,no,no,768,1241,3.5.6,legacy,xpyriment,osweb,1.3.13,0,space,space,space,,26554,25162,26554,,2,legacy,824,1536,24,864,24,0,0,1536,1651345023116,1024,2,48000,-16,experiment,p1sarr2.png,0,even,Win32,309,137271,134256,309,309,607555,609058,602556,138789,602556,309,,,,,,visual_patterns,0,0,0,yes,1366
undefined,undefined,undefined,undefined,white,no,Mozilla,Netscape,"5.0 (Windows NT 10.0; Win64; x64) AppleWebKit/537.36 (KHTML, like Gecko) Chrome/100.0.4896.127 Safari/537.36",xpyriment,legacy,legacy,0,uniform,0,0,0,0,24,24,24,0,0,68,68,68,68,68,0,68,0,,,,,,0,,30-03-22,30-03-22,21:56:18,Sat Apr 30 2022 21:56:18 GMT+0300 (kelet-európai nyári idő),The main experiment item,yes,0,0,C:/Users/rrics/Documents/!!ResearchBMECOGSCI/gnet,0,0,0,prototype1.png,no,mono,no,18,no,black,no,no,768,1241,3.5.6,legacy,xpyriment,osweb,1.3.13,0,space,space,space,,26554,25162,26554,,2,legacy,824,1536,24,864,24,0,0,1536,1651345023116,1024,2,48000,-16,experiment,p6sarr2.png,0,even,Win32,309,137271,134256,309,309,614074,615590,609072,138789,609072,309,,,,,,visual_patterns,0,0,0,yes,1366
undefined,undefined,undefined,undefined,white,no,Mozilla,Netscape,"5.0 (Windows NT 10.0; Win64; x64) AppleWebKit/537.36 (KHTML, like Gecko) Chrome/100.0.4896.127 Safari/537.36",xpyriment,legacy,legacy,0,uniform,0,0,0,0,24,24,24,0,0,69,69,69,69,69,0,69,0,,,,,,0,,30-03-22,30-03-22,21:56:18,Sat Apr 30 2022 21:56:18 GMT+0300 (kelet-európai nyári idő),The main experiment item,yes,0,0,C:/Users/rrics/Documents/!!ResearchBMECOGSCI/gnet,0,0,0,prototype1.png,no,mono,no,18,no,black,no,no,768,1241,3.5.6,legacy,xpyriment,osweb,1.3.13,0,space,space,space,,26554,25162,26554,,2,legacy,824,1536,24,864,24,0,0,1536,1651345023116,1024,2,48000,-16,experiment,prototype2.png,0,even,Win32,309,137271,134256,309,309,620599,622106,615600,138789,615600,309,,,,,,visual_patterns,0,0,0,yes,1366
undefined,undefined,undefined,undefined,white,no,Mozilla,Netscape,"5.0 (Windows NT 10.0; Win64; x64) AppleWebKit/537.36 (KHTML, like Gecko) Chrome/100.0.4896.127 Safari/537.36",xpyriment,legacy,legacy,0,uniform,0,0,0,0,24,24,24,0,0,70,70,70,70,70,0,70,0,,,,,,0,,30-03-22,30-03-22,21:56:18,Sat Apr 30 2022 21:56:18 GMT+0300 (kelet-európai nyári idő),The main experiment item,yes,0,0,C:/Users/rrics/Documents/!!ResearchBMECOGSCI/gnet,0,0,0,prototype1.png,no,mono,no,18,no,black,no,no,768,1241,3.5.6,legacy,xpyriment,osweb,1.3.13,0,space,space,space,,26554,25162,26554,,2,legacy,824,1536,24,864,24,0,0,1536,1651345023116,1024,2,48000,-16,experiment,p1sarrshacol1.png,0,even,Win32,309,137271,134256,309,309,627120,628622,622124,138789,622124,309,,,,,,visual_patterns,0,0,0,yes,1366
undefined,undefined,undefined,undefined,white,no,Mozilla,Netscape,"5.0 (Windows NT 10.0; Win64; x64) AppleWebKit/537.36 (KHTML, like Gecko) Chrome/100.0.4896.127 Safari/537.36",xpyriment,legacy,legacy,0,uniform,0,0,0,0,24,24,24,0,0,71,71,71,71,71,0,71,0,,,,,,0,,30-03-22,30-03-22,21:56:18,Sat Apr 30 2022 21:56:18 GMT+0300 (kelet-európai nyári idő),The main experiment item,yes,0,0,C:/Users/rrics/Documents/!!ResearchBMECOGSCI/gnet,0,0,0,prototype1.png,no,mono,no,18,no,black,no,no,768,1241,3.5.6,legacy,xpyriment,osweb,1.3.13,0,space,space,space,,26554,25162,26554,,2,legacy,824,1536,24,864,24,0,0,1536,1651345023116,1024,2,48000,-16,experiment,prototype1.png,0,even,Win32,309,137271,134256,309,309,633654,635171,628654,138789,628654,309,,,,,,visual_patterns,0,0,0,yes,1366
undefined,undefined,undefined,undefined,white,no,Mozilla,Netscape,"5.0 (Windows NT 10.0; Win64; x64) AppleWebKit/537.36 (KHTML, like Gecko) Chrome/100.0.4896.127 Safari/537.36",xpyriment,legacy,legacy,0,uniform,0,0,0,0,24,24,24,0,0,72,72,72,72,72,0,72,0,,,,,,0,,30-03-22,30-03-22,21:56:18,Sat Apr 30 2022 21:56:18 GMT+0300 (kelet-európai nyári idő),The main experiment item,yes,0,0,C:/Users/rrics/Documents/!!ResearchBMECOGSCI/gnet,0,0,0,prototype1.png,no,mono,no,18,no,black,no,no,768,1241,3.5.6,legacy,xpyriment,osweb,1.3.13,0,space,space,space,,26554,25162,26554,,2,legacy,824,1536,24,864,24,0,0,1536,1651345023116,1024,2,48000,-16,experiment,prototype5.png,0,even,Win32,309,137271,134256,309,309,640187,641704,635183,138789,635182,309,,,,,,visual_patterns,0,0,0,yes,1366
undefined,undefined,undefined,undefined,white,no,Mozilla,Netscape,"5.0 (Windows NT 10.0; Win64; x64) AppleWebKit/537.36 (KHTML, like Gecko) Chrome/100.0.4896.127 Safari/537.36",xpyriment,legacy,legacy,0,uniform,0,0,0,0,24,24,24,0,0,73,73,73,73,73,0,73,0,,,,,,0,,30-03-22,30-03-22,21:56:18,Sat Apr 30 2022 21:56:18 GMT+0300 (kelet-európai nyári idő),The main experiment item,yes,0,0,C:/Users/rrics/Documents/!!ResearchBMECOGSCI/gnet,0,0,0,prototype1.png,no,mono,no,18,no,black,no,no,768,1241,3.5.6,legacy,xpyriment,osweb,1.3.13,0,space,space,space,,26554,25162,26554,,2,legacy,824,1536,24,864,24,0,0,1536,1651345023116,1024,2,48000,-16,experiment,prototype3.png,0,even,Win32,309,137271,134256,309,309,646717,648219,641714,138789,641714,309,,,,,,visual_patterns,0,0,0,yes,1366
undefined,undefined,undefined,undefined,white,no,Mozilla,Netscape,"5.0 (Windows NT 10.0; Win64; x64) AppleWebKit/537.36 (KHTML, like Gecko) Chrome/100.0.4896.127 Safari/537.36",xpyriment,legacy,legacy,0,uniform,0,0,0,0,24,24,24,0,0,74,74,74,74,74,0,74,0,,,,,,0,,30-03-22,30-03-22,21:56:18,Sat Apr 30 2022 21:56:18 GMT+0300 (kelet-európai nyári idő),The main experiment item,yes,0,0,C:/Users/rrics/Documents/!!ResearchBMECOGSCI/gnet,0,0,0,prototype1.png,no,mono,no,18,no,black,no,no,768,1241,3.5.6,legacy,xpyriment,osweb,1.3.13,0,space,space,space,,26554,25162,26554,,2,legacy,824,1536,24,864,24,0,0,1536,1651345023116,1024,2,48000,-16,experiment,prototype2.png,0,even,Win32,309,137271,134256,309,309,653234,654735,648230,138789,648230,309,,,,,,visual_patterns,0,0,0,yes,1366
undefined,undefined,undefined,undefined,white,no,Mozilla,Netscape,"5.0 (Windows NT 10.0; Win64; x64) AppleWebKit/537.36 (KHTML, like Gecko) Chrome/100.0.4896.127 Safari/537.36",xpyriment,legacy,legacy,0,uniform,0,0,0,0,24,24,24,0,0,74,74,74,74,74,0,74,0,0,0,0,0,0,0,0,30-03-22,30-03-22,21:56:18,Sat Apr 30 2022 21:56:18 GMT+0300 (kelet-európai nyári idő),The main experiment item,yes,0,0,C:/Users/rrics/Documents/!!ResearchBMECOGSCI/gnet,0,0,0,prototype1.png,no,mono,no,18,no,black,no,no,768,1241,3.5.6,legacy,xpyriment,osweb,1.3.13,0,space,space,space,space,38088,25162,26554,38088,2,legacy,824,1536,24,864,24,0,0,1536,1651345023116,1024,2,48000,-16,experiment,p5sarrsha3.png,0,even,Win32,309,137271,134256,309,309,653234,654735,648230,138789,648230,309,695871,697380,692875,654740,692875,visual_patterns,0,0,0,yes,1366
undefined,undefined,undefined,undefined,white,no,Mozilla,Netscape,"5.0 (Windows NT 10.0; Win64; x64) AppleWebKit/537.36 (KHTML, like Gecko) Chrome/100.0.4896.127 Safari/537.36",xpyriment,legacy,legacy,0,uniform,0,0,0,0,24,24,24,0,0,74,74,74,74,74,0,74,0,1,1,1,1,1,0,1,30-03-22,30-03-22,21:56:18,Sat Apr 30 2022 21:56:18 GMT+0300 (kelet-európai nyári idő),The main experiment item,yes,0,0,C:/Users/rrics/Documents/!!ResearchBMECOGSCI/gnet,0,0,0,prototype1.png,no,mono,no,18,no,black,no,no,768,1241,3.5.6,legacy,xpyriment,osweb,1.3.13,0,space,space,space,space,38088,25162,26554,38088,2,legacy,824,1536,24,864,24,0,0,1536,1651345023116,1024,2,48000,-16,experiment,p2sarrshacol1.png,0,even,Win32,309,137271,134256,309,309,653234,654735,648230,138789,648230,309,700421,701929,697420,654740,697419,visual_patterns,0,0,0,yes,1366
undefined,undefined,undefined,undefined,white,no,Mozilla,Netscape,"5.0 (Windows NT 10.0; Win64; x64) AppleWebKit/537.36 (KHTML, like Gecko) Chrome/100.0.4896.127 Safari/537.36",xpyriment,legacy,legacy,0,uniform,0,0,0,0,24,24,24,0,0,74,74,74,74,74,0,74,0,2,2,2,2,2,0,2,30-03-22,30-03-22,21:56:18,Sat Apr 30 2022 21:56:18 GMT+0300 (kelet-európai nyári idő),The main experiment item,yes,0,0,C:/Users/rrics/Documents/!!ResearchBMECOGSCI/gnet,0,0,0,prototype1.png,no,mono,no,18,no,black,no,no,768,1241,3.5.6,legacy,xpyriment,osweb,1.3.13,0,space,space,space,space,38088,25162,26554,38088,2,legacy,824,1536,24,864,24,0,0,1536,1651345023116,1024,2,48000,-16,experiment,p4sarr4.png,0,even,Win32,309,137271,134256,309,309,653234,654735,648230,138789,648230,309,704946,706462,701949,654740,701949,visual_patterns,0,0,0,yes,1366
undefined,undefined,undefined,undefined,white,no,Mozilla,Netscape,"5.0 (Windows NT 10.0; Win64; x64) AppleWebKit/537.36 (KHTML, like Gecko) Chrome/100.0.4896.127 Safari/537.36",xpyriment,legacy,legacy,0,uniform,0,0,0,0,24,24,24,0,0,74,74,74,74,74,0,74,0,3,3,3,3,3,0,3,30-03-22,30-03-22,21:56:18,Sat Apr 30 2022 21:56:18 GMT+0300 (kelet-európai nyári idő),The main experiment item,yes,0,0,C:/Users/rrics/Documents/!!ResearchBMECOGSCI/gnet,0,0,0,prototype1.png,no,mono,no,18,no,black,no,no,768,1241,3.5.6,legacy,xpyriment,osweb,1.3.13,0,space,space,space,space,38088,25162,26554,38088,2,legacy,824,1536,24,864,24,0,0,1536,1651345023116,1024,2,48000,-16,experiment,p5sarrsha2.png,0,even,Win32,309,137271,134256,309,309,653234,654735,648230,138789,648230,309,709479,710995,706477,654740,706477,visual_patterns,0,0,0,yes,1366
undefined,undefined,undefined,undefined,white,no,Mozilla,Netscape,"5.0 (Windows NT 10.0; Win64; x64) AppleWebKit/537.36 (KHTML, like Gecko) Chrome/100.0.4896.127 Safari/537.36",xpyriment,legacy,legacy,0,uniform,0,0,0,0,24,24,24,0,0,74,74,74,74,74,0,74,0,4,4,4,4,4,0,4,30-03-22,30-03-22,21:56:18,Sat Apr 30 2022 21:56:18 GMT+0300 (kelet-európai nyári idő),The main experiment item,yes,0,0,C:/Users/rrics/Documents/!!ResearchBMECOGSCI/gnet,0,0,0,prototype1.png,no,mono,no,18,no,black,no,no,768,1241,3.5.6,legacy,xpyriment,osweb,1.3.13,0,space,space,space,space,38088,25162,26554,38088,2,legacy,824,1536,24,864,24,0,0,1536,1651345023116,1024,2,48000,-16,experiment,p7sarr2.png,0,even,Win32,309,137271,134256,309,309,653234,654735,648230,138789,648230,309,714012,715527,711009,654740,711009,visual_patterns,0,0,0,yes,1366
undefined,undefined,undefined,undefined,white,no,Mozilla,Netscape,"5.0 (Windows NT 10.0; Win64; x64) AppleWebKit/537.36 (KHTML, like Gecko) Chrome/100.0.4896.127 Safari/537.36",xpyriment,legacy,legacy,0,uniform,0,0,0,0,24,24,24,0,0,74,74,74,74,74,0,74,0,5,5,5,5,5,0,5,30-03-22,30-03-22,21:56:18,Sat Apr 30 2022 21:56:18 GMT+0300 (kelet-európai nyári idő),The main experiment item,yes,0,0,C:/Users/rrics/Documents/!!ResearchBMECOGSCI/gnet,0,0,0,prototype1.png,no,mono,no,18,no,black,no,no,768,1241,3.5.6,legacy,xpyriment,osweb,1.3.13,0,space,space,space,space,38088,25162,26554,38088,2,legacy,824,1536,24,864,24,0,0,1536,1651345023116,1024,2,48000,-16,experiment,p1sarrsha4.png,0,even,Win32,309,137271,134256,309,309,653234,654735,648230,138789,648230,309,718544,720060,715544,654740,715544,visual_patterns,0,0,0,yes,1366
undefined,undefined,undefined,undefined,white,no,Mozilla,Netscape,"5.0 (Windows NT 10.0; Win64; x64) AppleWebKit/537.36 (KHTML, like Gecko) Chrome/100.0.4896.127 Safari/537.36",xpyriment,legacy,legacy,0,uniform,0,0,0,0,24,24,24,0,0,74,74,74,74,74,0,74,0,6,6,6,6,6,0,6,30-03-22,30-03-22,21:56:18,Sat Apr 30 2022 21:56:18 GMT+0300 (kelet-európai nyári idő),The main experiment item,yes,0,0,C:/Users/rrics/Documents/!!ResearchBMECOGSCI/gnet,0,0,0,prototype1.png,no,mono,no,18,no,black,no,no,768,1241,3.5.6,legacy,xpyriment,osweb,1.3.13,0,space,space,space,space,38088,25162,26554,38088,2,legacy,824,1536,24,864,24,0,0,1536,1651345023116,1024,2,48000,-16,experiment,p3sarrcol2.png,0,even,Win32,309,137271,134256,309,309,653234,654735,648230,138789,648230,309,723092,724593,720091,654740,720091,visual_patterns,0,0,0,yes,1366
undefined,undefined,undefined,undefined,white,no,Mozilla,Netscape,"5.0 (Windows NT 10.0; Win64; x64) AppleWebKit/537.36 (KHTML, like Gecko) Chrome/100.0.4896.127 Safari/537.36",xpyriment,legacy,legacy,0,uniform,0,0,0,0,24,24,24,0,0,74,74,74,74,74,0,74,0,7,7,7,7,7,0,7,30-03-22,30-03-22,21:56:18,Sat Apr 30 2022 21:56:18 GMT+0300 (kelet-európai nyári idő),The main experiment item,yes,0,0,C:/Users/rrics/Documents/!!ResearchBMECOGSCI/gnet,0,0,0,prototype1.png,no,mono,no,18,no,black,no,no,768,1241,3.5.6,legacy,xpyriment,osweb,1.3.13,0,space,space,space,space,38088,25162,26554,38088,2,legacy,824,1536,24,864,24,0,0,1536,1651345023116,1024,2,48000,-16,experiment,p3sarrcol3.png,0,even,Win32,309,137271,134256,309,309,653234,654735,648230,138789,648230,309,727606,729109,724610,654740,724610,visual_patterns,0,0,0,yes,1366
undefined,undefined,undefined,undefined,white,no,Mozilla,Netscape,"5.0 (Windows NT 10.0; Win64; x64) AppleWebKit/537.36 (KHTML, like Gecko) Chrome/100.0.4896.127 Safari/537.36",xpyriment,legacy,legacy,0,uniform,0,0,0,0,24,24,24,0,0,74,74,74,74,74,0,74,0,8,8,8,8,8,0,8,30-03-22,30-03-22,21:56:18,Sat Apr 30 2022 21:56:18 GMT+0300 (kelet-európai nyári idő),The main experiment item,yes,0,0,C:/Users/rrics/Documents/!!ResearchBMECOGSCI/gnet,0,0,0,prototype1.png,no,mono,no,18,no,black,no,no,768,1241,3.5.6,legacy,xpyriment,osweb,1.3.13,0,space,space,space,space,38088,25162,26554,38088,2,legacy,824,1536,24,864,24,0,0,1536,1651345023116,1024,2,48000,-16,experiment,p1sarrsha1.png,0,even,Win32,309,137271,134256,309,309,653234,654735,648230,138789,648230,309,732122,733625,729123,654740,729123,visual_patterns,0,0,0,yes,1366
undefined,undefined,undefined,undefined,white,no,Mozilla,Netscape,"5.0 (Windows NT 10.0; Win64; x64) AppleWebKit/537.36 (KHTML, like Gecko) Chrome/100.0.4896.127 Safari/537.36",xpyriment,legacy,legacy,0,uniform,0,0,0,0,24,24,24,0,0,74,74,74,74,74,0,74,0,9,9,9,9,9,0,9,30-03-22,30-03-22,21:56:18,Sat Apr 30 2022 21:56:18 GMT+0300 (kelet-európai nyári idő),The main experiment item,yes,0,0,C:/Users/rrics/Documents/!!ResearchBMECOGSCI/gnet,0,0,0,prototype1.png,no,mono,no,18,no,black,no,no,768,1241,3.5.6,legacy,xpyriment,osweb,1.3.13,0,space,space,space,space,38088,25162,26554,38088,2,legacy,824,1536,24,864,24,0,0,1536,1651345023116,1024,2,48000,-16,experiment,p4sarr1.png,0,even,Win32,309,137271,134256,309,309,653234,654735,648230,138789,648230,309,736639,738141,733639,654740,733639,visual_patterns,0,0,0,yes,1366
undefined,undefined,undefined,undefined,white,no,Mozilla,Netscape,"5.0 (Windows NT 10.0; Win64; x64) AppleWebKit/537.36 (KHTML, like Gecko) Chrome/100.0.4896.127 Safari/537.36",xpyriment,legacy,legacy,0,uniform,0,0,0,0,24,24,24,0,0,74,74,74,74,74,0,74,0,10,10,10,10,10,0,10,30-03-22,30-03-22,21:56:18,Sat Apr 30 2022 21:56:18 GMT+0300 (kelet-európai nyári idő),The main experiment item,yes,0,0,C:/Users/rrics/Documents/!!ResearchBMECOGSCI/gnet,0,0,0,prototype1.png,no,mono,no,18,no,black,no,no,768,1241,3.5.6,legacy,xpyriment,osweb,1.3.13,0,space,space,space,space,38088,25162,26554,38088,2,legacy,824,1536,24,864,24,0,0,1536,1651345023116,1024,2,48000,-16,experiment,p9sarr2.png,0,even,Win32,309,137271,134256,309,309,653234,654735,648230,138789,648230,309,741158,742674,738159,654740,738159,visual_patterns,0,0,0,yes,1366
undefined,undefined,undefined,undefined,white,no,Mozilla,Netscape,"5.0 (Windows NT 10.0; Win64; x64) AppleWebKit/537.36 (KHTML, like Gecko) Chrome/100.0.4896.127 Safari/537.36",xpyriment,legacy,legacy,0,uniform,0,0,0,0,24,24,24,0,0,74,74,74,74,74,0,74,0,11,11,11,11,11,0,11,30-03-22,30-03-22,21:56:18,Sat Apr 30 2022 21:56:18 GMT+0300 (kelet-európai nyári idő),The main experiment item,yes,0,0,C:/Users/rrics/Documents/!!ResearchBMECOGSCI/gnet,0,0,0,prototype1.png,no,mono,no,18,no,black,no,no,768,1241,3.5.6,legacy,xpyriment,osweb,1.3.13,0,space,space,space,space,38088,25162,26554,38088,2,legacy,824,1536,24,864,24,0,0,1536,1651345023116,1024,2,48000,-16,experiment,p1sarr2.png,0,even,Win32,309,137271,134256,309,309,653234,654735,648230,138789,648230,309,745707,747223,742709,654740,742709,visual_patterns,0,0,0,yes,1366
undefined,undefined,undefined,undefined,white,no,Mozilla,Netscape,"5.0 (Windows NT 10.0; Win64; x64) AppleWebKit/537.36 (KHTML, like Gecko) Chrome/100.0.4896.127 Safari/537.36",xpyriment,legacy,legacy,0,uniform,0,0,0,0,24,24,24,0,0,74,74,74,74,74,0,74,0,12,12,12,12,12,0,12,30-03-22,30-03-22,21:56:18,Sat Apr 30 2022 21:56:18 GMT+0300 (kelet-európai nyári idő),The main experiment item,yes,0,0,C:/Users/rrics/Documents/!!ResearchBMECOGSCI/gnet,0,0,0,prototype1.png,no,mono,no,18,no,black,no,no,768,1241,3.5.6,legacy,xpyriment,osweb,1.3.13,0,space,space,space,space,38088,25162,26554,38088,2,legacy,824,1536,24,864,24,0,0,1536,1651345023116,1024,2,48000,-16,experiment,p3sarrcol4.png,0,even,Win32,309,137271,134256,309,309,653234,654735,648230,138789,648230,309,750239,751756,747240,654740,747240,visual_patterns,0,0,0,yes,1366
undefined,undefined,undefined,undefined,white,no,Mozilla,Netscape,"5.0 (Windows NT 10.0; Win64; x64) AppleWebKit/537.36 (KHTML, like Gecko) Chrome/100.0.4896.127 Safari/537.36",xpyriment,legacy,legacy,0,uniform,0,0,0,0,24,24,24,0,0,74,74,74,74,74,0,74,0,13,13,13,13,13,0,13,30-03-22,30-03-22,21:56:18,Sat Apr 30 2022 21:56:18 GMT+0300 (kelet-európai nyári idő),The main experiment item,yes,0,0,C:/Users/rrics/Documents/!!ResearchBMECOGSCI/gnet,0,0,0,prototype1.png,no,mono,no,18,no,black,no,no,768,1241,3.5.6,legacy,xpyriment,osweb,1.3.13,0,space,space,space,space,38088,25162,26554,38088,2,legacy,824,1536,24,864,24,0,0,1536,1651345023116,1024,2,48000,-16,experiment,p2sarrshacol2.png,0,even,Win32,309,137271,134256,309,309,653234,654735,648230,138789,648230,309,754773,756289,751772,654740,751772,visual_patterns,0,0,0,yes,1366
undefined,undefined,undefined,undefined,white,no,Mozilla,Netscape,"5.0 (Windows NT 10.0; Win64; x64) AppleWebKit/537.36 (KHTML, like Gecko) Chrome/100.0.4896.127 Safari/537.36",xpyriment,legacy,legacy,0,uniform,0,0,0,0,24,24,24,0,0,74,74,74,74,74,0,74,0,14,14,14,14,14,0,14,30-03-22,30-03-22,21:56:18,Sat Apr 30 2022 21:56:18 GMT+0300 (kelet-európai nyári idő),The main experiment item,yes,0,0,C:/Users/rrics/Documents/!!ResearchBMECOGSCI/gnet,0,0,0,prototype1.png,no,mono,no,18,no,black,no,no,768,1241,3.5.6,legacy,xpyriment,osweb,1.3.13,0,space,space,space,space,38088,25162,26554,38088,2,legacy,824,1536,24,864,24,0,0,1536,1651345023116,1024,2,48000,-16,experiment,p6sarr1.png,0,even,Win32,309,137271,134256,309,309,653234,654735,648230,138789,648230,309,759306,760821,756307,654740,756307,visual_patterns,0,0,0,yes,1366
undefined,undefined,undefined,undefined,white,no,Mozilla,Netscape,"5.0 (Windows NT 10.0; Win64; x64) AppleWebKit/537.36 (KHTML, like Gecko) Chrome/100.0.4896.127 Safari/537.36",xpyriment,legacy,legacy,0,uniform,0,0,0,0,24,24,24,0,0,74,74,74,74,74,0,74,0,15,15,15,15,15,0,15,30-03-22,30-03-22,21:56:18,Sat Apr 30 2022 21:56:18 GMT+0300 (kelet-európai nyári idő),The main experiment item,yes,0,0,C:/Users/rrics/Documents/!!ResearchBMECOGSCI/gnet,0,0,0,prototype1.png,no,mono,no,18,no,black,no,no,768,1241,3.5.6,legacy,xpyriment,osweb,1.3.13,0,space,space,space,space,38088,25162,26554,38088,2,legacy,824,1536,24,864,24,0,0,1536,1651345023116,1024,2,48000,-16,experiment,p4sarrshacol3.png,0,even,Win32,309,137271,134256,309,309,653234,654735,648230,138789,648230,309,763838,765354,760838,654740,760838,visual_patterns,0,0,0,yes,1366
undefined,undefined,undefined,undefined,white,no,Mozilla,Netscape,"5.0 (Windows NT 10.0; Win64; x64) AppleWebKit/537.36 (KHTML, like Gecko) Chrome/100.0.4896.127 Safari/537.36",xpyriment,legacy,legacy,0,uniform,0,0,0,0,24,24,24,0,0,74,74,74,74,74,0,74,0,16,16,16,16,16,0,16,30-03-22,30-03-22,21:56:18,Sat Apr 30 2022 21:56:18 GMT+0300 (kelet-európai nyári idő),The main experiment item,yes,0,0,C:/Users/rrics/Documents/!!ResearchBMECOGSCI/gnet,0,0,0,prototype1.png,no,mono,no,18,no,black,no,no,768,1241,3.5.6,legacy,xpyriment,osweb,1.3.13,0,space,space,space,space,38088,25162,26554,38088,2,legacy,824,1536,24,864,24,0,0,1536,1651345023116,1024,2,48000,-16,experiment,p4sarrshacol4.png,0,even,Win32,309,137271,134256,309,309,653234,654735,648230,138789,648230,309,768392,769903,765391,654740,765391,visual_patterns,0,0,0,yes,1366
undefined,undefined,undefined,undefined,white,no,Mozilla,Netscape,"5.0 (Windows NT 10.0; Win64; x64) AppleWebKit/537.36 (KHTML, like Gecko) Chrome/100.0.4896.127 Safari/537.36",xpyriment,legacy,legacy,0,uniform,0,0,0,0,24,24,24,0,0,74,74,74,74,74,0,74,0,17,17,17,17,17,0,17,30-03-22,30-03-22,21:56:18,Sat Apr 30 2022 21:56:18 GMT+0300 (kelet-európai nyári idő),The main experiment item,yes,0,0,C:/Users/rrics/Documents/!!ResearchBMECOGSCI/gnet,0,0,0,prototype1.png,no,mono,no,18,no,black,no,no,768,1241,3.5.6,legacy,xpyriment,osweb,1.3.13,0,space,space,space,space,38088,25162,26554,38088,2,legacy,824,1536,24,864,24,0,0,1536,1651345023116,1024,2,48000,-16,experiment,p2sarrcol1.png,0,even,Win32,309,137271,134256,309,309,653234,654735,648230,138789,648230,309,772918,774420,769918,654740,769918,visual_patterns,0,0,0,yes,1366
undefined,undefined,undefined,undefined,white,no,Mozilla,Netscape,"5.0 (Windows NT 10.0; Win64; x64) AppleWebKit/537.36 (KHTML, like Gecko) Chrome/100.0.4896.127 Safari/537.36",xpyriment,legacy,legacy,0,uniform,0,0,0,0,24,24,24,0,0,74,74,74,74,74,0,74,0,18,18,18,18,18,0,18,30-03-22,30-03-22,21:56:18,Sat Apr 30 2022 21:56:18 GMT+0300 (kelet-európai nyári idő),The main experiment item,yes,0,0,C:/Users/rrics/Documents/!!ResearchBMECOGSCI/gnet,0,0,0,prototype1.png,no,mono,no,18,no,black,no,no,768,1241,3.5.6,legacy,xpyriment,osweb,1.3.13,0,space,space,space,space,38088,25162,26554,38088,2,legacy,824,1536,24,864,24,0,0,1536,1651345023116,1024,2,48000,-16,experiment,p1sarr4.png,0,even,Win32,309,137271,134256,309,309,653234,654735,648230,138789,648230,309,777433,778936,774437,654740,774436,visual_patterns,0,0,0,yes,1366
undefined,undefined,undefined,undefined,white,no,Mozilla,Netscape,"5.0 (Windows NT 10.0; Win64; x64) AppleWebKit/537.36 (KHTML, like Gecko) Chrome/100.0.4896.127 Safari/537.36",xpyriment,legacy,legacy,0,uniform,0,0,0,0,24,24,24,0,0,74,74,74,74,74,0,74,0,19,19,19,19,19,0,19,30-03-22,30-03-22,21:56:18,Sat Apr 30 2022 21:56:18 GMT+0300 (kelet-európai nyári idő),The main experiment item,yes,0,0,C:/Users/rrics/Documents/!!ResearchBMECOGSCI/gnet,0,0,0,prototype1.png,no,mono,no,18,no,black,no,no,768,1241,3.5.6,legacy,xpyriment,osweb,1.3.13,0,space,space,space,space,38088,25162,26554,38088,2,legacy,824,1536,24,864,24,0,0,1536,1651345023116,1024,2,48000,-16,experiment,p10sarr1.png,0,even,Win32,309,137271,134256,309,309,653234,654735,648230,138789,648230,309,781953,783469,778949,654740,778949,visual_patterns,0,0,0,yes,1366
undefined,undefined,undefined,undefined,white,no,Mozilla,Netscape,"5.0 (Windows NT 10.0; Win64; x64) AppleWebKit/537.36 (KHTML, like Gecko) Chrome/100.0.4896.127 Safari/537.36",xpyriment,legacy,legacy,0,uniform,0,0,0,0,24,24,24,0,0,74,74,74,74,74,0,74,0,20,20,20,20,20,0,20,30-03-22,30-03-22,21:56:18,Sat Apr 30 2022 21:56:18 GMT+0300 (kelet-európai nyári idő),The main experiment item,yes,0,0,C:/Users/rrics/Documents/!!ResearchBMECOGSCI/gnet,0,0,0,prototype1.png,no,mono,no,18,no,black,no,no,768,1241,3.5.6,legacy,xpyriment,osweb,1.3.13,0,space,space,space,space,38088,25162,26554,38088,2,legacy,824,1536,24,864,24,0,0,1536,1651345023116,1024,2,48000,-16,experiment,p8sarr3.png,0,even,Win32,309,137271,134256,309,309,653234,654735,648230,138789,648230,309,786485,788001,783487,654740,783487,visual_patterns,0,0,0,yes,1366
undefined,undefined,undefined,undefined,white,no,Mozilla,Netscape,"5.0 (Windows NT 10.0; Win64; x64) AppleWebKit/537.36 (KHTML, like Gecko) Chrome/100.0.4896.127 Safari/537.36",xpyriment,legacy,legacy,0,uniform,0,0,0,0,24,24,24,0,0,74,74,74,74,74,0,74,0,21,21,21,21,21,0,21,30-03-22,30-03-22,21:56:18,Sat Apr 30 2022 21:56:18 GMT+0300 (kelet-európai nyári idő),The main experiment item,yes,0,0,C:/Users/rrics/Documents/!!ResearchBMECOGSCI/gnet,0,0,0,prototype1.png,no,mono,no,18,no,black,no,no,768,1241,3.5.6,legacy,xpyriment,osweb,1.3.13,0,space,space,space,space,38088,25162,26554,38088,2,legacy,824,1536,24,864,24,0,0,1536,1651345023116,1024,2,48000,-16,experiment,p9sarr4.png,0,even,Win32,309,137271,134256,309,309,653234,654735,648230,138789,648230,309,791035,792551,788039,654740,788039,visual_patterns,0,0,0,yes,1366
undefined,undefined,undefined,undefined,white,no,Mozilla,Netscape,"5.0 (Windows NT 10.0; Win64; x64) AppleWebKit/537.36 (KHTML, like Gecko) Chrome/100.0.4896.127 Safari/537.36",xpyriment,legacy,legacy,0,uniform,0,0,0,0,24,24,24,0,0,74,74,74,74,74,0,74,0,22,22,22,22,22,0,22,30-03-22,30-03-22,21:56:18,Sat Apr 30 2022 21:56:18 GMT+0300 (kelet-európai nyári idő),The main experiment item,yes,0,0,C:/Users/rrics/Documents/!!ResearchBMECOGSCI/gnet,0,0,0,prototype1.png,no,mono,no,18,no,black,no,no,768,1241,3.5.6,legacy,xpyriment,osweb,1.3.13,0,space,space,space,space,38088,25162,26554,38088,2,legacy,824,1536,24,864,24,0,0,1536,1651345023116,1024,2,48000,-16,experiment,p5sarrcol2.png,0,even,Win32,309,137271,134256,309,309,653234,654735,648230,138789,648230,309,795567,797083,792566,654740,792566,visual_patterns,0,0,0,yes,1366
undefined,undefined,undefined,undefined,white,no,Mozilla,Netscape,"5.0 (Windows NT 10.0; Win64; x64) AppleWebKit/537.36 (KHTML, like Gecko) Chrome/100.0.4896.127 Safari/537.36",xpyriment,legacy,legacy,0,uniform,0,0,0,0,24,24,24,0,0,74,74,74,74,74,0,74,0,23,23,23,23,23,0,23,30-03-22,30-03-22,21:56:18,Sat Apr 30 2022 21:56:18 GMT+0300 (kelet-európai nyári idő),The main experiment item,yes,0,0,C:/Users/rrics/Documents/!!ResearchBMECOGSCI/gnet,0,0,0,prototype1.png,no,mono,no,18,no,black,no,no,768,1241,3.5.6,legacy,xpyriment,osweb,1.3.13,0,space,space,space,space,38088,25162,26554,38088,2,legacy,824,1536,24,864,24,0,0,1536,1651345023116,1024,2,48000,-16,experiment,p7sarr4.png,0,even,Win32,309,137271,134256,309,309,653234,654735,648230,138789,648230,309,800097,801599,797101,654740,797100,visual_patterns,0,0,0,yes,1366
undefined,undefined,undefined,undefined,white,no,Mozilla,Netscape,"5.0 (Windows NT 10.0; Win64; x64) AppleWebKit/537.36 (KHTML, like Gecko) Chrome/100.0.4896.127 Safari/537.36",xpyriment,legacy,legacy,0,uniform,0,0,0,0,24,24,24,0,0,74,74,74,74,74,0,74,0,24,24,24,24,24,0,24,30-03-22,30-03-22,21:56:18,Sat Apr 30 2022 21:56:18 GMT+0300 (kelet-európai nyári idő),The main experiment item,yes,0,0,C:/Users/rrics/Documents/!!ResearchBMECOGSCI/gnet,0,0,0,prototype1.png,no,mono,no,18,no,black,no,no,768,1241,3.5.6,legacy,xpyriment,osweb,1.3.13,0,space,space,space,space,38088,25162,26554,38088,2,legacy,824,1536,24,864,24,0,0,1536,1651345023116,1024,2,48000,-16,experiment,p3sarrsha3.png,0,even,Win32,309,137271,134256,309,309,653234,654735,648230,138789,648230,309,804612,806115,801617,654740,801617,visual_patterns,0,0,0,yes,1366
undefined,undefined,undefined,undefined,white,no,Mozilla,Netscape,"5.0 (Windows NT 10.0; Win64; x64) AppleWebKit/537.36 (KHTML, like Gecko) Chrome/100.0.4896.127 Safari/537.36",xpyriment,legacy,legacy,0,uniform,0,0,0,0,24,24,24,0,0,74,74,74,74,74,0,74,0,25,25,25,25,25,0,25,30-03-22,30-03-22,21:56:18,Sat Apr 30 2022 21:56:18 GMT+0300 (kelet-európai nyári idő),The main experiment item,yes,0,0,C:/Users/rrics/Documents/!!ResearchBMECOGSCI/gnet,0,0,0,prototype1.png,no,mono,no,18,no,black,no,no,768,1241,3.5.6,legacy,xpyriment,osweb,1.3.13,0,space,space,space,space,38088,25162,26554,38088,2,legacy,824,1536,24,864,24,0,0,1536,1651345023116,1024,2,48000,-16,experiment,p8sarr4.png,0,even,Win32,309,137271,134256,309,309,653234,654735,648230,138789,648230,309,809132,810648,806132,654740,806132,visual_patterns,0,0,0,yes,1366
undefined,undefined,undefined,undefined,white,no,Mozilla,Netscape,"5.0 (Windows NT 10.0; Win64; x64) AppleWebKit/537.36 (KHTML, like Gecko) Chrome/100.0.4896.127 Safari/537.36",xpyriment,legacy,legacy,0,uniform,0,0,0,0,24,24,24,0,0,74,74,74,74,74,0,74,0,26,26,26,26,26,0,26,30-03-22,30-03-22,21:56:18,Sat Apr 30 2022 21:56:18 GMT+0300 (kelet-európai nyári idő),The main experiment item,yes,0,0,C:/Users/rrics/Documents/!!ResearchBMECOGSCI/gnet,0,0,0,prototype1.png,no,mono,no,18,no,black,no,no,768,1241,3.5.6,legacy,xpyriment,osweb,1.3.13,0,space,space,space,space,38088,25162,26554,38088,2,legacy,824,1536,24,864,24,0,0,1536,1651345023116,1024,2,48000,-16,experiment,p2sarrshacol4.png,0,even,Win32,309,137271,134256,309,309,653234,654735,648230,138789,648230,309,813691,815198,810691,654740,810691,visual_patterns,0,0,0,yes,1366
undefined,undefined,undefined,undefined,white,no,Mozilla,Netscape,"5.0 (Windows NT 10.0; Win64; x64) AppleWebKit/537.36 (KHTML, like Gecko) Chrome/100.0.4896.127 Safari/537.36",xpyriment,legacy,legacy,0,uniform,0,0,0,0,24,24,24,0,0,74,74,74,74,74,0,74,0,27,27,27,27,27,0,27,30-03-22,30-03-22,21:56:18,Sat Apr 30 2022 21:56:18 GMT+0300 (kelet-európai nyári idő),The main experiment item,yes,0,0,C:/Users/rrics/Documents/!!ResearchBMECOGSCI/gnet,0,0,0,prototype1.png,no,mono,no,18,no,black,no,no,768,1241,3.5.6,legacy,xpyriment,osweb,1.3.13,0,space,space,space,space,38088,25162,26554,38088,2,legacy,824,1536,24,864,24,0,0,1536,1651345023116,1024,2,48000,-16,experiment,p4sarrshacol1.png,0,even,Win32,309,137271,134256,309,309,653234,654735,648230,138789,648230,309,818214,819730,815211,654740,815211,visual_patterns,0,0,0,yes,1366
undefined,undefined,undefined,undefined,white,no,Mozilla,Netscape,"5.0 (Windows NT 10.0; Win64; x64) AppleWebKit/537.36 (KHTML, like Gecko) Chrome/100.0.4896.127 Safari/537.36",xpyriment,legacy,legacy,0,uniform,0,0,0,0,24,24,24,0,0,74,74,74,74,74,0,74,0,28,28,28,28,28,0,28,30-03-22,30-03-22,21:56:18,Sat Apr 30 2022 21:56:18 GMT+0300 (kelet-európai nyári idő),The main experiment item,yes,0,0,C:/Users/rrics/Documents/!!ResearchBMECOGSCI/gnet,0,0,0,prototype1.png,no,mono,no,18,no,black,no,no,768,1241,3.5.6,legacy,xpyriment,osweb,1.3.13,0,space,space,space,space,38088,25162,26554,38088,2,legacy,824,1536,24,864,24,0,0,1536,1651345023116,1024,2,48000,-16,experiment,p1sarrshacol3.png,0,even,Win32,309,137271,134256,309,309,653234,654735,648230,138789,648230,309,822743,824246,819750,654740,819750,visual_patterns,0,0,0,yes,1366
undefined,undefined,undefined,undefined,white,no,Mozilla,Netscape,"5.0 (Windows NT 10.0; Win64; x64) AppleWebKit/537.36 (KHTML, like Gecko) Chrome/100.0.4896.127 Safari/537.36",xpyriment,legacy,legacy,0,uniform,0,0,0,0,24,24,24,0,0,74,74,74,74,74,0,74,0,29,29,29,29,29,0,29,30-03-22,30-03-22,21:56:18,Sat Apr 30 2022 21:56:18 GMT+0300 (kelet-európai nyári idő),The main experiment item,yes,0,0,C:/Users/rrics/Documents/!!ResearchBMECOGSCI/gnet,0,0,0,prototype1.png,no,mono,no,18,no,black,no,no,768,1241,3.5.6,legacy,xpyriment,osweb,1.3.13,0,space,space,space,space,38088,25162,26554,38088,2,legacy,824,1536,24,864,24,0,0,1536,1651345023116,1024,2,48000,-16,experiment,p2sarrsha1.png,0,even,Win32,309,137271,134256,309,309,653234,654735,648230,138789,648230,309,827262,828779,824261,654740,824261,visual_patterns,0,0,0,yes,1366
undefined,undefined,undefined,undefined,white,no,Mozilla,Netscape,"5.0 (Windows NT 10.0; Win64; x64) AppleWebKit/537.36 (KHTML, like Gecko) Chrome/100.0.4896.127 Safari/537.36",xpyriment,legacy,legacy,0,uniform,0,0,0,0,24,24,24,0,0,74,74,74,74,74,0,74,0,30,30,30,30,30,0,30,30-03-22,30-03-22,21:56:18,Sat Apr 30 2022 21:56:18 GMT+0300 (kelet-európai nyári idő),The main experiment item,yes,0,0,C:/Users/rrics/Documents/!!ResearchBMECOGSCI/gnet,0,0,0,prototype1.png,no,mono,no,18,no,black,no,no,768,1241,3.5.6,legacy,xpyriment,osweb,1.3.13,0,space,space,space,space,38088,25162,26554,38088,2,legacy,824,1536,24,864,24,0,0,1536,1651345023116,1024,2,48000,-16,experiment,p3sarr2.png,0,even,Win32,309,137271,134256,309,309,653234,654735,648230,138789,648230,309,831790,833295,828790,654740,828790,visual_patterns,0,0,0,yes,1366
undefined,undefined,undefined,undefined,white,no,Mozilla,Netscape,"5.0 (Windows NT 10.0; Win64; x64) AppleWebKit/537.36 (KHTML, like Gecko) Chrome/100.0.4896.127 Safari/537.36",xpyriment,legacy,legacy,0,uniform,0,0,0,0,24,24,24,0,0,74,74,74,74,74,0,74,0,31,31,31,31,31,0,31,30-03-22,30-03-22,21:56:18,Sat Apr 30 2022 21:56:18 GMT+0300 (kelet-európai nyári idő),The main experiment item,yes,0,0,C:/Users/rrics/Documents/!!ResearchBMECOGSCI/gnet,0,0,0,prototype1.png,no,mono,no,18,no,black,no,no,768,1241,3.5.6,legacy,xpyriment,osweb,1.3.13,0,space,space,space,space,38088,25162,26554,38088,2,legacy,824,1536,24,864,24,0,0,1536,1651345023116,1024,2,48000,-16,experiment,p3sarrshacol3.png,0,even,Win32,309,137271,134256,309,309,653234,654735,648230,138789,648230,309,836312,837828,833315,654740,833315,visual_patterns,0,0,0,yes,1366
undefined,undefined,undefined,undefined,white,no,Mozilla,Netscape,"5.0 (Windows NT 10.0; Win64; x64) AppleWebKit/537.36 (KHTML, like Gecko) Chrome/100.0.4896.127 Safari/537.36",xpyriment,legacy,legacy,0,uniform,0,0,0,0,24,24,24,0,0,74,74,74,74,74,0,74,0,32,32,32,32,32,0,32,30-03-22,30-03-22,21:56:18,Sat Apr 30 2022 21:56:18 GMT+0300 (kelet-európai nyári idő),The main experiment item,yes,0,0,C:/Users/rrics/Documents/!!ResearchBMECOGSCI/gnet,0,0,0,prototype1.png,no,mono,no,18,no,black,no,no,768,1241,3.5.6,legacy,xpyriment,osweb,1.3.13,0,space,space,space,space,38088,25162,26554,38088,2,legacy,824,1536,24,864,24,0,0,1536,1651345023116,1024,2,48000,-16,experiment,p2sarrcol4.png,0,even,Win32,309,137271,134256,309,309,653234,654735,648230,138789,648230,309,840841,842344,837845,654740,837845,visual_patterns,0,0,0,yes,1366
undefined,undefined,undefined,undefined,white,no,Mozilla,Netscape,"5.0 (Windows NT 10.0; Win64; x64) AppleWebKit/537.36 (KHTML, like Gecko) Chrome/100.0.4896.127 Safari/537.36",xpyriment,legacy,legacy,0,uniform,0,0,0,0,24,24,24,0,0,74,74,74,74,74,0,74,0,33,33,33,33,33,0,33,30-03-22,30-03-22,21:56:18,Sat Apr 30 2022 21:56:18 GMT+0300 (kelet-európai nyári idő),The main experiment item,yes,0,0,C:/Users/rrics/Documents/!!ResearchBMECOGSCI/gnet,0,0,0,prototype1.png,no,mono,no,18,no,black,no,no,768,1241,3.5.6,legacy,xpyriment,osweb,1.3.13,0,space,space,space,space,38088,25162,26554,38088,2,legacy,824,1536,24,864,24,0,0,1536,1651345023116,1024,2,48000,-16,experiment,p5sarrcol1.png,0,even,Win32,309,137271,134256,309,309,653234,654735,648230,138789,648230,309,845361,846877,842362,654740,842362,visual_patterns,0,0,0,yes,1366
undefined,undefined,undefined,undefined,white,no,Mozilla,Netscape,"5.0 (Windows NT 10.0; Win64; x64) AppleWebKit/537.36 (KHTML, like Gecko) Chrome/100.0.4896.127 Safari/537.36",xpyriment,legacy,legacy,0,uniform,0,0,0,0,24,24,24,0,0,74,74,74,74,74,0,74,0,34,34,34,34,34,0,34,30-03-22,30-03-22,21:56:18,Sat Apr 30 2022 21:56:18 GMT+0300 (kelet-európai nyári idő),The main experiment item,yes,0,0,C:/Users/rrics/Documents/!!ResearchBMECOGSCI/gnet,0,0,0,prototype1.png,no,mono,no,18,no,black,no,no,768,1241,3.5.6,legacy,xpyriment,osweb,1.3.13,0,space,space,space,space,38088,25162,26554,38088,2,legacy,824,1536,24,864,24,0,0,1536,1651345023116,1024,2,48000,-16,experiment,p8sarr2.png,0,even,Win32,309,137271,134256,309,309,653234,654735,648230,138789,648230,309,849891,851393,846893,654740,846893,visual_patterns,0,0,0,yes,1366
undefined,undefined,undefined,undefined,white,no,Mozilla,Netscape,"5.0 (Windows NT 10.0; Win64; x64) AppleWebKit/537.36 (KHTML, like Gecko) Chrome/100.0.4896.127 Safari/537.36",xpyriment,legacy,legacy,0,uniform,0,0,0,0,24,24,24,0,0,74,74,74,74,74,0,74,0,35,35,35,35,35,0,35,30-03-22,30-03-22,21:56:18,Sat Apr 30 2022 21:56:18 GMT+0300 (kelet-európai nyári idő),The main experiment item,yes,0,0,C:/Users/rrics/Documents/!!ResearchBMECOGSCI/gnet,0,0,0,prototype1.png,no,mono,no,18,no,black,no,no,768,1241,3.5.6,legacy,xpyriment,osweb,1.3.13,0,space,space,space,space,38088,25162,26554,38088,2,legacy,824,1536,24,864,24,0,0,1536,1651345023116,1024,2,48000,-16,experiment,p5sarr3.png,0,even,Win32,309,137271,134256,309,309,653234,654735,648230,138789,648230,309,854408,855909,851411,654740,851411,visual_patterns,0,0,0,yes,1366
undefined,undefined,undefined,undefined,white,no,Mozilla,Netscape,"5.0 (Windows NT 10.0; Win64; x64) AppleWebKit/537.36 (KHTML, like Gecko) Chrome/100.0.4896.127 Safari/537.36",xpyriment,legacy,legacy,0,uniform,0,0,0,0,24,24,24,0,0,74,74,74,74,74,0,74,0,36,36,36,36,36,0,36,30-03-22,30-03-22,21:56:18,Sat Apr 30 2022 21:56:18 GMT+0300 (kelet-európai nyári idő),The main experiment item,yes,0,0,C:/Users/rrics/Documents/!!ResearchBMECOGSCI/gnet,0,0,0,prototype1.png,no,mono,no,18,no,black,no,no,768,1241,3.5.6,legacy,xpyriment,osweb,1.3.13,0,space,space,space,space,38088,25162,26554,38088,2,legacy,824,1536,24,864,24,0,0,1536,1651345023116,1024,2,48000,-16,experiment,p7sarr1.png,0,even,Win32,309,137271,134256,309,309,653234,654735,648230,138789,648230,309,858947,860458,855944,654740,855944,visual_patterns,0,0,0,yes,1366
undefined,undefined,undefined,undefined,white,no,Mozilla,Netscape,"5.0 (Windows NT 10.0; Win64; x64) AppleWebKit/537.36 (KHTML, like Gecko) Chrome/100.0.4896.127 Safari/537.36",xpyriment,legacy,legacy,0,uniform,0,0,0,0,24,24,24,0,0,74,74,74,74,74,0,74,0,37,37,37,37,37,0,37,30-03-22,30-03-22,21:56:18,Sat Apr 30 2022 21:56:18 GMT+0300 (kelet-európai nyári idő),The main experiment item,yes,0,0,C:/Users/rrics/Documents/!!ResearchBMECOGSCI/gnet,0,0,0,prototype1.png,no,mono,no,18,no,black,no,no,768,1241,3.5.6,legacy,xpyriment,osweb,1.3.13,0,space,space,space,space,38088,25162,26554,38088,2,legacy,824,1536,24,864,24,0,0,1536,1651345023116,1024,2,48000,-16,experiment,p1sarrcol4.png,0,even,Win32,309,137271,134256,309,309,653234,654735,648230,138789,648230,309,863475,864999,860475,654740,860475,visual_patterns,0,0,0,yes,1366
undefined,undefined,undefined,undefined,white,no,Mozilla,Netscape,"5.0 (Windows NT 10.0; Win64; x64) AppleWebKit/537.36 (KHTML, like Gecko) Chrome/100.0.4896.127 Safari/537.36",xpyriment,legacy,legacy,0,uniform,0,0,0,0,24,24,24,0,0,74,74,74,74,74,0,74,0,38,38,38,38,38,0,38,30-03-22,30-03-22,21:56:18,Sat Apr 30 2022 21:56:18 GMT+0300 (kelet-európai nyári idő),The main experiment item,yes,0,0,C:/Users/rrics/Documents/!!ResearchBMECOGSCI/gnet,0,0,0,prototype1.png,no,mono,no,18,no,black,no,no,768,1241,3.5.6,legacy,xpyriment,osweb,1.3.13,0,space,space,space,space,38088,25162,26554,38088,2,legacy,824,1536,24,864,24,0,0,1536,1651345023116,1024,2,48000,-16,experiment,p3sarrsha4.png,0,even,Win32,309,137271,134256,309,309,653234,654735,648230,138789,648230,309,868012,869524,865015,654740,865015,visual_patterns,0,0,0,yes,1366
undefined,undefined,undefined,undefined,white,no,Mozilla,Netscape,"5.0 (Windows NT 10.0; Win64; x64) AppleWebKit/537.36 (KHTML, like Gecko) Chrome/100.0.4896.127 Safari/537.36",xpyriment,legacy,legacy,0,uniform,0,0,0,0,24,24,24,0,0,74,74,74,74,74,0,74,0,39,39,39,39,39,0,39,30-03-22,30-03-22,21:56:18,Sat Apr 30 2022 21:56:18 GMT+0300 (kelet-európai nyári idő),The main experiment item,yes,0,0,C:/Users/rrics/Documents/!!ResearchBMECOGSCI/gnet,0,0,0,prototype1.png,no,mono,no,18,no,black,no,no,768,1241,3.5.6,legacy,xpyriment,osweb,1.3.13,0,space,space,space,space,38088,25162,26554,38088,2,legacy,824,1536,24,864,24,0,0,1536,1651345023116,1024,2,48000,-16,experiment,p3sarr1.png,0,even,Win32,309,137271,134256,309,309,653234,654735,648230,138789,648230,309,872541,874056,869541,654740,869541,visual_patterns,0,0,0,yes,1366
undefined,undefined,undefined,undefined,white,no,Mozilla,Netscape,"5.0 (Windows NT 10.0; Win64; x64) AppleWebKit/537.36 (KHTML, like Gecko) Chrome/100.0.4896.127 Safari/537.36",xpyriment,legacy,legacy,0,uniform,0,0,0,0,24,24,24,0,0,74,74,74,74,74,0,74,0,40,40,40,40,40,0,40,30-03-22,30-03-22,21:56:18,Sat Apr 30 2022 21:56:18 GMT+0300 (kelet-európai nyári idő),The main experiment item,yes,0,0,C:/Users/rrics/Documents/!!ResearchBMECOGSCI/gnet,0,0,0,prototype1.png,no,mono,no,18,no,black,no,no,768,1241,3.5.6,legacy,xpyriment,osweb,1.3.13,0,space,space,space,space,38088,25162,26554,38088,2,legacy,824,1536,24,864,24,0,0,1536,1651345023116,1024,2,48000,-16,experiment,p2sarrsha3.png,0,even,Win32,309,137271,134256,309,309,653234,654735,648230,138789,648230,309,877072,878573,874073,654740,874073,visual_patterns,0,0,0,yes,1366
undefined,undefined,undefined,undefined,white,no,Mozilla,Netscape,"5.0 (Windows NT 10.0; Win64; x64) AppleWebKit/537.36 (KHTML, like Gecko) Chrome/100.0.4896.127 Safari/537.36",xpyriment,legacy,legacy,0,uniform,0,0,0,0,24,24,24,0,0,74,74,74,74,74,0,74,0,41,41,41,41,41,0,41,30-03-22,30-03-22,21:56:18,Sat Apr 30 2022 21:56:18 GMT+0300 (kelet-európai nyári idő),The main experiment item,yes,0,0,C:/Users/rrics/Documents/!!ResearchBMECOGSCI/gnet,0,0,0,prototype1.png,no,mono,no,18,no,black,no,no,768,1241,3.5.6,legacy,xpyriment,osweb,1.3.13,0,space,space,space,space,38088,25162,26554,38088,2,legacy,824,1536,24,864,24,0,0,1536,1651345023116,1024,2,48000,-16,experiment,p9sarr3.png,0,even,Win32,309,137271,134256,309,309,653234,654735,648230,138789,648230,309,881614,883122,878616,654740,878616,visual_patterns,0,0,0,yes,1366
undefined,undefined,undefined,undefined,white,no,Mozilla,Netscape,"5.0 (Windows NT 10.0; Win64; x64) AppleWebKit/537.36 (KHTML, like Gecko) Chrome/100.0.4896.127 Safari/537.36",xpyriment,legacy,legacy,0,uniform,0,0,0,0,24,24,24,0,0,74,74,74,74,74,0,74,0,42,42,42,42,42,0,42,30-03-22,30-03-22,21:56:18,Sat Apr 30 2022 21:56:18 GMT+0300 (kelet-európai nyári idő),The main experiment item,yes,0,0,C:/Users/rrics/Documents/!!ResearchBMECOGSCI/gnet,0,0,0,prototype1.png,no,mono,no,18,no,black,no,no,768,1241,3.5.6,legacy,xpyriment,osweb,1.3.13,0,space,space,space,space,38088,25162,26554,38088,2,legacy,824,1536,24,864,24,0,0,1536,1651345023116,1024,2,48000,-16,experiment,p10sarr4.png,0,even,Win32,309,137271,134256,309,309,653234,654735,648230,138789,648230,309,886139,887655,883140,654740,883140,visual_patterns,0,0,0,yes,1366
undefined,undefined,undefined,undefined,white,no,Mozilla,Netscape,"5.0 (Windows NT 10.0; Win64; x64) AppleWebKit/537.36 (KHTML, like Gecko) Chrome/100.0.4896.127 Safari/537.36",xpyriment,legacy,legacy,0,uniform,0,0,0,0,24,24,24,0,0,74,74,74,74,74,0,74,0,43,43,43,43,43,0,43,30-03-22,30-03-22,21:56:18,Sat Apr 30 2022 21:56:18 GMT+0300 (kelet-európai nyári idő),The main experiment item,yes,0,0,C:/Users/rrics/Documents/!!ResearchBMECOGSCI/gnet,0,0,0,prototype1.png,no,mono,no,18,no,black,no,no,768,1241,3.5.6,legacy,xpyriment,osweb,1.3.13,0,space,space,space,space,38088,25162,26554,38088,2,legacy,824,1536,24,864,24,0,0,1536,1651345023116,1024,2,48000,-16,experiment,p4sarrcol1.png,0,even,Win32,309,137271,134256,309,309,653234,654735,648230,138789,648230,309,890672,892188,887673,654740,887673,visual_patterns,0,0,0,yes,1366
undefined,undefined,undefined,undefined,white,no,Mozilla,Netscape,"5.0 (Windows NT 10.0; Win64; x64) AppleWebKit/537.36 (KHTML, like Gecko) Chrome/100.0.4896.127 Safari/537.36",xpyriment,legacy,legacy,0,uniform,0,0,0,0,24,24,24,0,0,74,74,74,74,74,0,74,0,44,44,44,44,44,0,44,30-03-22,30-03-22,21:56:18,Sat Apr 30 2022 21:56:18 GMT+0300 (kelet-európai nyári idő),The main experiment item,yes,0,0,C:/Users/rrics/Documents/!!ResearchBMECOGSCI/gnet,0,0,0,prototype1.png,no,mono,no,18,no,black,no,no,768,1241,3.5.6,legacy,xpyriment,osweb,1.3.13,0,space,space,space,space,38088,25162,26554,38088,2,legacy,824,1536,24,864,24,0,0,1536,1651345023116,1024,2,48000,-16,experiment,p5sarrshacol4.png,0,even,Win32,309,137271,134256,309,309,653234,654735,648230,138789,648230,309,895204,896720,892207,654740,892207,visual_patterns,0,0,0,yes,1366
undefined,undefined,undefined,undefined,white,no,Mozilla,Netscape,"5.0 (Windows NT 10.0; Win64; x64) AppleWebKit/537.36 (KHTML, like Gecko) Chrome/100.0.4896.127 Safari/537.36",xpyriment,legacy,legacy,0,uniform,0,0,0,0,24,24,24,0,0,74,74,74,74,74,0,74,0,45,45,45,45,45,0,45,30-03-22,30-03-22,21:56:18,Sat Apr 30 2022 21:56:18 GMT+0300 (kelet-európai nyári idő),The main experiment item,yes,0,0,C:/Users/rrics/Documents/!!ResearchBMECOGSCI/gnet,0,0,0,prototype1.png,no,mono,no,18,no,black,no,no,768,1241,3.5.6,legacy,xpyriment,osweb,1.3.13,0,space,space,space,space,38088,25162,26554,38088,2,legacy,824,1536,24,864,24,0,0,1536,1651345023116,1024,2,48000,-16,experiment,p3sarr3.png,0,even,Win32,309,137271,134256,309,309,653234,654735,648230,138789,648230,309,899737,901253,896737,654740,896737,visual_patterns,0,0,0,yes,1366
undefined,undefined,undefined,undefined,white,no,Mozilla,Netscape,"5.0 (Windows NT 10.0; Win64; x64) AppleWebKit/537.36 (KHTML, like Gecko) Chrome/100.0.4896.127 Safari/537.36",xpyriment,legacy,legacy,0,uniform,0,0,0,0,24,24,24,0,0,74,74,74,74,74,0,74,0,46,46,46,46,46,0,46,30-03-22,30-03-22,21:56:18,Sat Apr 30 2022 21:56:18 GMT+0300 (kelet-európai nyári idő),The main experiment item,yes,0,0,C:/Users/rrics/Documents/!!ResearchBMECOGSCI/gnet,0,0,0,prototype1.png,no,mono,no,18,no,black,no,no,768,1241,3.5.6,legacy,xpyriment,osweb,1.3.13,0,space,space,space,space,38088,25162,26554,38088,2,legacy,824,1536,24,864,24,0,0,1536,1651345023116,1024,2,48000,-16,experiment,p2sarr3.png,0,even,Win32,309,137271,134256,309,309,653234,654735,648230,138789,648230,309,904296,905802,901294,654740,901294,visual_patterns,0,0,0,yes,1366
undefined,undefined,undefined,undefined,white,no,Mozilla,Netscape,"5.0 (Windows NT 10.0; Win64; x64) AppleWebKit/537.36 (KHTML, like Gecko) Chrome/100.0.4896.127 Safari/537.36",xpyriment,legacy,legacy,0,uniform,0,0,0,0,24,24,24,0,0,74,74,74,74,74,0,74,0,47,47,47,47,47,0,47,30-03-22,30-03-22,21:56:18,Sat Apr 30 2022 21:56:18 GMT+0300 (kelet-európai nyári idő),The main experiment item,yes,0,0,C:/Users/rrics/Documents/!!ResearchBMECOGSCI/gnet,0,0,0,prototype1.png,no,mono,no,18,no,black,no,no,768,1241,3.5.6,legacy,xpyriment,osweb,1.3.13,0,space,space,space,space,38088,25162,26554,38088,2,legacy,824,1536,24,864,24,0,0,1536,1651345023116,1024,2,48000,-16,experiment,p4sarr2.png,0,even,Win32,309,137271,134256,309,309,653234,654735,648230,138789,648230,309,908815,910319,905819,654740,905819,visual_patterns,0,0,0,yes,1366
