acc,accuracy,average_response_time,avg_rt,background,bidi,browser_codename,browser_name,browser_version,canvas_backend,clock_backend,color_backend,compensation,coordinates,count_end,count_experiment,count_osweb,count_prestudy,count_prestudy_isi,count_prestudy_sequence,count_prestudy_stimpres,count_start,count_study,count_study_coroutines,count_study_isi,count_study_logger,count_study_response,count_study_sequence,count_study_start,count_study_stimpres,count_test,count_test_coroutines,count_test_isi,count_test_logger,count_test_response,count_test_sequence,count_test_start,count_test_stimpres,date_startdate,date_startdateUTC,date_starttime,datetime,description,disable_garbage_collection,experiment_debug,experiment_parameters,experiment_path,experiment_pilot,experiment_taskname,experiment_taskversion,fampict,font_bold,font_family,font_italic,font_size,font_underline,foreground,form_clicks,fullscreen,height,jatosStudyResultId,jatosVersion,keyboard_backend,mouse_backend,opensesame_codename,opensesame_version,repeat_cycle,response,response_start,response_study_start,response_test_start,response_time,response_time_start,response_time_study_start,response_time_test_start,round_decimals,sampler_backend,screen_availableHeight,screen_availableWidth,screen_colorDepth,screen_height,screen_pixelDepth,screen_screenX,screen_screenY,screen_width,sessionid,sound_buf_size,sound_channels,sound_freq,sound_sample_size,start,stim,subject_nr,subject_parity,system_os,time_prestudy,time_prestudy_isi,time_prestudy_stimpres,time_start,time_study,time_study_isi,time_study_logger,time_study_response,time_study_start,time_study_stimpres,time_test,time_test_isi,time_test_logger,time_test_response,time_test_start,time_test_stimpres,title,total_correct,total_response_time,total_responses,uniform_coordinates,width
undefined,undefined,undefined,undefined,white,no,Mozilla,Netscape,"5.0 (Windows NT 10.0; Win64; x64) AppleWebKit/537.36 (KHTML, like Gecko) Chrome/101.0.4951.54 Safari/537.36",xpyriment,legacy,legacy,0,uniform,0,0,0,0,24,24,24,0,0,0,0,0,0,0,0,0,0,,,,,,0,,03-04-22,03-04-22,14:56:28,Tue May 03 2022 14:56:28 GMT+0200 (közép-európai nyári idő),The main experiment item,yes,0,0,C:/Users/rrics/Documents/!!ResearchBMECOGSCI/gnet,0,0,0,prototype2.png,no,mono,no,18,no,black,no,no,768,1245,3.5.6,legacy,xpyriment,osweb,1.3.13,0,space,space,space,,16794,14411,16794,,2,legacy,1032,1920,24,1080,24,0,0,1920,1651582640439,1024,2,48000,-16,experiment,p6sarr1.png,0,even,Win32,198,126318,123310,198,198,149665,151182,144669,127836,144669,198,,,,,,visual_patterns,0,0,0,yes,1366
undefined,undefined,undefined,undefined,white,no,Mozilla,Netscape,"5.0 (Windows NT 10.0; Win64; x64) AppleWebKit/537.36 (KHTML, like Gecko) Chrome/101.0.4951.54 Safari/537.36",xpyriment,legacy,legacy,0,uniform,0,0,0,0,24,24,24,0,0,1,1,1,1,1,0,1,0,,,,,,0,,03-04-22,03-04-22,14:56:28,Tue May 03 2022 14:56:28 GMT+0200 (közép-európai nyári idő),The main experiment item,yes,0,0,C:/Users/rrics/Documents/!!ResearchBMECOGSCI/gnet,0,0,0,prototype2.png,no,mono,no,18,no,black,no,no,768,1245,3.5.6,legacy,xpyriment,osweb,1.3.13,0,space,space,space,,16794,14411,16794,,2,legacy,1032,1920,24,1080,24,0,0,1920,1651582640439,1024,2,48000,-16,experiment,prototype3.png,0,even,Win32,198,126318,123310,198,198,156203,157713,151197,127836,151197,198,,,,,,visual_patterns,0,0,0,yes,1366
undefined,undefined,undefined,undefined,white,no,Mozilla,Netscape,"5.0 (Windows NT 10.0; Win64; x64) AppleWebKit/537.36 (KHTML, like Gecko) Chrome/101.0.4951.54 Safari/537.36",xpyriment,legacy,legacy,0,uniform,0,0,0,0,24,24,24,0,0,2,2,2,2,2,0,2,0,,,,,,0,,03-04-22,03-04-22,14:56:28,Tue May 03 2022 14:56:28 GMT+0200 (közép-európai nyári idő),The main experiment item,yes,0,0,C:/Users/rrics/Documents/!!ResearchBMECOGSCI/gnet,0,0,0,prototype2.png,no,mono,no,18,no,black,no,no,768,1245,3.5.6,legacy,xpyriment,osweb,1.3.13,0,space,space,space,,16794,14411,16794,,2,legacy,1032,1920,24,1080,24,0,0,1920,1651582640439,1024,2,48000,-16,experiment,p3sarr1.png,0,even,Win32,198,126318,123310,198,198,162726,164229,157730,127836,157730,198,,,,,,visual_patterns,0,0,0,yes,1366
undefined,undefined,undefined,undefined,white,no,Mozilla,Netscape,"5.0 (Windows NT 10.0; Win64; x64) AppleWebKit/537.36 (KHTML, like Gecko) Chrome/101.0.4951.54 Safari/537.36",xpyriment,legacy,legacy,0,uniform,0,0,0,0,24,24,24,0,0,3,3,3,3,3,0,3,0,,,,,,0,,03-04-22,03-04-22,14:56:28,Tue May 03 2022 14:56:28 GMT+0200 (közép-európai nyári idő),The main experiment item,yes,0,0,C:/Users/rrics/Documents/!!ResearchBMECOGSCI/gnet,0,0,0,prototype2.png,no,mono,no,18,no,black,no,no,768,1245,3.5.6,legacy,xpyriment,osweb,1.3.13,0,space,space,space,,16794,14411,16794,,2,legacy,1032,1920,24,1080,24,0,0,1920,1651582640439,1024,2,48000,-16,experiment,p9sarr2.png,0,even,Win32,198,126318,123310,198,198,169245,170761,164243,127836,164243,198,,,,,,visual_patterns,0,0,0,yes,1366
undefined,undefined,undefined,undefined,white,no,Mozilla,Netscape,"5.0 (Windows NT 10.0; Win64; x64) AppleWebKit/537.36 (KHTML, like Gecko) Chrome/101.0.4951.54 Safari/537.36",xpyriment,legacy,legacy,0,uniform,0,0,0,0,24,24,24,0,0,4,4,4,4,4,0,4,0,,,,,,0,,03-04-22,03-04-22,14:56:28,Tue May 03 2022 14:56:28 GMT+0200 (közép-európai nyári idő),The main experiment item,yes,0,0,C:/Users/rrics/Documents/!!ResearchBMECOGSCI/gnet,0,0,0,prototype2.png,no,mono,no,18,no,black,no,no,768,1245,3.5.6,legacy,xpyriment,osweb,1.3.13,0,space,space,space,,16794,14411,16794,,2,legacy,1032,1920,24,1080,24,0,0,1920,1651582640439,1024,2,48000,-16,experiment,p4sarr2.png,0,even,Win32,198,126318,123310,198,198,175778,177298,170778,127836,170778,198,,,,,,visual_patterns,0,0,0,yes,1366
undefined,undefined,undefined,undefined,white,no,Mozilla,Netscape,"5.0 (Windows NT 10.0; Win64; x64) AppleWebKit/537.36 (KHTML, like Gecko) Chrome/101.0.4951.54 Safari/537.36",xpyriment,legacy,legacy,0,uniform,0,0,0,0,24,24,24,0,0,5,5,5,5,5,0,5,0,,,,,,0,,03-04-22,03-04-22,14:56:28,Tue May 03 2022 14:56:28 GMT+0200 (közép-európai nyári idő),The main experiment item,yes,0,0,C:/Users/rrics/Documents/!!ResearchBMECOGSCI/gnet,0,0,0,prototype2.png,no,mono,no,18,no,black,no,no,768,1245,3.5.6,legacy,xpyriment,osweb,1.3.13,0,space,space,space,,16794,14411,16794,,2,legacy,1032,1920,24,1080,24,0,0,1920,1651582640439,1024,2,48000,-16,experiment,p4sarrshacol2.png,0,even,Win32,198,126318,123310,198,198,182310,183826,177313,127836,177313,198,,,,,,visual_patterns,0,0,0,yes,1366
undefined,undefined,undefined,undefined,white,no,Mozilla,Netscape,"5.0 (Windows NT 10.0; Win64; x64) AppleWebKit/537.36 (KHTML, like Gecko) Chrome/101.0.4951.54 Safari/537.36",xpyriment,legacy,legacy,0,uniform,0,0,0,0,24,24,24,0,0,6,6,6,6,6,0,6,0,,,,,,0,,03-04-22,03-04-22,14:56:28,Tue May 03 2022 14:56:28 GMT+0200 (közép-európai nyári idő),The main experiment item,yes,0,0,C:/Users/rrics/Documents/!!ResearchBMECOGSCI/gnet,0,0,0,prototype2.png,no,mono,no,18,no,black,no,no,768,1245,3.5.6,legacy,xpyriment,osweb,1.3.13,0,space,space,space,,16794,14411,16794,,2,legacy,1032,1920,24,1080,24,0,0,1920,1651582640439,1024,2,48000,-16,experiment,p5sarrsha2.png,0,even,Win32,198,126318,123310,198,198,188842,190347,183845,127836,183845,198,,,,,,visual_patterns,0,0,0,yes,1366
undefined,undefined,undefined,undefined,white,no,Mozilla,Netscape,"5.0 (Windows NT 10.0; Win64; x64) AppleWebKit/537.36 (KHTML, like Gecko) Chrome/101.0.4951.54 Safari/537.36",xpyriment,legacy,legacy,0,uniform,0,0,0,0,24,24,24,0,0,7,7,7,7,7,0,7,0,,,,,,0,,03-04-22,03-04-22,14:56:28,Tue May 03 2022 14:56:28 GMT+0200 (közép-európai nyári idő),The main experiment item,yes,0,0,C:/Users/rrics/Documents/!!ResearchBMECOGSCI/gnet,0,0,0,prototype2.png,no,mono,no,18,no,black,no,no,768,1245,3.5.6,legacy,xpyriment,osweb,1.3.13,0,space,space,space,,16794,14411,16794,,2,legacy,1032,1920,24,1080,24,0,0,1920,1651582640439,1024,2,48000,-16,experiment,p2sarr1.png,0,even,Win32,198,126318,123310,198,198,195358,196874,190361,127836,190361,198,,,,,,visual_patterns,0,0,0,yes,1366
undefined,undefined,undefined,undefined,white,no,Mozilla,Netscape,"5.0 (Windows NT 10.0; Win64; x64) AppleWebKit/537.36 (KHTML, like Gecko) Chrome/101.0.4951.54 Safari/537.36",xpyriment,legacy,legacy,0,uniform,0,0,0,0,24,24,24,0,0,8,8,8,8,8,0,8,0,,,,,,0,,03-04-22,03-04-22,14:56:28,Tue May 03 2022 14:56:28 GMT+0200 (közép-európai nyári idő),The main experiment item,yes,0,0,C:/Users/rrics/Documents/!!ResearchBMECOGSCI/gnet,0,0,0,prototype2.png,no,mono,no,18,no,black,no,no,768,1245,3.5.6,legacy,xpyriment,osweb,1.3.13,0,space,space,space,,16794,14411,16794,,2,legacy,1032,1920,24,1080,24,0,0,1920,1651582640439,1024,2,48000,-16,experiment,prototype4.png,0,even,Win32,198,126318,123310,198,198,201890,203407,196887,127836,196887,198,,,,,,visual_patterns,0,0,0,yes,1366
undefined,undefined,undefined,undefined,white,no,Mozilla,Netscape,"5.0 (Windows NT 10.0; Win64; x64) AppleWebKit/537.36 (KHTML, like Gecko) Chrome/101.0.4951.54 Safari/537.36",xpyriment,legacy,legacy,0,uniform,0,0,0,0,24,24,24,0,0,9,9,9,9,9,0,9,0,,,,,,0,,03-04-22,03-04-22,14:56:28,Tue May 03 2022 14:56:28 GMT+0200 (közép-európai nyári idő),The main experiment item,yes,0,0,C:/Users/rrics/Documents/!!ResearchBMECOGSCI/gnet,0,0,0,prototype2.png,no,mono,no,18,no,black,no,no,768,1245,3.5.6,legacy,xpyriment,osweb,1.3.13,0,space,space,space,,16794,14411,16794,,2,legacy,1032,1920,24,1080,24,0,0,1920,1651582640439,1024,2,48000,-16,experiment,p5sarrsha1.png,0,even,Win32,198,126318,123310,198,198,208423,209930,203425,127836,203425,198,,,,,,visual_patterns,0,0,0,yes,1366
undefined,undefined,undefined,undefined,white,no,Mozilla,Netscape,"5.0 (Windows NT 10.0; Win64; x64) AppleWebKit/537.36 (KHTML, like Gecko) Chrome/101.0.4951.54 Safari/537.36",xpyriment,legacy,legacy,0,uniform,0,0,0,0,24,24,24,0,0,10,10,10,10,10,0,10,0,,,,,,0,,03-04-22,03-04-22,14:56:28,Tue May 03 2022 14:56:28 GMT+0200 (közép-európai nyári idő),The main experiment item,yes,0,0,C:/Users/rrics/Documents/!!ResearchBMECOGSCI/gnet,0,0,0,prototype2.png,no,mono,no,18,no,black,no,no,768,1245,3.5.6,legacy,xpyriment,osweb,1.3.13,0,space,space,space,,16794,14411,16794,,2,legacy,1032,1920,24,1080,24,0,0,1920,1651582640439,1024,2,48000,-16,experiment,p5sarrcol1.png,0,even,Win32,198,126318,123310,198,198,214947,216455,209946,127836,209946,198,,,,,,visual_patterns,0,0,0,yes,1366
undefined,undefined,undefined,undefined,white,no,Mozilla,Netscape,"5.0 (Windows NT 10.0; Win64; x64) AppleWebKit/537.36 (KHTML, like Gecko) Chrome/101.0.4951.54 Safari/537.36",xpyriment,legacy,legacy,0,uniform,0,0,0,0,24,24,24,0,0,11,11,11,11,11,0,11,0,,,,,,0,,03-04-22,03-04-22,14:56:28,Tue May 03 2022 14:56:28 GMT+0200 (közép-európai nyári idő),The main experiment item,yes,0,0,C:/Users/rrics/Documents/!!ResearchBMECOGSCI/gnet,0,0,0,prototype2.png,no,mono,no,18,no,black,no,no,768,1245,3.5.6,legacy,xpyriment,osweb,1.3.13,0,space,space,space,,16794,14411,16794,,2,legacy,1032,1920,24,1080,24,0,0,1920,1651582640439,1024,2,48000,-16,experiment,p8sarr2.png,0,even,Win32,198,126318,123310,198,198,221468,222970,216469,127836,216469,198,,,,,,visual_patterns,0,0,0,yes,1366
undefined,undefined,undefined,undefined,white,no,Mozilla,Netscape,"5.0 (Windows NT 10.0; Win64; x64) AppleWebKit/537.36 (KHTML, like Gecko) Chrome/101.0.4951.54 Safari/537.36",xpyriment,legacy,legacy,0,uniform,0,0,0,0,24,24,24,0,0,12,12,12,12,12,0,12,0,,,,,,0,,03-04-22,03-04-22,14:56:28,Tue May 03 2022 14:56:28 GMT+0200 (közép-európai nyári idő),The main experiment item,yes,0,0,C:/Users/rrics/Documents/!!ResearchBMECOGSCI/gnet,0,0,0,prototype2.png,no,mono,no,18,no,black,no,no,768,1245,3.5.6,legacy,xpyriment,osweb,1.3.13,0,space,space,space,,16794,14411,16794,,2,legacy,1032,1920,24,1080,24,0,0,1920,1651582640439,1024,2,48000,-16,experiment,p5sarrshacol2.png,0,even,Win32,198,126318,123310,198,198,227983,229486,222985,127836,222985,198,,,,,,visual_patterns,0,0,0,yes,1366
undefined,undefined,undefined,undefined,white,no,Mozilla,Netscape,"5.0 (Windows NT 10.0; Win64; x64) AppleWebKit/537.36 (KHTML, like Gecko) Chrome/101.0.4951.54 Safari/537.36",xpyriment,legacy,legacy,0,uniform,0,0,0,0,24,24,24,0,0,13,13,13,13,13,0,13,0,,,,,,0,,03-04-22,03-04-22,14:56:28,Tue May 03 2022 14:56:28 GMT+0200 (közép-európai nyári idő),The main experiment item,yes,0,0,C:/Users/rrics/Documents/!!ResearchBMECOGSCI/gnet,0,0,0,prototype2.png,no,mono,no,18,no,black,no,no,768,1245,3.5.6,legacy,xpyriment,osweb,1.3.13,0,space,space,space,,16794,14411,16794,,2,legacy,1032,1920,24,1080,24,0,0,1920,1651582640439,1024,2,48000,-16,experiment,p8sarr1.png,0,even,Win32,198,126318,123310,198,198,234503,236009,229503,127836,229503,198,,,,,,visual_patterns,0,0,0,yes,1366
undefined,undefined,undefined,undefined,white,no,Mozilla,Netscape,"5.0 (Windows NT 10.0; Win64; x64) AppleWebKit/537.36 (KHTML, like Gecko) Chrome/101.0.4951.54 Safari/537.36",xpyriment,legacy,legacy,0,uniform,0,0,0,0,24,24,24,0,0,14,14,14,14,14,0,14,0,,,,,,0,,03-04-22,03-04-22,14:56:28,Tue May 03 2022 14:56:28 GMT+0200 (közép-európai nyári idő),The main experiment item,yes,0,0,C:/Users/rrics/Documents/!!ResearchBMECOGSCI/gnet,0,0,0,prototype2.png,no,mono,no,18,no,black,no,no,768,1245,3.5.6,legacy,xpyriment,osweb,1.3.13,0,space,space,space,,16794,14411,16794,,2,legacy,1032,1920,24,1080,24,0,0,1920,1651582640439,1024,2,48000,-16,experiment,p3sarrcol1.png,0,even,Win32,198,126318,123310,198,198,241024,242535,236025,127836,236025,198,,,,,,visual_patterns,0,0,0,yes,1366
undefined,undefined,undefined,undefined,white,no,Mozilla,Netscape,"5.0 (Windows NT 10.0; Win64; x64) AppleWebKit/537.36 (KHTML, like Gecko) Chrome/101.0.4951.54 Safari/537.36",xpyriment,legacy,legacy,0,uniform,0,0,0,0,24,24,24,0,0,15,15,15,15,15,0,15,0,,,,,,0,,03-04-22,03-04-22,14:56:28,Tue May 03 2022 14:56:28 GMT+0200 (közép-európai nyári idő),The main experiment item,yes,0,0,C:/Users/rrics/Documents/!!ResearchBMECOGSCI/gnet,0,0,0,prototype2.png,no,mono,no,18,no,black,no,no,768,1245,3.5.6,legacy,xpyriment,osweb,1.3.13,0,space,space,space,,16794,14411,16794,,2,legacy,1032,1920,24,1080,24,0,0,1920,1651582640439,1024,2,48000,-16,experiment,prototype1.png,0,even,Win32,198,126318,123310,198,198,247551,249067,242547,127836,242547,198,,,,,,visual_patterns,0,0,0,yes,1366
undefined,undefined,undefined,undefined,white,no,Mozilla,Netscape,"5.0 (Windows NT 10.0; Win64; x64) AppleWebKit/537.36 (KHTML, like Gecko) Chrome/101.0.4951.54 Safari/537.36",xpyriment,legacy,legacy,0,uniform,0,0,0,0,24,24,24,0,0,16,16,16,16,16,0,16,0,,,,,,0,,03-04-22,03-04-22,14:56:28,Tue May 03 2022 14:56:28 GMT+0200 (közép-európai nyári idő),The main experiment item,yes,0,0,C:/Users/rrics/Documents/!!ResearchBMECOGSCI/gnet,0,0,0,prototype2.png,no,mono,no,18,no,black,no,no,768,1245,3.5.6,legacy,xpyriment,osweb,1.3.13,0,space,space,space,,16794,14411,16794,,2,legacy,1032,1920,24,1080,24,0,0,1920,1651582640439,1024,2,48000,-16,experiment,p2sarr2.png,0,even,Win32,198,126318,123310,198,198,254083,255599,249082,127836,249082,198,,,,,,visual_patterns,0,0,0,yes,1366
undefined,undefined,undefined,undefined,white,no,Mozilla,Netscape,"5.0 (Windows NT 10.0; Win64; x64) AppleWebKit/537.36 (KHTML, like Gecko) Chrome/101.0.4951.54 Safari/537.36",xpyriment,legacy,legacy,0,uniform,0,0,0,0,24,24,24,0,0,17,17,17,17,17,0,17,0,,,,,,0,,03-04-22,03-04-22,14:56:28,Tue May 03 2022 14:56:28 GMT+0200 (közép-európai nyári idő),The main experiment item,yes,0,0,C:/Users/rrics/Documents/!!ResearchBMECOGSCI/gnet,0,0,0,prototype2.png,no,mono,no,18,no,black,no,no,768,1245,3.5.6,legacy,xpyriment,osweb,1.3.13,0,space,space,space,,16794,14411,16794,,2,legacy,1032,1920,24,1080,24,0,0,1920,1651582640439,1024,2,48000,-16,experiment,p3sarrsha2.png,0,even,Win32,198,126318,123310,198,198,260615,262132,255614,127836,255614,198,,,,,,visual_patterns,0,0,0,yes,1366
undefined,undefined,undefined,undefined,white,no,Mozilla,Netscape,"5.0 (Windows NT 10.0; Win64; x64) AppleWebKit/537.36 (KHTML, like Gecko) Chrome/101.0.4951.54 Safari/537.36",xpyriment,legacy,legacy,0,uniform,0,0,0,0,24,24,24,0,0,18,18,18,18,18,0,18,0,,,,,,0,,03-04-22,03-04-22,14:56:28,Tue May 03 2022 14:56:28 GMT+0200 (közép-európai nyári idő),The main experiment item,yes,0,0,C:/Users/rrics/Documents/!!ResearchBMECOGSCI/gnet,0,0,0,prototype2.png,no,mono,no,18,no,black,no,no,768,1245,3.5.6,legacy,xpyriment,osweb,1.3.13,0,space,space,space,,16794,14411,16794,,2,legacy,1032,1920,24,1080,24,0,0,1920,1651582640439,1024,2,48000,-16,experiment,prototype4.png,0,even,Win32,198,126318,123310,198,198,267148,268664,262144,127836,262144,198,,,,,,visual_patterns,0,0,0,yes,1366
undefined,undefined,undefined,undefined,white,no,Mozilla,Netscape,"5.0 (Windows NT 10.0; Win64; x64) AppleWebKit/537.36 (KHTML, like Gecko) Chrome/101.0.4951.54 Safari/537.36",xpyriment,legacy,legacy,0,uniform,0,0,0,0,24,24,24,0,0,19,19,19,19,19,0,19,0,,,,,,0,,03-04-22,03-04-22,14:56:28,Tue May 03 2022 14:56:28 GMT+0200 (közép-európai nyári idő),The main experiment item,yes,0,0,C:/Users/rrics/Documents/!!ResearchBMECOGSCI/gnet,0,0,0,prototype2.png,no,mono,no,18,no,black,no,no,768,1245,3.5.6,legacy,xpyriment,osweb,1.3.13,0,space,space,space,,16794,14411,16794,,2,legacy,1032,1920,24,1080,24,0,0,1920,1651582640439,1024,2,48000,-16,experiment,p3sarrsha1.png,0,even,Win32,198,126318,123310,198,198,273680,275203,268680,127836,268679,198,,,,,,visual_patterns,0,0,0,yes,1366
undefined,undefined,undefined,undefined,white,no,Mozilla,Netscape,"5.0 (Windows NT 10.0; Win64; x64) AppleWebKit/537.36 (KHTML, like Gecko) Chrome/101.0.4951.54 Safari/537.36",xpyriment,legacy,legacy,0,uniform,0,0,0,0,24,24,24,0,0,20,20,20,20,20,0,20,0,,,,,,0,,03-04-22,03-04-22,14:56:28,Tue May 03 2022 14:56:28 GMT+0200 (közép-európai nyári idő),The main experiment item,yes,0,0,C:/Users/rrics/Documents/!!ResearchBMECOGSCI/gnet,0,0,0,prototype2.png,no,mono,no,18,no,black,no,no,768,1245,3.5.6,legacy,xpyriment,osweb,1.3.13,0,space,space,space,,16794,14411,16794,,2,legacy,1032,1920,24,1080,24,0,0,1920,1651582640439,1024,2,48000,-16,experiment,prototype2.png,0,even,Win32,198,126318,123310,198,198,280218,281736,275216,127836,275216,198,,,,,,visual_patterns,0,0,0,yes,1366
undefined,undefined,undefined,undefined,white,no,Mozilla,Netscape,"5.0 (Windows NT 10.0; Win64; x64) AppleWebKit/537.36 (KHTML, like Gecko) Chrome/101.0.4951.54 Safari/537.36",xpyriment,legacy,legacy,0,uniform,0,0,0,0,24,24,24,0,0,21,21,21,21,21,0,21,0,,,,,,0,,03-04-22,03-04-22,14:56:28,Tue May 03 2022 14:56:28 GMT+0200 (közép-európai nyári idő),The main experiment item,yes,0,0,C:/Users/rrics/Documents/!!ResearchBMECOGSCI/gnet,0,0,0,prototype2.png,no,mono,no,18,no,black,no,no,768,1245,3.5.6,legacy,xpyriment,osweb,1.3.13,0,space,space,space,,16794,14411,16794,,2,legacy,1032,1920,24,1080,24,0,0,1920,1651582640439,1024,2,48000,-16,experiment,p4sarrcol2.png,0,even,Win32,198,126318,123310,198,198,286755,288262,281753,127836,281753,198,,,,,,visual_patterns,0,0,0,yes,1366
undefined,undefined,undefined,undefined,white,no,Mozilla,Netscape,"5.0 (Windows NT 10.0; Win64; x64) AppleWebKit/537.36 (KHTML, like Gecko) Chrome/101.0.4951.54 Safari/537.36",xpyriment,legacy,legacy,0,uniform,0,0,0,0,24,24,24,0,0,22,22,22,22,22,0,22,0,,,,,,0,,03-04-22,03-04-22,14:56:28,Tue May 03 2022 14:56:28 GMT+0200 (közép-európai nyári idő),The main experiment item,yes,0,0,C:/Users/rrics/Documents/!!ResearchBMECOGSCI/gnet,0,0,0,prototype2.png,no,mono,no,18,no,black,no,no,768,1245,3.5.6,legacy,xpyriment,osweb,1.3.13,0,space,space,space,,16794,14411,16794,,2,legacy,1032,1920,24,1080,24,0,0,1920,1651582640439,1024,2,48000,-16,experiment,p5sarrshacol1.png,0,even,Win32,198,126318,123310,198,198,293272,294777,288276,127836,288276,198,,,,,,visual_patterns,0,0,0,yes,1366
undefined,undefined,undefined,undefined,white,no,Mozilla,Netscape,"5.0 (Windows NT 10.0; Win64; x64) AppleWebKit/537.36 (KHTML, like Gecko) Chrome/101.0.4951.54 Safari/537.36",xpyriment,legacy,legacy,0,uniform,0,0,0,0,24,24,24,0,0,23,23,23,23,23,0,23,0,,,,,,0,,03-04-22,03-04-22,14:56:28,Tue May 03 2022 14:56:28 GMT+0200 (közép-európai nyári idő),The main experiment item,yes,0,0,C:/Users/rrics/Documents/!!ResearchBMECOGSCI/gnet,0,0,0,prototype2.png,no,mono,no,18,no,black,no,no,768,1245,3.5.6,legacy,xpyriment,osweb,1.3.13,0,space,space,space,,16794,14411,16794,,2,legacy,1032,1920,24,1080,24,0,0,1920,1651582640439,1024,2,48000,-16,experiment,prototype2.png,0,even,Win32,198,126318,123310,198,198,299794,301318,294791,127836,294790,198,,,,,,visual_patterns,0,0,0,yes,1366
undefined,undefined,undefined,undefined,white,no,Mozilla,Netscape,"5.0 (Windows NT 10.0; Win64; x64) AppleWebKit/537.36 (KHTML, like Gecko) Chrome/101.0.4951.54 Safari/537.36",xpyriment,legacy,legacy,0,uniform,0,0,0,0,24,24,24,0,0,24,24,24,24,24,0,24,0,,,,,,0,,03-04-22,03-04-22,14:56:28,Tue May 03 2022 14:56:28 GMT+0200 (közép-európai nyári idő),The main experiment item,yes,0,0,C:/Users/rrics/Documents/!!ResearchBMECOGSCI/gnet,0,0,0,prototype2.png,no,mono,no,18,no,black,no,no,768,1245,3.5.6,legacy,xpyriment,osweb,1.3.13,0,space,space,space,,16794,14411,16794,,2,legacy,1032,1920,24,1080,24,0,0,1920,1651582640439,1024,2,48000,-16,experiment,p4sarrsha2.png,0,even,Win32,198,126318,123310,198,198,306334,307842,301332,127836,301332,198,,,,,,visual_patterns,0,0,0,yes,1366
undefined,undefined,undefined,undefined,white,no,Mozilla,Netscape,"5.0 (Windows NT 10.0; Win64; x64) AppleWebKit/537.36 (KHTML, like Gecko) Chrome/101.0.4951.54 Safari/537.36",xpyriment,legacy,legacy,0,uniform,0,0,0,0,24,24,24,0,0,25,25,25,25,25,0,25,0,,,,,,0,,03-04-22,03-04-22,14:56:28,Tue May 03 2022 14:56:28 GMT+0200 (közép-európai nyári idő),The main experiment item,yes,0,0,C:/Users/rrics/Documents/!!ResearchBMECOGSCI/gnet,0,0,0,prototype2.png,no,mono,no,18,no,black,no,no,768,1245,3.5.6,legacy,xpyriment,osweb,1.3.13,0,space,space,space,,16794,14411,16794,,2,legacy,1032,1920,24,1080,24,0,0,1920,1651582640439,1024,2,48000,-16,experiment,p9sarr1.png,0,even,Win32,198,126318,123310,198,198,312859,314362,307861,127836,307861,198,,,,,,visual_patterns,0,0,0,yes,1366
undefined,undefined,undefined,undefined,white,no,Mozilla,Netscape,"5.0 (Windows NT 10.0; Win64; x64) AppleWebKit/537.36 (KHTML, like Gecko) Chrome/101.0.4951.54 Safari/537.36",xpyriment,legacy,legacy,0,uniform,0,0,0,0,24,24,24,0,0,26,26,26,26,26,0,26,0,,,,,,0,,03-04-22,03-04-22,14:56:28,Tue May 03 2022 14:56:28 GMT+0200 (közép-európai nyári idő),The main experiment item,yes,0,0,C:/Users/rrics/Documents/!!ResearchBMECOGSCI/gnet,0,0,0,prototype2.png,no,mono,no,18,no,black,no,no,768,1245,3.5.6,legacy,xpyriment,osweb,1.3.13,0,space,space,space,,16794,14411,16794,,2,legacy,1032,1920,24,1080,24,0,0,1920,1651582640439,1024,2,48000,-16,experiment,prototype1.png,0,even,Win32,198,126318,123310,198,198,319378,320890,314374,127836,314374,198,,,,,,visual_patterns,0,0,0,yes,1366
undefined,undefined,undefined,undefined,white,no,Mozilla,Netscape,"5.0 (Windows NT 10.0; Win64; x64) AppleWebKit/537.36 (KHTML, like Gecko) Chrome/101.0.4951.54 Safari/537.36",xpyriment,legacy,legacy,0,uniform,0,0,0,0,24,24,24,0,0,27,27,27,27,27,0,27,0,,,,,,0,,03-04-22,03-04-22,14:56:28,Tue May 03 2022 14:56:28 GMT+0200 (közép-európai nyári idő),The main experiment item,yes,0,0,C:/Users/rrics/Documents/!!ResearchBMECOGSCI/gnet,0,0,0,prototype2.png,no,mono,no,18,no,black,no,no,768,1245,3.5.6,legacy,xpyriment,osweb,1.3.13,0,space,space,space,,16794,14411,16794,,2,legacy,1032,1920,24,1080,24,0,0,1920,1651582640439,1024,2,48000,-16,experiment,p4sarrcol1.png,0,even,Win32,198,126318,123310,198,198,325904,327413,320906,127836,320906,198,,,,,,visual_patterns,0,0,0,yes,1366
undefined,undefined,undefined,undefined,white,no,Mozilla,Netscape,"5.0 (Windows NT 10.0; Win64; x64) AppleWebKit/537.36 (KHTML, like Gecko) Chrome/101.0.4951.54 Safari/537.36",xpyriment,legacy,legacy,0,uniform,0,0,0,0,24,24,24,0,0,28,28,28,28,28,0,28,0,,,,,,0,,03-04-22,03-04-22,14:56:28,Tue May 03 2022 14:56:28 GMT+0200 (közép-európai nyári idő),The main experiment item,yes,0,0,C:/Users/rrics/Documents/!!ResearchBMECOGSCI/gnet,0,0,0,prototype2.png,no,mono,no,18,no,black,no,no,768,1245,3.5.6,legacy,xpyriment,osweb,1.3.13,0,space,space,space,,16794,14411,16794,,2,legacy,1032,1920,24,1080,24,0,0,1920,1651582640439,1024,2,48000,-16,experiment,prototype4.png,0,even,Win32,198,126318,123310,198,198,332426,333938,327426,127836,327426,198,,,,,,visual_patterns,0,0,0,yes,1366
undefined,undefined,undefined,undefined,white,no,Mozilla,Netscape,"5.0 (Windows NT 10.0; Win64; x64) AppleWebKit/537.36 (KHTML, like Gecko) Chrome/101.0.4951.54 Safari/537.36",xpyriment,legacy,legacy,0,uniform,0,0,0,0,24,24,24,0,0,29,29,29,29,29,0,29,0,,,,,,0,,03-04-22,03-04-22,14:56:28,Tue May 03 2022 14:56:28 GMT+0200 (közép-európai nyári idő),The main experiment item,yes,0,0,C:/Users/rrics/Documents/!!ResearchBMECOGSCI/gnet,0,0,0,prototype2.png,no,mono,no,18,no,black,no,no,768,1245,3.5.6,legacy,xpyriment,osweb,1.3.13,0,space,space,space,,16794,14411,16794,,2,legacy,1032,1920,24,1080,24,0,0,1920,1651582640439,1024,2,48000,-16,experiment,prototype5.png,0,even,Win32,198,126318,123310,198,198,338955,340471,333950,127836,333950,198,,,,,,visual_patterns,0,0,0,yes,1366
undefined,undefined,undefined,undefined,white,no,Mozilla,Netscape,"5.0 (Windows NT 10.0; Win64; x64) AppleWebKit/537.36 (KHTML, like Gecko) Chrome/101.0.4951.54 Safari/537.36",xpyriment,legacy,legacy,0,uniform,0,0,0,0,24,24,24,0,0,30,30,30,30,30,0,30,0,,,,,,0,,03-04-22,03-04-22,14:56:28,Tue May 03 2022 14:56:28 GMT+0200 (közép-európai nyári idő),The main experiment item,yes,0,0,C:/Users/rrics/Documents/!!ResearchBMECOGSCI/gnet,0,0,0,prototype2.png,no,mono,no,18,no,black,no,no,768,1245,3.5.6,legacy,xpyriment,osweb,1.3.13,0,space,space,space,,16794,14411,16794,,2,legacy,1032,1920,24,1080,24,0,0,1920,1651582640439,1024,2,48000,-16,experiment,p5sarrcol2.png,0,even,Win32,198,126318,123310,198,198,345487,346992,340486,127836,340486,198,,,,,,visual_patterns,0,0,0,yes,1366
undefined,undefined,undefined,undefined,white,no,Mozilla,Netscape,"5.0 (Windows NT 10.0; Win64; x64) AppleWebKit/537.36 (KHTML, like Gecko) Chrome/101.0.4951.54 Safari/537.36",xpyriment,legacy,legacy,0,uniform,0,0,0,0,24,24,24,0,0,31,31,31,31,31,0,31,0,,,,,,0,,03-04-22,03-04-22,14:56:28,Tue May 03 2022 14:56:28 GMT+0200 (közép-európai nyári idő),The main experiment item,yes,0,0,C:/Users/rrics/Documents/!!ResearchBMECOGSCI/gnet,0,0,0,prototype2.png,no,mono,no,18,no,black,no,no,768,1245,3.5.6,legacy,xpyriment,osweb,1.3.13,0,space,space,space,,16794,14411,16794,,2,legacy,1032,1920,24,1080,24,0,0,1920,1651582640439,1024,2,48000,-16,experiment,p2sarrsha2.png,0,even,Win32,198,126318,123310,198,198,352013,353519,347008,127836,347007,198,,,,,,visual_patterns,0,0,0,yes,1366
undefined,undefined,undefined,undefined,white,no,Mozilla,Netscape,"5.0 (Windows NT 10.0; Win64; x64) AppleWebKit/537.36 (KHTML, like Gecko) Chrome/101.0.4951.54 Safari/537.36",xpyriment,legacy,legacy,0,uniform,0,0,0,0,24,24,24,0,0,32,32,32,32,32,0,32,0,,,,,,0,,03-04-22,03-04-22,14:56:28,Tue May 03 2022 14:56:28 GMT+0200 (közép-európai nyári idő),The main experiment item,yes,0,0,C:/Users/rrics/Documents/!!ResearchBMECOGSCI/gnet,0,0,0,prototype2.png,no,mono,no,18,no,black,no,no,768,1245,3.5.6,legacy,xpyriment,osweb,1.3.13,0,space,space,space,,16794,14411,16794,,2,legacy,1032,1920,24,1080,24,0,0,1920,1651582640439,1024,2,48000,-16,experiment,p5sarr1.png,0,even,Win32,198,126318,123310,198,198,358531,360035,353534,127836,353533,198,,,,,,visual_patterns,0,0,0,yes,1366
undefined,undefined,undefined,undefined,white,no,Mozilla,Netscape,"5.0 (Windows NT 10.0; Win64; x64) AppleWebKit/537.36 (KHTML, like Gecko) Chrome/101.0.4951.54 Safari/537.36",xpyriment,legacy,legacy,0,uniform,0,0,0,0,24,24,24,0,0,33,33,33,33,33,0,33,0,,,,,,0,,03-04-22,03-04-22,14:56:28,Tue May 03 2022 14:56:28 GMT+0200 (közép-európai nyári idő),The main experiment item,yes,0,0,C:/Users/rrics/Documents/!!ResearchBMECOGSCI/gnet,0,0,0,prototype2.png,no,mono,no,18,no,black,no,no,768,1245,3.5.6,legacy,xpyriment,osweb,1.3.13,0,space,space,space,,16794,14411,16794,,2,legacy,1032,1920,24,1080,24,0,0,1920,1651582640439,1024,2,48000,-16,experiment,p3sarrshacol1.png,0,even,Win32,198,126318,123310,198,198,365046,366550,360051,127836,360051,198,,,,,,visual_patterns,0,0,0,yes,1366
undefined,undefined,undefined,undefined,white,no,Mozilla,Netscape,"5.0 (Windows NT 10.0; Win64; x64) AppleWebKit/537.36 (KHTML, like Gecko) Chrome/101.0.4951.54 Safari/537.36",xpyriment,legacy,legacy,0,uniform,0,0,0,0,24,24,24,0,0,34,34,34,34,34,0,34,0,,,,,,0,,03-04-22,03-04-22,14:56:28,Tue May 03 2022 14:56:28 GMT+0200 (közép-európai nyári idő),The main experiment item,yes,0,0,C:/Users/rrics/Documents/!!ResearchBMECOGSCI/gnet,0,0,0,prototype2.png,no,mono,no,18,no,black,no,no,768,1245,3.5.6,legacy,xpyriment,osweb,1.3.13,0,space,space,space,,16794,14411,16794,,2,legacy,1032,1920,24,1080,24,0,0,1920,1651582640439,1024,2,48000,-16,experiment,prototype1.png,0,even,Win32,198,126318,123310,198,198,371565,373082,366564,127836,366564,198,,,,,,visual_patterns,0,0,0,yes,1366
undefined,undefined,undefined,undefined,white,no,Mozilla,Netscape,"5.0 (Windows NT 10.0; Win64; x64) AppleWebKit/537.36 (KHTML, like Gecko) Chrome/101.0.4951.54 Safari/537.36",xpyriment,legacy,legacy,0,uniform,0,0,0,0,24,24,24,0,0,35,35,35,35,35,0,35,0,,,,,,0,,03-04-22,03-04-22,14:56:28,Tue May 03 2022 14:56:28 GMT+0200 (közép-európai nyári idő),The main experiment item,yes,0,0,C:/Users/rrics/Documents/!!ResearchBMECOGSCI/gnet,0,0,0,prototype2.png,no,mono,no,18,no,black,no,no,768,1245,3.5.6,legacy,xpyriment,osweb,1.3.13,0,space,space,space,,16794,14411,16794,,2,legacy,1032,1920,24,1080,24,0,0,1920,1651582640439,1024,2,48000,-16,experiment,p4sarrshacol1.png,0,even,Win32,198,126318,123310,198,198,378099,379615,373097,127836,373097,198,,,,,,visual_patterns,0,0,0,yes,1366
undefined,undefined,undefined,undefined,white,no,Mozilla,Netscape,"5.0 (Windows NT 10.0; Win64; x64) AppleWebKit/537.36 (KHTML, like Gecko) Chrome/101.0.4951.54 Safari/537.36",xpyriment,legacy,legacy,0,uniform,0,0,0,0,24,24,24,0,0,36,36,36,36,36,0,36,0,,,,,,0,,03-04-22,03-04-22,14:56:28,Tue May 03 2022 14:56:28 GMT+0200 (közép-európai nyári idő),The main experiment item,yes,0,0,C:/Users/rrics/Documents/!!ResearchBMECOGSCI/gnet,0,0,0,prototype2.png,no,mono,no,18,no,black,no,no,768,1245,3.5.6,legacy,xpyriment,osweb,1.3.13,0,space,space,space,,16794,14411,16794,,2,legacy,1032,1920,24,1080,24,0,0,1920,1651582640439,1024,2,48000,-16,experiment,prototype3.png,0,even,Win32,198,126318,123310,198,198,384636,386148,379631,127836,379631,198,,,,,,visual_patterns,0,0,0,yes,1366
undefined,undefined,undefined,undefined,white,no,Mozilla,Netscape,"5.0 (Windows NT 10.0; Win64; x64) AppleWebKit/537.36 (KHTML, like Gecko) Chrome/101.0.4951.54 Safari/537.36",xpyriment,legacy,legacy,0,uniform,0,0,0,0,24,24,24,0,0,37,37,37,37,37,0,37,0,,,,,,0,,03-04-22,03-04-22,14:56:28,Tue May 03 2022 14:56:28 GMT+0200 (közép-európai nyári idő),The main experiment item,yes,0,0,C:/Users/rrics/Documents/!!ResearchBMECOGSCI/gnet,0,0,0,prototype2.png,no,mono,no,18,no,black,no,no,768,1245,3.5.6,legacy,xpyriment,osweb,1.3.13,0,space,space,space,,16794,14411,16794,,2,legacy,1032,1920,24,1080,24,0,0,1920,1651582640439,1024,2,48000,-16,experiment,prototype3.png,0,even,Win32,198,126318,123310,198,198,391164,392671,386161,127836,386161,198,,,,,,visual_patterns,0,0,0,yes,1366
undefined,undefined,undefined,undefined,white,no,Mozilla,Netscape,"5.0 (Windows NT 10.0; Win64; x64) AppleWebKit/537.36 (KHTML, like Gecko) Chrome/101.0.4951.54 Safari/537.36",xpyriment,legacy,legacy,0,uniform,0,0,0,0,24,24,24,0,0,38,38,38,38,38,0,38,0,,,,,,0,,03-04-22,03-04-22,14:56:28,Tue May 03 2022 14:56:28 GMT+0200 (közép-európai nyári idő),The main experiment item,yes,0,0,C:/Users/rrics/Documents/!!ResearchBMECOGSCI/gnet,0,0,0,prototype2.png,no,mono,no,18,no,black,no,no,768,1245,3.5.6,legacy,xpyriment,osweb,1.3.13,0,space,space,space,,16794,14411,16794,,2,legacy,1032,1920,24,1080,24,0,0,1920,1651582640439,1024,2,48000,-16,experiment,p7sarr1.png,0,even,Win32,198,126318,123310,198,198,397684,399196,392688,127836,392688,198,,,,,,visual_patterns,0,0,0,yes,1366
undefined,undefined,undefined,undefined,white,no,Mozilla,Netscape,"5.0 (Windows NT 10.0; Win64; x64) AppleWebKit/537.36 (KHTML, like Gecko) Chrome/101.0.4951.54 Safari/537.36",xpyriment,legacy,legacy,0,uniform,0,0,0,0,24,24,24,0,0,39,39,39,39,39,0,39,0,,,,,,0,,03-04-22,03-04-22,14:56:28,Tue May 03 2022 14:56:28 GMT+0200 (közép-európai nyári idő),The main experiment item,yes,0,0,C:/Users/rrics/Documents/!!ResearchBMECOGSCI/gnet,0,0,0,prototype2.png,no,mono,no,18,no,black,no,no,768,1245,3.5.6,legacy,xpyriment,osweb,1.3.13,0,space,space,space,,16794,14411,16794,,2,legacy,1032,1920,24,1080,24,0,0,1920,1651582640439,1024,2,48000,-16,experiment,p1sarrsha1.png,0,even,Win32,198,126318,123310,198,198,404211,405712,399212,127836,399212,198,,,,,,visual_patterns,0,0,0,yes,1366
undefined,undefined,undefined,undefined,white,no,Mozilla,Netscape,"5.0 (Windows NT 10.0; Win64; x64) AppleWebKit/537.36 (KHTML, like Gecko) Chrome/101.0.4951.54 Safari/537.36",xpyriment,legacy,legacy,0,uniform,0,0,0,0,24,24,24,0,0,40,40,40,40,40,0,40,0,,,,,,0,,03-04-22,03-04-22,14:56:28,Tue May 03 2022 14:56:28 GMT+0200 (közép-európai nyári idő),The main experiment item,yes,0,0,C:/Users/rrics/Documents/!!ResearchBMECOGSCI/gnet,0,0,0,prototype2.png,no,mono,no,18,no,black,no,no,768,1245,3.5.6,legacy,xpyriment,osweb,1.3.13,0,space,space,space,,16794,14411,16794,,2,legacy,1032,1920,24,1080,24,0,0,1920,1651582640439,1024,2,48000,-16,experiment,prototype5.png,0,even,Win32,198,126318,123310,198,198,410725,412228,405726,127836,405726,198,,,,,,visual_patterns,0,0,0,yes,1366
undefined,undefined,undefined,undefined,white,no,Mozilla,Netscape,"5.0 (Windows NT 10.0; Win64; x64) AppleWebKit/537.36 (KHTML, like Gecko) Chrome/101.0.4951.54 Safari/537.36",xpyriment,legacy,legacy,0,uniform,0,0,0,0,24,24,24,0,0,41,41,41,41,41,0,41,0,,,,,,0,,03-04-22,03-04-22,14:56:28,Tue May 03 2022 14:56:28 GMT+0200 (közép-európai nyári idő),The main experiment item,yes,0,0,C:/Users/rrics/Documents/!!ResearchBMECOGSCI/gnet,0,0,0,prototype2.png,no,mono,no,18,no,black,no,no,768,1245,3.5.6,legacy,xpyriment,osweb,1.3.13,0,space,space,space,,16794,14411,16794,,2,legacy,1032,1920,24,1080,24,0,0,1920,1651582640439,1024,2,48000,-16,experiment,p3sarrshacol2.png,0,even,Win32,198,126318,123310,198,198,417243,418759,412244,127836,412244,198,,,,,,visual_patterns,0,0,0,yes,1366
undefined,undefined,undefined,undefined,white,no,Mozilla,Netscape,"5.0 (Windows NT 10.0; Win64; x64) AppleWebKit/537.36 (KHTML, like Gecko) Chrome/101.0.4951.54 Safari/537.36",xpyriment,legacy,legacy,0,uniform,0,0,0,0,24,24,24,0,0,42,42,42,42,42,0,42,0,,,,,,0,,03-04-22,03-04-22,14:56:28,Tue May 03 2022 14:56:28 GMT+0200 (közép-európai nyári idő),The main experiment item,yes,0,0,C:/Users/rrics/Documents/!!ResearchBMECOGSCI/gnet,0,0,0,prototype2.png,no,mono,no,18,no,black,no,no,768,1245,3.5.6,legacy,xpyriment,osweb,1.3.13,0,space,space,space,,16794,14411,16794,,2,legacy,1032,1920,24,1080,24,0,0,1920,1651582640439,1024,2,48000,-16,experiment,p3sarrcol2.png,0,even,Win32,198,126318,123310,198,198,423786,425292,418793,127836,418793,198,,,,,,visual_patterns,0,0,0,yes,1366
undefined,undefined,undefined,undefined,white,no,Mozilla,Netscape,"5.0 (Windows NT 10.0; Win64; x64) AppleWebKit/537.36 (KHTML, like Gecko) Chrome/101.0.4951.54 Safari/537.36",xpyriment,legacy,legacy,0,uniform,0,0,0,0,24,24,24,0,0,43,43,43,43,43,0,43,0,,,,,,0,,03-04-22,03-04-22,14:56:28,Tue May 03 2022 14:56:28 GMT+0200 (közép-európai nyári idő),The main experiment item,yes,0,0,C:/Users/rrics/Documents/!!ResearchBMECOGSCI/gnet,0,0,0,prototype2.png,no,mono,no,18,no,black,no,no,768,1245,3.5.6,legacy,xpyriment,osweb,1.3.13,0,space,space,space,,16794,14411,16794,,2,legacy,1032,1920,24,1080,24,0,0,1920,1651582640439,1024,2,48000,-16,experiment,p3sarr2.png,0,even,Win32,198,126318,123310,198,198,430309,431825,425310,127836,425310,198,,,,,,visual_patterns,0,0,0,yes,1366
undefined,undefined,undefined,undefined,white,no,Mozilla,Netscape,"5.0 (Windows NT 10.0; Win64; x64) AppleWebKit/537.36 (KHTML, like Gecko) Chrome/101.0.4951.54 Safari/537.36",xpyriment,legacy,legacy,0,uniform,0,0,0,0,24,24,24,0,0,44,44,44,44,44,0,44,0,,,,,,0,,03-04-22,03-04-22,14:56:28,Tue May 03 2022 14:56:28 GMT+0200 (közép-európai nyári idő),The main experiment item,yes,0,0,C:/Users/rrics/Documents/!!ResearchBMECOGSCI/gnet,0,0,0,prototype2.png,no,mono,no,18,no,black,no,no,768,1245,3.5.6,legacy,xpyriment,osweb,1.3.13,0,space,space,space,,16794,14411,16794,,2,legacy,1032,1920,24,1080,24,0,0,1920,1651582640439,1024,2,48000,-16,experiment,p2sarrsha1.png,0,even,Win32,198,126318,123310,198,198,436836,438340,431839,127836,431839,198,,,,,,visual_patterns,0,0,0,yes,1366
undefined,undefined,undefined,undefined,white,no,Mozilla,Netscape,"5.0 (Windows NT 10.0; Win64; x64) AppleWebKit/537.36 (KHTML, like Gecko) Chrome/101.0.4951.54 Safari/537.36",xpyriment,legacy,legacy,0,uniform,0,0,0,0,24,24,24,0,0,45,45,45,45,45,0,45,0,,,,,,0,,03-04-22,03-04-22,14:56:28,Tue May 03 2022 14:56:28 GMT+0200 (közép-európai nyári idő),The main experiment item,yes,0,0,C:/Users/rrics/Documents/!!ResearchBMECOGSCI/gnet,0,0,0,prototype2.png,no,mono,no,18,no,black,no,no,768,1245,3.5.6,legacy,xpyriment,osweb,1.3.13,0,space,space,space,,16794,14411,16794,,2,legacy,1032,1920,24,1080,24,0,0,1920,1651582640439,1024,2,48000,-16,experiment,p4sarrsha1.png,0,even,Win32,198,126318,123310,198,198,443357,444864,438356,127836,438356,198,,,,,,visual_patterns,0,0,0,yes,1366
undefined,undefined,undefined,undefined,white,no,Mozilla,Netscape,"5.0 (Windows NT 10.0; Win64; x64) AppleWebKit/537.36 (KHTML, like Gecko) Chrome/101.0.4951.54 Safari/537.36",xpyriment,legacy,legacy,0,uniform,0,0,0,0,24,24,24,0,0,46,46,46,46,46,0,46,0,,,,,,0,,03-04-22,03-04-22,14:56:28,Tue May 03 2022 14:56:28 GMT+0200 (közép-európai nyári idő),The main experiment item,yes,0,0,C:/Users/rrics/Documents/!!ResearchBMECOGSCI/gnet,0,0,0,prototype2.png,no,mono,no,18,no,black,no,no,768,1245,3.5.6,legacy,xpyriment,osweb,1.3.13,0,space,space,space,,16794,14411,16794,,2,legacy,1032,1920,24,1080,24,0,0,1920,1651582640439,1024,2,48000,-16,experiment,p1sarrcol1.png,0,even,Win32,198,126318,123310,198,198,449877,451389,444881,127836,444881,198,,,,,,visual_patterns,0,0,0,yes,1366
undefined,undefined,undefined,undefined,white,no,Mozilla,Netscape,"5.0 (Windows NT 10.0; Win64; x64) AppleWebKit/537.36 (KHTML, like Gecko) Chrome/101.0.4951.54 Safari/537.36",xpyriment,legacy,legacy,0,uniform,0,0,0,0,24,24,24,0,0,47,47,47,47,47,0,47,0,,,,,,0,,03-04-22,03-04-22,14:56:28,Tue May 03 2022 14:56:28 GMT+0200 (közép-európai nyári idő),The main experiment item,yes,0,0,C:/Users/rrics/Documents/!!ResearchBMECOGSCI/gnet,0,0,0,prototype2.png,no,mono,no,18,no,black,no,no,768,1245,3.5.6,legacy,xpyriment,osweb,1.3.13,0,space,space,space,,16794,14411,16794,,2,legacy,1032,1920,24,1080,24,0,0,1920,1651582640439,1024,2,48000,-16,experiment,p1sarrsha2.png,0,even,Win32,198,126318,123310,198,198,456405,457921,451408,127836,451408,198,,,,,,visual_patterns,0,0,0,yes,1366
undefined,undefined,undefined,undefined,white,no,Mozilla,Netscape,"5.0 (Windows NT 10.0; Win64; x64) AppleWebKit/537.36 (KHTML, like Gecko) Chrome/101.0.4951.54 Safari/537.36",xpyriment,legacy,legacy,0,uniform,0,0,0,0,24,24,24,0,0,48,48,48,48,48,0,48,0,,,,,,0,,03-04-22,03-04-22,14:56:28,Tue May 03 2022 14:56:28 GMT+0200 (közép-európai nyári idő),The main experiment item,yes,0,0,C:/Users/rrics/Documents/!!ResearchBMECOGSCI/gnet,0,0,0,prototype2.png,no,mono,no,18,no,black,no,no,768,1245,3.5.6,legacy,xpyriment,osweb,1.3.13,0,space,space,space,,16794,14411,16794,,2,legacy,1032,1920,24,1080,24,0,0,1920,1651582640439,1024,2,48000,-16,experiment,p7sarr2.png,0,even,Win32,198,126318,123310,198,198,462934,464437,457937,127836,457936,198,,,,,,visual_patterns,0,0,0,yes,1366
undefined,undefined,undefined,undefined,white,no,Mozilla,Netscape,"5.0 (Windows NT 10.0; Win64; x64) AppleWebKit/537.36 (KHTML, like Gecko) Chrome/101.0.4951.54 Safari/537.36",xpyriment,legacy,legacy,0,uniform,0,0,0,0,24,24,24,0,0,49,49,49,49,49,0,49,0,,,,,,0,,03-04-22,03-04-22,14:56:28,Tue May 03 2022 14:56:28 GMT+0200 (közép-európai nyári idő),The main experiment item,yes,0,0,C:/Users/rrics/Documents/!!ResearchBMECOGSCI/gnet,0,0,0,prototype2.png,no,mono,no,18,no,black,no,no,768,1245,3.5.6,legacy,xpyriment,osweb,1.3.13,0,space,space,space,,16794,14411,16794,,2,legacy,1032,1920,24,1080,24,0,0,1920,1651582640439,1024,2,48000,-16,experiment,p4sarr1.png,0,even,Win32,198,126318,123310,198,198,469451,470953,464452,127836,464452,198,,,,,,visual_patterns,0,0,0,yes,1366
undefined,undefined,undefined,undefined,white,no,Mozilla,Netscape,"5.0 (Windows NT 10.0; Win64; x64) AppleWebKit/537.36 (KHTML, like Gecko) Chrome/101.0.4951.54 Safari/537.36",xpyriment,legacy,legacy,0,uniform,0,0,0,0,24,24,24,0,0,50,50,50,50,50,0,50,0,,,,,,0,,03-04-22,03-04-22,14:56:28,Tue May 03 2022 14:56:28 GMT+0200 (közép-európai nyári idő),The main experiment item,yes,0,0,C:/Users/rrics/Documents/!!ResearchBMECOGSCI/gnet,0,0,0,prototype2.png,no,mono,no,18,no,black,no,no,768,1245,3.5.6,legacy,xpyriment,osweb,1.3.13,0,space,space,space,,16794,14411,16794,,2,legacy,1032,1920,24,1080,24,0,0,1920,1651582640439,1024,2,48000,-16,experiment,p10sarr1.png,0,even,Win32,198,126318,123310,198,198,475964,477468,470967,127836,470967,198,,,,,,visual_patterns,0,0,0,yes,1366
undefined,undefined,undefined,undefined,white,no,Mozilla,Netscape,"5.0 (Windows NT 10.0; Win64; x64) AppleWebKit/537.36 (KHTML, like Gecko) Chrome/101.0.4951.54 Safari/537.36",xpyriment,legacy,legacy,0,uniform,0,0,0,0,24,24,24,0,0,51,51,51,51,51,0,51,0,,,,,,0,,03-04-22,03-04-22,14:56:28,Tue May 03 2022 14:56:28 GMT+0200 (közép-európai nyári idő),The main experiment item,yes,0,0,C:/Users/rrics/Documents/!!ResearchBMECOGSCI/gnet,0,0,0,prototype2.png,no,mono,no,18,no,black,no,no,768,1245,3.5.6,legacy,xpyriment,osweb,1.3.13,0,space,space,space,,16794,14411,16794,,2,legacy,1032,1920,24,1080,24,0,0,1920,1651582640439,1024,2,48000,-16,experiment,prototype3.png,0,even,Win32,198,126318,123310,198,198,482483,483988,477482,127836,477482,198,,,,,,visual_patterns,0,0,0,yes,1366
undefined,undefined,undefined,undefined,white,no,Mozilla,Netscape,"5.0 (Windows NT 10.0; Win64; x64) AppleWebKit/537.36 (KHTML, like Gecko) Chrome/101.0.4951.54 Safari/537.36",xpyriment,legacy,legacy,0,uniform,0,0,0,0,24,24,24,0,0,52,52,52,52,52,0,52,0,,,,,,0,,03-04-22,03-04-22,14:56:28,Tue May 03 2022 14:56:28 GMT+0200 (közép-európai nyári idő),The main experiment item,yes,0,0,C:/Users/rrics/Documents/!!ResearchBMECOGSCI/gnet,0,0,0,prototype2.png,no,mono,no,18,no,black,no,no,768,1245,3.5.6,legacy,xpyriment,osweb,1.3.13,0,space,space,space,,16794,14411,16794,,2,legacy,1032,1920,24,1080,24,0,0,1920,1651582640439,1024,2,48000,-16,experiment,p1sarr1.png,0,even,Win32,198,126318,123310,198,198,489011,490524,484012,127836,484012,198,,,,,,visual_patterns,0,0,0,yes,1366
undefined,undefined,undefined,undefined,white,no,Mozilla,Netscape,"5.0 (Windows NT 10.0; Win64; x64) AppleWebKit/537.36 (KHTML, like Gecko) Chrome/101.0.4951.54 Safari/537.36",xpyriment,legacy,legacy,0,uniform,0,0,0,0,24,24,24,0,0,53,53,53,53,53,0,53,0,,,,,,0,,03-04-22,03-04-22,14:56:28,Tue May 03 2022 14:56:28 GMT+0200 (közép-európai nyári idő),The main experiment item,yes,0,0,C:/Users/rrics/Documents/!!ResearchBMECOGSCI/gnet,0,0,0,prototype2.png,no,mono,no,18,no,black,no,no,768,1245,3.5.6,legacy,xpyriment,osweb,1.3.13,0,space,space,space,,16794,14411,16794,,2,legacy,1032,1920,24,1080,24,0,0,1920,1651582640439,1024,2,48000,-16,experiment,p1sarrcol2.png,0,even,Win32,198,126318,123310,198,198,495543,497056,490542,127836,490542,198,,,,,,visual_patterns,0,0,0,yes,1366
undefined,undefined,undefined,undefined,white,no,Mozilla,Netscape,"5.0 (Windows NT 10.0; Win64; x64) AppleWebKit/537.36 (KHTML, like Gecko) Chrome/101.0.4951.54 Safari/537.36",xpyriment,legacy,legacy,0,uniform,0,0,0,0,24,24,24,0,0,54,54,54,54,54,0,54,0,,,,,,0,,03-04-22,03-04-22,14:56:28,Tue May 03 2022 14:56:28 GMT+0200 (közép-európai nyári idő),The main experiment item,yes,0,0,C:/Users/rrics/Documents/!!ResearchBMECOGSCI/gnet,0,0,0,prototype2.png,no,mono,no,18,no,black,no,no,768,1245,3.5.6,legacy,xpyriment,osweb,1.3.13,0,space,space,space,,16794,14411,16794,,2,legacy,1032,1920,24,1080,24,0,0,1920,1651582640439,1024,2,48000,-16,experiment,p2sarrcol2.png,0,even,Win32,198,126318,123310,198,198,502072,503581,497072,127836,497072,198,,,,,,visual_patterns,0,0,0,yes,1366
undefined,undefined,undefined,undefined,white,no,Mozilla,Netscape,"5.0 (Windows NT 10.0; Win64; x64) AppleWebKit/537.36 (KHTML, like Gecko) Chrome/101.0.4951.54 Safari/537.36",xpyriment,legacy,legacy,0,uniform,0,0,0,0,24,24,24,0,0,55,55,55,55,55,0,55,0,,,,,,0,,03-04-22,03-04-22,14:56:28,Tue May 03 2022 14:56:28 GMT+0200 (közép-európai nyári idő),The main experiment item,yes,0,0,C:/Users/rrics/Documents/!!ResearchBMECOGSCI/gnet,0,0,0,prototype2.png,no,mono,no,18,no,black,no,no,768,1245,3.5.6,legacy,xpyriment,osweb,1.3.13,0,space,space,space,,16794,14411,16794,,2,legacy,1032,1920,24,1080,24,0,0,1920,1651582640439,1024,2,48000,-16,experiment,prototype4.png,0,even,Win32,198,126318,123310,198,198,508598,510114,503596,127836,503596,198,,,,,,visual_patterns,0,0,0,yes,1366
undefined,undefined,undefined,undefined,white,no,Mozilla,Netscape,"5.0 (Windows NT 10.0; Win64; x64) AppleWebKit/537.36 (KHTML, like Gecko) Chrome/101.0.4951.54 Safari/537.36",xpyriment,legacy,legacy,0,uniform,0,0,0,0,24,24,24,0,0,56,56,56,56,56,0,56,0,,,,,,0,,03-04-22,03-04-22,14:56:28,Tue May 03 2022 14:56:28 GMT+0200 (közép-európai nyári idő),The main experiment item,yes,0,0,C:/Users/rrics/Documents/!!ResearchBMECOGSCI/gnet,0,0,0,prototype2.png,no,mono,no,18,no,black,no,no,768,1245,3.5.6,legacy,xpyriment,osweb,1.3.13,0,space,space,space,,16794,14411,16794,,2,legacy,1032,1920,24,1080,24,0,0,1920,1651582640439,1024,2,48000,-16,experiment,p2sarrshacol1.png,0,even,Win32,198,126318,123310,198,198,515130,516646,510128,127836,510128,198,,,,,,visual_patterns,0,0,0,yes,1366
undefined,undefined,undefined,undefined,white,no,Mozilla,Netscape,"5.0 (Windows NT 10.0; Win64; x64) AppleWebKit/537.36 (KHTML, like Gecko) Chrome/101.0.4951.54 Safari/537.36",xpyriment,legacy,legacy,0,uniform,0,0,0,0,24,24,24,0,0,57,57,57,57,57,0,57,0,,,,,,0,,03-04-22,03-04-22,14:56:28,Tue May 03 2022 14:56:28 GMT+0200 (közép-európai nyári idő),The main experiment item,yes,0,0,C:/Users/rrics/Documents/!!ResearchBMECOGSCI/gnet,0,0,0,prototype2.png,no,mono,no,18,no,black,no,no,768,1245,3.5.6,legacy,xpyriment,osweb,1.3.13,0,space,space,space,,16794,14411,16794,,2,legacy,1032,1920,24,1080,24,0,0,1920,1651582640439,1024,2,48000,-16,experiment,prototype5.png,0,even,Win32,198,126318,123310,198,198,521662,523179,516658,127836,516658,198,,,,,,visual_patterns,0,0,0,yes,1366
undefined,undefined,undefined,undefined,white,no,Mozilla,Netscape,"5.0 (Windows NT 10.0; Win64; x64) AppleWebKit/537.36 (KHTML, like Gecko) Chrome/101.0.4951.54 Safari/537.36",xpyriment,legacy,legacy,0,uniform,0,0,0,0,24,24,24,0,0,58,58,58,58,58,0,58,0,,,,,,0,,03-04-22,03-04-22,14:56:28,Tue May 03 2022 14:56:28 GMT+0200 (közép-európai nyári idő),The main experiment item,yes,0,0,C:/Users/rrics/Documents/!!ResearchBMECOGSCI/gnet,0,0,0,prototype2.png,no,mono,no,18,no,black,no,no,768,1245,3.5.6,legacy,xpyriment,osweb,1.3.13,0,space,space,space,,16794,14411,16794,,2,legacy,1032,1920,24,1080,24,0,0,1920,1651582640439,1024,2,48000,-16,experiment,prototype2.png,0,even,Win32,198,126318,123310,198,198,528195,529711,523204,127836,523204,198,,,,,,visual_patterns,0,0,0,yes,1366
undefined,undefined,undefined,undefined,white,no,Mozilla,Netscape,"5.0 (Windows NT 10.0; Win64; x64) AppleWebKit/537.36 (KHTML, like Gecko) Chrome/101.0.4951.54 Safari/537.36",xpyriment,legacy,legacy,0,uniform,0,0,0,0,24,24,24,0,0,59,59,59,59,59,0,59,0,,,,,,0,,03-04-22,03-04-22,14:56:28,Tue May 03 2022 14:56:28 GMT+0200 (közép-európai nyári idő),The main experiment item,yes,0,0,C:/Users/rrics/Documents/!!ResearchBMECOGSCI/gnet,0,0,0,prototype2.png,no,mono,no,18,no,black,no,no,768,1245,3.5.6,legacy,xpyriment,osweb,1.3.13,0,space,space,space,,16794,14411,16794,,2,legacy,1032,1920,24,1080,24,0,0,1920,1651582640439,1024,2,48000,-16,experiment,prototype5.png,0,even,Win32,198,126318,123310,198,198,534728,536231,529725,127836,529724,198,,,,,,visual_patterns,0,0,0,yes,1366
undefined,undefined,undefined,undefined,white,no,Mozilla,Netscape,"5.0 (Windows NT 10.0; Win64; x64) AppleWebKit/537.36 (KHTML, like Gecko) Chrome/101.0.4951.54 Safari/537.36",xpyriment,legacy,legacy,0,uniform,0,0,0,0,24,24,24,0,0,60,60,60,60,60,0,60,0,,,,,,0,,03-04-22,03-04-22,14:56:28,Tue May 03 2022 14:56:28 GMT+0200 (közép-európai nyári idő),The main experiment item,yes,0,0,C:/Users/rrics/Documents/!!ResearchBMECOGSCI/gnet,0,0,0,prototype2.png,no,mono,no,18,no,black,no,no,768,1245,3.5.6,legacy,xpyriment,osweb,1.3.13,0,space,space,space,,16794,14411,16794,,2,legacy,1032,1920,24,1080,24,0,0,1920,1651582640439,1024,2,48000,-16,experiment,p1sarrshacol2.png,0,even,Win32,198,126318,123310,198,198,541248,542759,536246,127836,536246,198,,,,,,visual_patterns,0,0,0,yes,1366
undefined,undefined,undefined,undefined,white,no,Mozilla,Netscape,"5.0 (Windows NT 10.0; Win64; x64) AppleWebKit/537.36 (KHTML, like Gecko) Chrome/101.0.4951.54 Safari/537.36",xpyriment,legacy,legacy,0,uniform,0,0,0,0,24,24,24,0,0,61,61,61,61,61,0,61,0,,,,,,0,,03-04-22,03-04-22,14:56:28,Tue May 03 2022 14:56:28 GMT+0200 (közép-európai nyári idő),The main experiment item,yes,0,0,C:/Users/rrics/Documents/!!ResearchBMECOGSCI/gnet,0,0,0,prototype2.png,no,mono,no,18,no,black,no,no,768,1245,3.5.6,legacy,xpyriment,osweb,1.3.13,0,space,space,space,,16794,14411,16794,,2,legacy,1032,1920,24,1080,24,0,0,1920,1651582640439,1024,2,48000,-16,experiment,p2sarrcol1.png,0,even,Win32,198,126318,123310,198,198,547772,549275,542772,127836,542772,198,,,,,,visual_patterns,0,0,0,yes,1366
undefined,undefined,undefined,undefined,white,no,Mozilla,Netscape,"5.0 (Windows NT 10.0; Win64; x64) AppleWebKit/537.36 (KHTML, like Gecko) Chrome/101.0.4951.54 Safari/537.36",xpyriment,legacy,legacy,0,uniform,0,0,0,0,24,24,24,0,0,62,62,62,62,62,0,62,0,,,,,,0,,03-04-22,03-04-22,14:56:28,Tue May 03 2022 14:56:28 GMT+0200 (közép-európai nyári idő),The main experiment item,yes,0,0,C:/Users/rrics/Documents/!!ResearchBMECOGSCI/gnet,0,0,0,prototype2.png,no,mono,no,18,no,black,no,no,768,1245,3.5.6,legacy,xpyriment,osweb,1.3.13,0,space,space,space,,16794,14411,16794,,2,legacy,1032,1920,24,1080,24,0,0,1920,1651582640439,1024,2,48000,-16,experiment,p5sarr2.png,0,even,Win32,198,126318,123310,198,198,554292,555807,549290,127836,549290,198,,,,,,visual_patterns,0,0,0,yes,1366
undefined,undefined,undefined,undefined,white,no,Mozilla,Netscape,"5.0 (Windows NT 10.0; Win64; x64) AppleWebKit/537.36 (KHTML, like Gecko) Chrome/101.0.4951.54 Safari/537.36",xpyriment,legacy,legacy,0,uniform,0,0,0,0,24,24,24,0,0,63,63,63,63,63,0,63,0,,,,,,0,,03-04-22,03-04-22,14:56:28,Tue May 03 2022 14:56:28 GMT+0200 (közép-európai nyári idő),The main experiment item,yes,0,0,C:/Users/rrics/Documents/!!ResearchBMECOGSCI/gnet,0,0,0,prototype2.png,no,mono,no,18,no,black,no,no,768,1245,3.5.6,legacy,xpyriment,osweb,1.3.13,0,space,space,space,,16794,14411,16794,,2,legacy,1032,1920,24,1080,24,0,0,1920,1651582640439,1024,2,48000,-16,experiment,p10sarr2.png,0,even,Win32,198,126318,123310,198,198,560822,562323,555828,127836,555827,198,,,,,,visual_patterns,0,0,0,yes,1366
undefined,undefined,undefined,undefined,white,no,Mozilla,Netscape,"5.0 (Windows NT 10.0; Win64; x64) AppleWebKit/537.36 (KHTML, like Gecko) Chrome/101.0.4951.54 Safari/537.36",xpyriment,legacy,legacy,0,uniform,0,0,0,0,24,24,24,0,0,64,64,64,64,64,0,64,0,,,,,,0,,03-04-22,03-04-22,14:56:28,Tue May 03 2022 14:56:28 GMT+0200 (közép-európai nyári idő),The main experiment item,yes,0,0,C:/Users/rrics/Documents/!!ResearchBMECOGSCI/gnet,0,0,0,prototype2.png,no,mono,no,18,no,black,no,no,768,1245,3.5.6,legacy,xpyriment,osweb,1.3.13,0,space,space,space,,16794,14411,16794,,2,legacy,1032,1920,24,1080,24,0,0,1920,1651582640439,1024,2,48000,-16,experiment,prototype1.png,0,even,Win32,198,126318,123310,198,198,567338,568839,562336,127836,562336,198,,,,,,visual_patterns,0,0,0,yes,1366
undefined,undefined,undefined,undefined,white,no,Mozilla,Netscape,"5.0 (Windows NT 10.0; Win64; x64) AppleWebKit/537.36 (KHTML, like Gecko) Chrome/101.0.4951.54 Safari/537.36",xpyriment,legacy,legacy,0,uniform,0,0,0,0,24,24,24,0,0,65,65,65,65,65,0,65,0,,,,,,0,,03-04-22,03-04-22,14:56:28,Tue May 03 2022 14:56:28 GMT+0200 (közép-európai nyári idő),The main experiment item,yes,0,0,C:/Users/rrics/Documents/!!ResearchBMECOGSCI/gnet,0,0,0,prototype2.png,no,mono,no,18,no,black,no,no,768,1245,3.5.6,legacy,xpyriment,osweb,1.3.13,0,space,space,space,,16794,14411,16794,,2,legacy,1032,1920,24,1080,24,0,0,1920,1651582640439,1024,2,48000,-16,experiment,prototype4.png,0,even,Win32,198,126318,123310,198,198,573854,575362,568851,127836,568851,198,,,,,,visual_patterns,0,0,0,yes,1366
undefined,undefined,undefined,undefined,white,no,Mozilla,Netscape,"5.0 (Windows NT 10.0; Win64; x64) AppleWebKit/537.36 (KHTML, like Gecko) Chrome/101.0.4951.54 Safari/537.36",xpyriment,legacy,legacy,0,uniform,0,0,0,0,24,24,24,0,0,66,66,66,66,66,0,66,0,,,,,,0,,03-04-22,03-04-22,14:56:28,Tue May 03 2022 14:56:28 GMT+0200 (közép-európai nyári idő),The main experiment item,yes,0,0,C:/Users/rrics/Documents/!!ResearchBMECOGSCI/gnet,0,0,0,prototype2.png,no,mono,no,18,no,black,no,no,768,1245,3.5.6,legacy,xpyriment,osweb,1.3.13,0,space,space,space,,16794,14411,16794,,2,legacy,1032,1920,24,1080,24,0,0,1920,1651582640439,1024,2,48000,-16,experiment,p2sarrshacol2.png,0,even,Win32,198,126318,123310,198,198,580376,581887,575379,127836,575379,198,,,,,,visual_patterns,0,0,0,yes,1366
undefined,undefined,undefined,undefined,white,no,Mozilla,Netscape,"5.0 (Windows NT 10.0; Win64; x64) AppleWebKit/537.36 (KHTML, like Gecko) Chrome/101.0.4951.54 Safari/537.36",xpyriment,legacy,legacy,0,uniform,0,0,0,0,24,24,24,0,0,67,67,67,67,67,0,67,0,,,,,,0,,03-04-22,03-04-22,14:56:28,Tue May 03 2022 14:56:28 GMT+0200 (közép-európai nyári idő),The main experiment item,yes,0,0,C:/Users/rrics/Documents/!!ResearchBMECOGSCI/gnet,0,0,0,prototype2.png,no,mono,no,18,no,black,no,no,768,1245,3.5.6,legacy,xpyriment,osweb,1.3.13,0,space,space,space,,16794,14411,16794,,2,legacy,1032,1920,24,1080,24,0,0,1920,1651582640439,1024,2,48000,-16,experiment,p1sarr2.png,0,even,Win32,198,126318,123310,198,198,586903,588410,581903,127836,581903,198,,,,,,visual_patterns,0,0,0,yes,1366
undefined,undefined,undefined,undefined,white,no,Mozilla,Netscape,"5.0 (Windows NT 10.0; Win64; x64) AppleWebKit/537.36 (KHTML, like Gecko) Chrome/101.0.4951.54 Safari/537.36",xpyriment,legacy,legacy,0,uniform,0,0,0,0,24,24,24,0,0,68,68,68,68,68,0,68,0,,,,,,0,,03-04-22,03-04-22,14:56:28,Tue May 03 2022 14:56:28 GMT+0200 (közép-európai nyári idő),The main experiment item,yes,0,0,C:/Users/rrics/Documents/!!ResearchBMECOGSCI/gnet,0,0,0,prototype2.png,no,mono,no,18,no,black,no,no,768,1245,3.5.6,legacy,xpyriment,osweb,1.3.13,0,space,space,space,,16794,14411,16794,,2,legacy,1032,1920,24,1080,24,0,0,1920,1651582640439,1024,2,48000,-16,experiment,p6sarr2.png,0,even,Win32,198,126318,123310,198,198,593429,594935,588430,127836,588429,198,,,,,,visual_patterns,0,0,0,yes,1366
undefined,undefined,undefined,undefined,white,no,Mozilla,Netscape,"5.0 (Windows NT 10.0; Win64; x64) AppleWebKit/537.36 (KHTML, like Gecko) Chrome/101.0.4951.54 Safari/537.36",xpyriment,legacy,legacy,0,uniform,0,0,0,0,24,24,24,0,0,69,69,69,69,69,0,69,0,,,,,,0,,03-04-22,03-04-22,14:56:28,Tue May 03 2022 14:56:28 GMT+0200 (közép-európai nyári idő),The main experiment item,yes,0,0,C:/Users/rrics/Documents/!!ResearchBMECOGSCI/gnet,0,0,0,prototype2.png,no,mono,no,18,no,black,no,no,768,1245,3.5.6,legacy,xpyriment,osweb,1.3.13,0,space,space,space,,16794,14411,16794,,2,legacy,1032,1920,24,1080,24,0,0,1920,1651582640439,1024,2,48000,-16,experiment,prototype2.png,0,even,Win32,198,126318,123310,198,198,599948,601451,594949,127836,594949,198,,,,,,visual_patterns,0,0,0,yes,1366
undefined,undefined,undefined,undefined,white,no,Mozilla,Netscape,"5.0 (Windows NT 10.0; Win64; x64) AppleWebKit/537.36 (KHTML, like Gecko) Chrome/101.0.4951.54 Safari/537.36",xpyriment,legacy,legacy,0,uniform,0,0,0,0,24,24,24,0,0,70,70,70,70,70,0,70,0,,,,,,0,,03-04-22,03-04-22,14:56:28,Tue May 03 2022 14:56:28 GMT+0200 (közép-európai nyári idő),The main experiment item,yes,0,0,C:/Users/rrics/Documents/!!ResearchBMECOGSCI/gnet,0,0,0,prototype2.png,no,mono,no,18,no,black,no,no,768,1245,3.5.6,legacy,xpyriment,osweb,1.3.13,0,space,space,space,,16794,14411,16794,,2,legacy,1032,1920,24,1080,24,0,0,1920,1651582640439,1024,2,48000,-16,experiment,p1sarrshacol1.png,0,even,Win32,198,126318,123310,198,198,606463,607975,601466,127836,601466,198,,,,,,visual_patterns,0,0,0,yes,1366
undefined,undefined,undefined,undefined,white,no,Mozilla,Netscape,"5.0 (Windows NT 10.0; Win64; x64) AppleWebKit/537.36 (KHTML, like Gecko) Chrome/101.0.4951.54 Safari/537.36",xpyriment,legacy,legacy,0,uniform,0,0,0,0,24,24,24,0,0,71,71,71,71,71,0,71,0,,,,,,0,,03-04-22,03-04-22,14:56:28,Tue May 03 2022 14:56:28 GMT+0200 (közép-európai nyári idő),The main experiment item,yes,0,0,C:/Users/rrics/Documents/!!ResearchBMECOGSCI/gnet,0,0,0,prototype2.png,no,mono,no,18,no,black,no,no,768,1245,3.5.6,legacy,xpyriment,osweb,1.3.13,0,space,space,space,,16794,14411,16794,,2,legacy,1032,1920,24,1080,24,0,0,1920,1651582640439,1024,2,48000,-16,experiment,prototype1.png,0,even,Win32,198,126318,123310,198,198,612994,614499,607986,127836,607986,198,,,,,,visual_patterns,0,0,0,yes,1366
undefined,undefined,undefined,undefined,white,no,Mozilla,Netscape,"5.0 (Windows NT 10.0; Win64; x64) AppleWebKit/537.36 (KHTML, like Gecko) Chrome/101.0.4951.54 Safari/537.36",xpyriment,legacy,legacy,0,uniform,0,0,0,0,24,24,24,0,0,72,72,72,72,72,0,72,0,,,,,,0,,03-04-22,03-04-22,14:56:28,Tue May 03 2022 14:56:28 GMT+0200 (közép-európai nyári idő),The main experiment item,yes,0,0,C:/Users/rrics/Documents/!!ResearchBMECOGSCI/gnet,0,0,0,prototype2.png,no,mono,no,18,no,black,no,no,768,1245,3.5.6,legacy,xpyriment,osweb,1.3.13,0,space,space,space,,16794,14411,16794,,2,legacy,1032,1920,24,1080,24,0,0,1920,1651582640439,1024,2,48000,-16,experiment,prototype5.png,0,even,Win32,198,126318,123310,198,198,619516,621032,614512,127836,614512,198,,,,,,visual_patterns,0,0,0,yes,1366
undefined,undefined,undefined,undefined,white,no,Mozilla,Netscape,"5.0 (Windows NT 10.0; Win64; x64) AppleWebKit/537.36 (KHTML, like Gecko) Chrome/101.0.4951.54 Safari/537.36",xpyriment,legacy,legacy,0,uniform,0,0,0,0,24,24,24,0,0,73,73,73,73,73,0,73,0,,,,,,0,,03-04-22,03-04-22,14:56:28,Tue May 03 2022 14:56:28 GMT+0200 (közép-európai nyári idő),The main experiment item,yes,0,0,C:/Users/rrics/Documents/!!ResearchBMECOGSCI/gnet,0,0,0,prototype2.png,no,mono,no,18,no,black,no,no,768,1245,3.5.6,legacy,xpyriment,osweb,1.3.13,0,space,space,space,,16794,14411,16794,,2,legacy,1032,1920,24,1080,24,0,0,1920,1651582640439,1024,2,48000,-16,experiment,prototype3.png,0,even,Win32,198,126318,123310,198,198,626048,627564,621047,127836,621047,198,,,,,,visual_patterns,0,0,0,yes,1366
undefined,undefined,undefined,undefined,white,no,Mozilla,Netscape,"5.0 (Windows NT 10.0; Win64; x64) AppleWebKit/537.36 (KHTML, like Gecko) Chrome/101.0.4951.54 Safari/537.36",xpyriment,legacy,legacy,0,uniform,0,0,0,0,24,24,24,0,0,74,74,74,74,74,0,74,0,,,,,,0,,03-04-22,03-04-22,14:56:28,Tue May 03 2022 14:56:28 GMT+0200 (közép-európai nyári idő),The main experiment item,yes,0,0,C:/Users/rrics/Documents/!!ResearchBMECOGSCI/gnet,0,0,0,prototype2.png,no,mono,no,18,no,black,no,no,768,1245,3.5.6,legacy,xpyriment,osweb,1.3.13,0,space,space,space,,16794,14411,16794,,2,legacy,1032,1920,24,1080,24,0,0,1920,1651582640439,1024,2,48000,-16,experiment,prototype2.png,0,even,Win32,198,126318,123310,198,198,632580,634104,627576,127836,627576,198,,,,,,visual_patterns,0,0,0,yes,1366
undefined,undefined,undefined,undefined,white,no,Mozilla,Netscape,"5.0 (Windows NT 10.0; Win64; x64) AppleWebKit/537.36 (KHTML, like Gecko) Chrome/101.0.4951.54 Safari/537.36",xpyriment,legacy,legacy,0,uniform,0,0,0,0,24,24,24,0,0,74,74,74,74,74,0,74,0,0,0,0,0,0,0,0,03-04-22,03-04-22,14:56:28,Tue May 03 2022 14:56:28 GMT+0200 (közép-európai nyári idő),The main experiment item,yes,0,0,C:/Users/rrics/Documents/!!ResearchBMECOGSCI/gnet,0,0,0,prototype2.png,no,mono,no,18,no,black,no,no,768,1245,3.5.6,legacy,xpyriment,osweb,1.3.13,0,space,space,space,space,13297,14411,16794,13297,2,legacy,1032,1920,24,1080,24,0,0,1920,1651582640439,1024,2,48000,-16,experiment,p5sarrsha3.png,0,even,Win32,198,126318,123310,198,198,632580,634104,627576,127836,627576,198,650445,651961,647446,634109,647446,visual_patterns,0,0,0,yes,1366
undefined,undefined,undefined,undefined,white,no,Mozilla,Netscape,"5.0 (Windows NT 10.0; Win64; x64) AppleWebKit/537.36 (KHTML, like Gecko) Chrome/101.0.4951.54 Safari/537.36",xpyriment,legacy,legacy,0,uniform,0,0,0,0,24,24,24,0,0,74,74,74,74,74,0,74,0,1,1,1,1,1,0,1,03-04-22,03-04-22,14:56:28,Tue May 03 2022 14:56:28 GMT+0200 (közép-európai nyári idő),The main experiment item,yes,0,0,C:/Users/rrics/Documents/!!ResearchBMECOGSCI/gnet,0,0,0,prototype2.png,no,mono,no,18,no,black,no,no,768,1245,3.5.6,legacy,xpyriment,osweb,1.3.13,0,space,space,space,space,13297,14411,16794,13297,2,legacy,1032,1920,24,1080,24,0,0,1920,1651582640439,1024,2,48000,-16,experiment,p2sarrshacol1.png,0,even,Win32,198,126318,123310,198,198,632580,634104,627576,127836,627576,198,654978,656494,651976,634109,651976,visual_patterns,0,0,0,yes,1366
undefined,undefined,undefined,undefined,white,no,Mozilla,Netscape,"5.0 (Windows NT 10.0; Win64; x64) AppleWebKit/537.36 (KHTML, like Gecko) Chrome/101.0.4951.54 Safari/537.36",xpyriment,legacy,legacy,0,uniform,0,0,0,0,24,24,24,0,0,74,74,74,74,74,0,74,0,2,2,2,2,2,0,2,03-04-22,03-04-22,14:56:28,Tue May 03 2022 14:56:28 GMT+0200 (közép-európai nyári idő),The main experiment item,yes,0,0,C:/Users/rrics/Documents/!!ResearchBMECOGSCI/gnet,0,0,0,prototype2.png,no,mono,no,18,no,black,no,no,768,1245,3.5.6,legacy,xpyriment,osweb,1.3.13,0,space,space,space,space,13297,14411,16794,13297,2,legacy,1032,1920,24,1080,24,0,0,1920,1651582640439,1024,2,48000,-16,experiment,p4sarr4.png,0,even,Win32,198,126318,123310,198,198,632580,634104,627576,127836,627576,198,659510,661026,656515,634109,656515,visual_patterns,0,0,0,yes,1366
undefined,undefined,undefined,undefined,white,no,Mozilla,Netscape,"5.0 (Windows NT 10.0; Win64; x64) AppleWebKit/537.36 (KHTML, like Gecko) Chrome/101.0.4951.54 Safari/537.36",xpyriment,legacy,legacy,0,uniform,0,0,0,0,24,24,24,0,0,74,74,74,74,74,0,74,0,3,3,3,3,3,0,3,03-04-22,03-04-22,14:56:28,Tue May 03 2022 14:56:28 GMT+0200 (közép-európai nyári idő),The main experiment item,yes,0,0,C:/Users/rrics/Documents/!!ResearchBMECOGSCI/gnet,0,0,0,prototype2.png,no,mono,no,18,no,black,no,no,768,1245,3.5.6,legacy,xpyriment,osweb,1.3.13,0,space,space,space,space,13297,14411,16794,13297,2,legacy,1032,1920,24,1080,24,0,0,1920,1651582640439,1024,2,48000,-16,experiment,p5sarrsha2.png,0,even,Win32,198,126318,123310,198,198,632580,634104,627576,127836,627576,198,664040,665543,661040,634109,661040,visual_patterns,0,0,0,yes,1366
undefined,undefined,undefined,undefined,white,no,Mozilla,Netscape,"5.0 (Windows NT 10.0; Win64; x64) AppleWebKit/537.36 (KHTML, like Gecko) Chrome/101.0.4951.54 Safari/537.36",xpyriment,legacy,legacy,0,uniform,0,0,0,0,24,24,24,0,0,74,74,74,74,74,0,74,0,4,4,4,4,4,0,4,03-04-22,03-04-22,14:56:28,Tue May 03 2022 14:56:28 GMT+0200 (közép-európai nyári idő),The main experiment item,yes,0,0,C:/Users/rrics/Documents/!!ResearchBMECOGSCI/gnet,0,0,0,prototype2.png,no,mono,no,18,no,black,no,no,768,1245,3.5.6,legacy,xpyriment,osweb,1.3.13,0,space,space,space,space,13297,14411,16794,13297,2,legacy,1032,1920,24,1080,24,0,0,1920,1651582640439,1024,2,48000,-16,experiment,p7sarr2.png,0,even,Win32,198,126318,123310,198,198,632580,634104,627576,127836,627576,198,668558,670086,665560,634109,665560,visual_patterns,0,0,0,yes,1366
undefined,undefined,undefined,undefined,white,no,Mozilla,Netscape,"5.0 (Windows NT 10.0; Win64; x64) AppleWebKit/537.36 (KHTML, like Gecko) Chrome/101.0.4951.54 Safari/537.36",xpyriment,legacy,legacy,0,uniform,0,0,0,0,24,24,24,0,0,74,74,74,74,74,0,74,0,5,5,5,5,5,0,5,03-04-22,03-04-22,14:56:28,Tue May 03 2022 14:56:28 GMT+0200 (közép-európai nyári idő),The main experiment item,yes,0,0,C:/Users/rrics/Documents/!!ResearchBMECOGSCI/gnet,0,0,0,prototype2.png,no,mono,no,18,no,black,no,no,768,1245,3.5.6,legacy,xpyriment,osweb,1.3.13,0,space,space,space,space,13297,14411,16794,13297,2,legacy,1032,1920,24,1080,24,0,0,1920,1651582640439,1024,2,48000,-16,experiment,p1sarrsha4.png,0,even,Win32,198,126318,123310,198,198,632580,634104,627576,127836,627576,198,673105,674607,670106,634109,670106,visual_patterns,0,0,0,yes,1366
undefined,undefined,undefined,undefined,white,no,Mozilla,Netscape,"5.0 (Windows NT 10.0; Win64; x64) AppleWebKit/537.36 (KHTML, like Gecko) Chrome/101.0.4951.54 Safari/537.36",xpyriment,legacy,legacy,0,uniform,0,0,0,0,24,24,24,0,0,74,74,74,74,74,0,74,0,6,6,6,6,6,0,6,03-04-22,03-04-22,14:56:28,Tue May 03 2022 14:56:28 GMT+0200 (közép-európai nyári idő),The main experiment item,yes,0,0,C:/Users/rrics/Documents/!!ResearchBMECOGSCI/gnet,0,0,0,prototype2.png,no,mono,no,18,no,black,no,no,768,1245,3.5.6,legacy,xpyriment,osweb,1.3.13,0,space,space,space,space,13297,14411,16794,13297,2,legacy,1032,1920,24,1080,24,0,0,1920,1651582640439,1024,2,48000,-16,experiment,p3sarrcol2.png,0,even,Win32,198,126318,123310,198,198,632580,634104,627576,127836,627576,198,677624,679140,674621,634109,674621,visual_patterns,0,0,0,yes,1366
undefined,undefined,undefined,undefined,white,no,Mozilla,Netscape,"5.0 (Windows NT 10.0; Win64; x64) AppleWebKit/537.36 (KHTML, like Gecko) Chrome/101.0.4951.54 Safari/537.36",xpyriment,legacy,legacy,0,uniform,0,0,0,0,24,24,24,0,0,74,74,74,74,74,0,74,0,7,7,7,7,7,0,7,03-04-22,03-04-22,14:56:28,Tue May 03 2022 14:56:28 GMT+0200 (közép-európai nyári idő),The main experiment item,yes,0,0,C:/Users/rrics/Documents/!!ResearchBMECOGSCI/gnet,0,0,0,prototype2.png,no,mono,no,18,no,black,no,no,768,1245,3.5.6,legacy,xpyriment,osweb,1.3.13,0,space,space,space,space,13297,14411,16794,13297,2,legacy,1032,1920,24,1080,24,0,0,1920,1651582640439,1024,2,48000,-16,experiment,p3sarrcol3.png,0,even,Win32,198,126318,123310,198,198,632580,634104,627576,127836,627576,198,682154,683656,679159,634109,679159,visual_patterns,0,0,0,yes,1366
undefined,undefined,undefined,undefined,white,no,Mozilla,Netscape,"5.0 (Windows NT 10.0; Win64; x64) AppleWebKit/537.36 (KHTML, like Gecko) Chrome/101.0.4951.54 Safari/537.36",xpyriment,legacy,legacy,0,uniform,0,0,0,0,24,24,24,0,0,74,74,74,74,74,0,74,0,8,8,8,8,8,0,8,03-04-22,03-04-22,14:56:28,Tue May 03 2022 14:56:28 GMT+0200 (közép-európai nyári idő),The main experiment item,yes,0,0,C:/Users/rrics/Documents/!!ResearchBMECOGSCI/gnet,0,0,0,prototype2.png,no,mono,no,18,no,black,no,no,768,1245,3.5.6,legacy,xpyriment,osweb,1.3.13,0,space,space,space,space,13297,14411,16794,13297,2,legacy,1032,1920,24,1080,24,0,0,1920,1651582640439,1024,2,48000,-16,experiment,p1sarrsha1.png,0,even,Win32,198,126318,123310,198,198,632580,634104,627576,127836,627576,198,686673,688189,683672,634109,683672,visual_patterns,0,0,0,yes,1366
undefined,undefined,undefined,undefined,white,no,Mozilla,Netscape,"5.0 (Windows NT 10.0; Win64; x64) AppleWebKit/537.36 (KHTML, like Gecko) Chrome/101.0.4951.54 Safari/537.36",xpyriment,legacy,legacy,0,uniform,0,0,0,0,24,24,24,0,0,74,74,74,74,74,0,74,0,9,9,9,9,9,0,9,03-04-22,03-04-22,14:56:28,Tue May 03 2022 14:56:28 GMT+0200 (közép-európai nyári idő),The main experiment item,yes,0,0,C:/Users/rrics/Documents/!!ResearchBMECOGSCI/gnet,0,0,0,prototype2.png,no,mono,no,18,no,black,no,no,768,1245,3.5.6,legacy,xpyriment,osweb,1.3.13,0,space,space,space,space,13297,14411,16794,13297,2,legacy,1032,1920,24,1080,24,0,0,1920,1651582640439,1024,2,48000,-16,experiment,p4sarr1.png,0,even,Win32,198,126318,123310,198,198,632580,634104,627576,127836,627576,198,691210,692722,688204,634109,688204,visual_patterns,0,0,0,yes,1366
undefined,undefined,undefined,undefined,white,no,Mozilla,Netscape,"5.0 (Windows NT 10.0; Win64; x64) AppleWebKit/537.36 (KHTML, like Gecko) Chrome/101.0.4951.54 Safari/537.36",xpyriment,legacy,legacy,0,uniform,0,0,0,0,24,24,24,0,0,74,74,74,74,74,0,74,0,10,10,10,10,10,0,10,03-04-22,03-04-22,14:56:28,Tue May 03 2022 14:56:28 GMT+0200 (közép-európai nyári idő),The main experiment item,yes,0,0,C:/Users/rrics/Documents/!!ResearchBMECOGSCI/gnet,0,0,0,prototype2.png,no,mono,no,18,no,black,no,no,768,1245,3.5.6,legacy,xpyriment,osweb,1.3.13,0,space,space,space,space,13297,14411,16794,13297,2,legacy,1032,1920,24,1080,24,0,0,1920,1651582640439,1024,2,48000,-16,experiment,p9sarr2.png,0,even,Win32,198,126318,123310,198,198,632580,634104,627576,127836,627576,198,695738,697254,692742,634109,692742,visual_patterns,0,0,0,yes,1366
undefined,undefined,undefined,undefined,white,no,Mozilla,Netscape,"5.0 (Windows NT 10.0; Win64; x64) AppleWebKit/537.36 (KHTML, like Gecko) Chrome/101.0.4951.54 Safari/537.36",xpyriment,legacy,legacy,0,uniform,0,0,0,0,24,24,24,0,0,74,74,74,74,74,0,74,0,11,11,11,11,11,0,11,03-04-22,03-04-22,14:56:28,Tue May 03 2022 14:56:28 GMT+0200 (közép-európai nyári idő),The main experiment item,yes,0,0,C:/Users/rrics/Documents/!!ResearchBMECOGSCI/gnet,0,0,0,prototype2.png,no,mono,no,18,no,black,no,no,768,1245,3.5.6,legacy,xpyriment,osweb,1.3.13,0,space,space,space,space,13297,14411,16794,13297,2,legacy,1032,1920,24,1080,24,0,0,1920,1651582640439,1024,2,48000,-16,experiment,p1sarr2.png,0,even,Win32,198,126318,123310,198,198,632580,634104,627576,127836,627576,198,700271,701787,697271,634109,697271,visual_patterns,0,0,0,yes,1366
undefined,undefined,undefined,undefined,white,no,Mozilla,Netscape,"5.0 (Windows NT 10.0; Win64; x64) AppleWebKit/537.36 (KHTML, like Gecko) Chrome/101.0.4951.54 Safari/537.36",xpyriment,legacy,legacy,0,uniform,0,0,0,0,24,24,24,0,0,74,74,74,74,74,0,74,0,12,12,12,12,12,0,12,03-04-22,03-04-22,14:56:28,Tue May 03 2022 14:56:28 GMT+0200 (közép-európai nyári idő),The main experiment item,yes,0,0,C:/Users/rrics/Documents/!!ResearchBMECOGSCI/gnet,0,0,0,prototype2.png,no,mono,no,18,no,black,no,no,768,1245,3.5.6,legacy,xpyriment,osweb,1.3.13,0,space,space,space,space,13297,14411,16794,13297,2,legacy,1032,1920,24,1080,24,0,0,1920,1651582640439,1024,2,48000,-16,experiment,p3sarrcol4.png,0,even,Win32,198,126318,123310,198,198,632580,634104,627576,127836,627576,198,704804,706320,701804,634109,701804,visual_patterns,0,0,0,yes,1366
undefined,undefined,undefined,undefined,white,no,Mozilla,Netscape,"5.0 (Windows NT 10.0; Win64; x64) AppleWebKit/537.36 (KHTML, like Gecko) Chrome/101.0.4951.54 Safari/537.36",xpyriment,legacy,legacy,0,uniform,0,0,0,0,24,24,24,0,0,74,74,74,74,74,0,74,0,13,13,13,13,13,0,13,03-04-22,03-04-22,14:56:28,Tue May 03 2022 14:56:28 GMT+0200 (közép-európai nyári idő),The main experiment item,yes,0,0,C:/Users/rrics/Documents/!!ResearchBMECOGSCI/gnet,0,0,0,prototype2.png,no,mono,no,18,no,black,no,no,768,1245,3.5.6,legacy,xpyriment,osweb,1.3.13,0,space,space,space,space,13297,14411,16794,13297,2,legacy,1032,1920,24,1080,24,0,0,1920,1651582640439,1024,2,48000,-16,experiment,p2sarrshacol2.png,0,even,Win32,198,126318,123310,198,198,632580,634104,627576,127836,627576,198,709336,710853,706334,634109,706334,visual_patterns,0,0,0,yes,1366
undefined,undefined,undefined,undefined,white,no,Mozilla,Netscape,"5.0 (Windows NT 10.0; Win64; x64) AppleWebKit/537.36 (KHTML, like Gecko) Chrome/101.0.4951.54 Safari/537.36",xpyriment,legacy,legacy,0,uniform,0,0,0,0,24,24,24,0,0,74,74,74,74,74,0,74,0,14,14,14,14,14,0,14,03-04-22,03-04-22,14:56:28,Tue May 03 2022 14:56:28 GMT+0200 (közép-európai nyári idő),The main experiment item,yes,0,0,C:/Users/rrics/Documents/!!ResearchBMECOGSCI/gnet,0,0,0,prototype2.png,no,mono,no,18,no,black,no,no,768,1245,3.5.6,legacy,xpyriment,osweb,1.3.13,0,space,space,space,space,13297,14411,16794,13297,2,legacy,1032,1920,24,1080,24,0,0,1920,1651582640439,1024,2,48000,-16,experiment,p6sarr1.png,0,even,Win32,198,126318,123310,198,198,632580,634104,627576,127836,627576,198,713874,715390,710875,634109,710874,visual_patterns,0,0,0,yes,1366
undefined,undefined,undefined,undefined,white,no,Mozilla,Netscape,"5.0 (Windows NT 10.0; Win64; x64) AppleWebKit/537.36 (KHTML, like Gecko) Chrome/101.0.4951.54 Safari/537.36",xpyriment,legacy,legacy,0,uniform,0,0,0,0,24,24,24,0,0,74,74,74,74,74,0,74,0,15,15,15,15,15,0,15,03-04-22,03-04-22,14:56:28,Tue May 03 2022 14:56:28 GMT+0200 (közép-európai nyári idő),The main experiment item,yes,0,0,C:/Users/rrics/Documents/!!ResearchBMECOGSCI/gnet,0,0,0,prototype2.png,no,mono,no,18,no,black,no,no,768,1245,3.5.6,legacy,xpyriment,osweb,1.3.13,0,space,space,space,space,13297,14411,16794,13297,2,legacy,1032,1920,24,1080,24,0,0,1920,1651582640439,1024,2,48000,-16,experiment,p4sarrshacol3.png,0,even,Win32,198,126318,123310,198,198,632580,634104,627576,127836,627576,198,718413,719918,715409,634109,715409,visual_patterns,0,0,0,yes,1366
undefined,undefined,undefined,undefined,white,no,Mozilla,Netscape,"5.0 (Windows NT 10.0; Win64; x64) AppleWebKit/537.36 (KHTML, like Gecko) Chrome/101.0.4951.54 Safari/537.36",xpyriment,legacy,legacy,0,uniform,0,0,0,0,24,24,24,0,0,74,74,74,74,74,0,74,0,16,16,16,16,16,0,16,03-04-22,03-04-22,14:56:28,Tue May 03 2022 14:56:28 GMT+0200 (közép-európai nyári idő),The main experiment item,yes,0,0,C:/Users/rrics/Documents/!!ResearchBMECOGSCI/gnet,0,0,0,prototype2.png,no,mono,no,18,no,black,no,no,768,1245,3.5.6,legacy,xpyriment,osweb,1.3.13,0,space,space,space,space,13297,14411,16794,13297,2,legacy,1032,1920,24,1080,24,0,0,1920,1651582640439,1024,2,48000,-16,experiment,p4sarrshacol4.png,0,even,Win32,198,126318,123310,198,198,632580,634104,627576,127836,627576,198,722937,724450,719936,634109,719936,visual_patterns,0,0,0,yes,1366
undefined,undefined,undefined,undefined,white,no,Mozilla,Netscape,"5.0 (Windows NT 10.0; Win64; x64) AppleWebKit/537.36 (KHTML, like Gecko) Chrome/101.0.4951.54 Safari/537.36",xpyriment,legacy,legacy,0,uniform,0,0,0,0,24,24,24,0,0,74,74,74,74,74,0,74,0,17,17,17,17,17,0,17,03-04-22,03-04-22,14:56:28,Tue May 03 2022 14:56:28 GMT+0200 (közép-európai nyári idő),The main experiment item,yes,0,0,C:/Users/rrics/Documents/!!ResearchBMECOGSCI/gnet,0,0,0,prototype2.png,no,mono,no,18,no,black,no,no,768,1245,3.5.6,legacy,xpyriment,osweb,1.3.13,0,space,space,space,space,13297,14411,16794,13297,2,legacy,1032,1920,24,1080,24,0,0,1920,1651582640439,1024,2,48000,-16,experiment,p2sarrcol1.png,0,even,Win32,198,126318,123310,198,198,632580,634104,627576,127836,627576,198,727467,728983,724465,634109,724465,visual_patterns,0,0,0,yes,1366
undefined,undefined,undefined,undefined,white,no,Mozilla,Netscape,"5.0 (Windows NT 10.0; Win64; x64) AppleWebKit/537.36 (KHTML, like Gecko) Chrome/101.0.4951.54 Safari/537.36",xpyriment,legacy,legacy,0,uniform,0,0,0,0,24,24,24,0,0,74,74,74,74,74,0,74,0,18,18,18,18,18,0,18,03-04-22,03-04-22,14:56:28,Tue May 03 2022 14:56:28 GMT+0200 (közép-európai nyári idő),The main experiment item,yes,0,0,C:/Users/rrics/Documents/!!ResearchBMECOGSCI/gnet,0,0,0,prototype2.png,no,mono,no,18,no,black,no,no,768,1245,3.5.6,legacy,xpyriment,osweb,1.3.13,0,space,space,space,space,13297,14411,16794,13297,2,legacy,1032,1920,24,1080,24,0,0,1920,1651582640439,1024,2,48000,-16,experiment,p1sarr4.png,0,even,Win32,198,126318,123310,198,198,632580,634104,627576,127836,627576,198,732002,733505,729002,634109,729002,visual_patterns,0,0,0,yes,1366
undefined,undefined,undefined,undefined,white,no,Mozilla,Netscape,"5.0 (Windows NT 10.0; Win64; x64) AppleWebKit/537.36 (KHTML, like Gecko) Chrome/101.0.4951.54 Safari/537.36",xpyriment,legacy,legacy,0,uniform,0,0,0,0,24,24,24,0,0,74,74,74,74,74,0,74,0,19,19,19,19,19,0,19,03-04-22,03-04-22,14:56:28,Tue May 03 2022 14:56:28 GMT+0200 (közép-európai nyári idő),The main experiment item,yes,0,0,C:/Users/rrics/Documents/!!ResearchBMECOGSCI/gnet,0,0,0,prototype2.png,no,mono,no,18,no,black,no,no,768,1245,3.5.6,legacy,xpyriment,osweb,1.3.13,0,space,space,space,space,13297,14411,16794,13297,2,legacy,1032,1920,24,1080,24,0,0,1920,1651582640439,1024,2,48000,-16,experiment,p10sarr1.png,0,even,Win32,198,126318,123310,198,198,632580,634104,627576,127836,627576,198,736523,738037,733522,634109,733522,visual_patterns,0,0,0,yes,1366
undefined,undefined,undefined,undefined,white,no,Mozilla,Netscape,"5.0 (Windows NT 10.0; Win64; x64) AppleWebKit/537.36 (KHTML, like Gecko) Chrome/101.0.4951.54 Safari/537.36",xpyriment,legacy,legacy,0,uniform,0,0,0,0,24,24,24,0,0,74,74,74,74,74,0,74,0,20,20,20,20,20,0,20,03-04-22,03-04-22,14:56:28,Tue May 03 2022 14:56:28 GMT+0200 (közép-európai nyári idő),The main experiment item,yes,0,0,C:/Users/rrics/Documents/!!ResearchBMECOGSCI/gnet,0,0,0,prototype2.png,no,mono,no,18,no,black,no,no,768,1245,3.5.6,legacy,xpyriment,osweb,1.3.13,0,space,space,space,space,13297,14411,16794,13297,2,legacy,1032,1920,24,1080,24,0,0,1920,1651582640439,1024,2,48000,-16,experiment,p8sarr3.png,0,even,Win32,198,126318,123310,198,198,632580,634104,627576,127836,627576,198,741056,742564,738056,634109,738056,visual_patterns,0,0,0,yes,1366
undefined,undefined,undefined,undefined,white,no,Mozilla,Netscape,"5.0 (Windows NT 10.0; Win64; x64) AppleWebKit/537.36 (KHTML, like Gecko) Chrome/101.0.4951.54 Safari/537.36",xpyriment,legacy,legacy,0,uniform,0,0,0,0,24,24,24,0,0,74,74,74,74,74,0,74,0,21,21,21,21,21,0,21,03-04-22,03-04-22,14:56:28,Tue May 03 2022 14:56:28 GMT+0200 (közép-európai nyári idő),The main experiment item,yes,0,0,C:/Users/rrics/Documents/!!ResearchBMECOGSCI/gnet,0,0,0,prototype2.png,no,mono,no,18,no,black,no,no,768,1245,3.5.6,legacy,xpyriment,osweb,1.3.13,0,space,space,space,space,13297,14411,16794,13297,2,legacy,1032,1920,24,1080,24,0,0,1920,1651582640439,1024,2,48000,-16,experiment,p9sarr4.png,0,even,Win32,198,126318,123310,198,198,632580,634104,627576,127836,627576,198,745582,747099,742583,634109,742583,visual_patterns,0,0,0,yes,1366
undefined,undefined,undefined,undefined,white,no,Mozilla,Netscape,"5.0 (Windows NT 10.0; Win64; x64) AppleWebKit/537.36 (KHTML, like Gecko) Chrome/101.0.4951.54 Safari/537.36",xpyriment,legacy,legacy,0,uniform,0,0,0,0,24,24,24,0,0,74,74,74,74,74,0,74,0,22,22,22,22,22,0,22,03-04-22,03-04-22,14:56:28,Tue May 03 2022 14:56:28 GMT+0200 (közép-európai nyári idő),The main experiment item,yes,0,0,C:/Users/rrics/Documents/!!ResearchBMECOGSCI/gnet,0,0,0,prototype2.png,no,mono,no,18,no,black,no,no,768,1245,3.5.6,legacy,xpyriment,osweb,1.3.13,0,space,space,space,space,13297,14411,16794,13297,2,legacy,1032,1920,24,1080,24,0,0,1920,1651582640439,1024,2,48000,-16,experiment,p5sarrcol2.png,0,even,Win32,198,126318,123310,198,198,632580,634104,627576,127836,627576,198,750114,751630,747114,634109,747114,visual_patterns,0,0,0,yes,1366
undefined,undefined,undefined,undefined,white,no,Mozilla,Netscape,"5.0 (Windows NT 10.0; Win64; x64) AppleWebKit/537.36 (KHTML, like Gecko) Chrome/101.0.4951.54 Safari/537.36",xpyriment,legacy,legacy,0,uniform,0,0,0,0,24,24,24,0,0,74,74,74,74,74,0,74,0,23,23,23,23,23,0,23,03-04-22,03-04-22,14:56:28,Tue May 03 2022 14:56:28 GMT+0200 (közép-európai nyári idő),The main experiment item,yes,0,0,C:/Users/rrics/Documents/!!ResearchBMECOGSCI/gnet,0,0,0,prototype2.png,no,mono,no,18,no,black,no,no,768,1245,3.5.6,legacy,xpyriment,osweb,1.3.13,0,space,space,space,space,13297,14411,16794,13297,2,legacy,1032,1920,24,1080,24,0,0,1920,1651582640439,1024,2,48000,-16,experiment,p7sarr4.png,0,even,Win32,198,126318,123310,198,198,632580,634104,627576,127836,627576,198,754656,756163,751652,634109,751652,visual_patterns,0,0,0,yes,1366
undefined,undefined,undefined,undefined,white,no,Mozilla,Netscape,"5.0 (Windows NT 10.0; Win64; x64) AppleWebKit/537.36 (KHTML, like Gecko) Chrome/101.0.4951.54 Safari/537.36",xpyriment,legacy,legacy,0,uniform,0,0,0,0,24,24,24,0,0,74,74,74,74,74,0,74,0,24,24,24,24,24,0,24,03-04-22,03-04-22,14:56:28,Tue May 03 2022 14:56:28 GMT+0200 (közép-európai nyári idő),The main experiment item,yes,0,0,C:/Users/rrics/Documents/!!ResearchBMECOGSCI/gnet,0,0,0,prototype2.png,no,mono,no,18,no,black,no,no,768,1245,3.5.6,legacy,xpyriment,osweb,1.3.13,0,space,space,space,space,13297,14411,16794,13297,2,legacy,1032,1920,24,1080,24,0,0,1920,1651582640439,1024,2,48000,-16,experiment,p3sarrsha3.png,0,even,Win32,198,126318,123310,198,198,632580,634104,627576,127836,627576,198,759180,760696,756180,634109,756180,visual_patterns,0,0,0,yes,1366
undefined,undefined,undefined,undefined,white,no,Mozilla,Netscape,"5.0 (Windows NT 10.0; Win64; x64) AppleWebKit/537.36 (KHTML, like Gecko) Chrome/101.0.4951.54 Safari/537.36",xpyriment,legacy,legacy,0,uniform,0,0,0,0,24,24,24,0,0,74,74,74,74,74,0,74,0,25,25,25,25,25,0,25,03-04-22,03-04-22,14:56:28,Tue May 03 2022 14:56:28 GMT+0200 (közép-európai nyári idő),The main experiment item,yes,0,0,C:/Users/rrics/Documents/!!ResearchBMECOGSCI/gnet,0,0,0,prototype2.png,no,mono,no,18,no,black,no,no,768,1245,3.5.6,legacy,xpyriment,osweb,1.3.13,0,space,space,space,space,13297,14411,16794,13297,2,legacy,1032,1920,24,1080,24,0,0,1920,1651582640439,1024,2,48000,-16,experiment,p8sarr4.png,0,even,Win32,198,126318,123310,198,198,632580,634104,627576,127836,627576,198,763717,765228,760713,634109,760713,visual_patterns,0,0,0,yes,1366
undefined,undefined,undefined,undefined,white,no,Mozilla,Netscape,"5.0 (Windows NT 10.0; Win64; x64) AppleWebKit/537.36 (KHTML, like Gecko) Chrome/101.0.4951.54 Safari/537.36",xpyriment,legacy,legacy,0,uniform,0,0,0,0,24,24,24,0,0,74,74,74,74,74,0,74,0,26,26,26,26,26,0,26,03-04-22,03-04-22,14:56:28,Tue May 03 2022 14:56:28 GMT+0200 (közép-európai nyári idő),The main experiment item,yes,0,0,C:/Users/rrics/Documents/!!ResearchBMECOGSCI/gnet,0,0,0,prototype2.png,no,mono,no,18,no,black,no,no,768,1245,3.5.6,legacy,xpyriment,osweb,1.3.13,0,space,space,space,space,13297,14411,16794,13297,2,legacy,1032,1920,24,1080,24,0,0,1920,1651582640439,1024,2,48000,-16,experiment,p2sarrshacol4.png,0,even,Win32,198,126318,123310,198,198,632580,634104,627576,127836,627576,198,768250,769761,765247,634109,765247,visual_patterns,0,0,0,yes,1366
undefined,undefined,undefined,undefined,white,no,Mozilla,Netscape,"5.0 (Windows NT 10.0; Win64; x64) AppleWebKit/537.36 (KHTML, like Gecko) Chrome/101.0.4951.54 Safari/537.36",xpyriment,legacy,legacy,0,uniform,0,0,0,0,24,24,24,0,0,74,74,74,74,74,0,74,0,27,27,27,27,27,0,27,03-04-22,03-04-22,14:56:28,Tue May 03 2022 14:56:28 GMT+0200 (közép-európai nyári idő),The main experiment item,yes,0,0,C:/Users/rrics/Documents/!!ResearchBMECOGSCI/gnet,0,0,0,prototype2.png,no,mono,no,18,no,black,no,no,768,1245,3.5.6,legacy,xpyriment,osweb,1.3.13,0,space,space,space,space,13297,14411,16794,13297,2,legacy,1032,1920,24,1080,24,0,0,1920,1651582640439,1024,2,48000,-16,experiment,p4sarrshacol1.png,0,even,Win32,198,126318,123310,198,198,632580,634104,627576,127836,627576,198,772778,774298,769779,634109,769779,visual_patterns,0,0,0,yes,1366
undefined,undefined,undefined,undefined,white,no,Mozilla,Netscape,"5.0 (Windows NT 10.0; Win64; x64) AppleWebKit/537.36 (KHTML, like Gecko) Chrome/101.0.4951.54 Safari/537.36",xpyriment,legacy,legacy,0,uniform,0,0,0,0,24,24,24,0,0,74,74,74,74,74,0,74,0,28,28,28,28,28,0,28,03-04-22,03-04-22,14:56:28,Tue May 03 2022 14:56:28 GMT+0200 (közép-európai nyári idő),The main experiment item,yes,0,0,C:/Users/rrics/Documents/!!ResearchBMECOGSCI/gnet,0,0,0,prototype2.png,no,mono,no,18,no,black,no,no,768,1245,3.5.6,legacy,xpyriment,osweb,1.3.13,0,space,space,space,space,13297,14411,16794,13297,2,legacy,1032,1920,24,1080,24,0,0,1920,1651582640439,1024,2,48000,-16,experiment,p1sarrshacol3.png,0,even,Win32,198,126318,123310,198,198,632580,634104,627576,127836,627576,198,777317,778826,774320,634109,774319,visual_patterns,0,0,0,yes,1366
undefined,undefined,undefined,undefined,white,no,Mozilla,Netscape,"5.0 (Windows NT 10.0; Win64; x64) AppleWebKit/537.36 (KHTML, like Gecko) Chrome/101.0.4951.54 Safari/537.36",xpyriment,legacy,legacy,0,uniform,0,0,0,0,24,24,24,0,0,74,74,74,74,74,0,74,0,29,29,29,29,29,0,29,03-04-22,03-04-22,14:56:28,Tue May 03 2022 14:56:28 GMT+0200 (közép-európai nyári idő),The main experiment item,yes,0,0,C:/Users/rrics/Documents/!!ResearchBMECOGSCI/gnet,0,0,0,prototype2.png,no,mono,no,18,no,black,no,no,768,1245,3.5.6,legacy,xpyriment,osweb,1.3.13,0,space,space,space,space,13297,14411,16794,13297,2,legacy,1032,1920,24,1080,24,0,0,1920,1651582640439,1024,2,48000,-16,experiment,p2sarrsha1.png,0,even,Win32,198,126318,123310,198,198,632580,634104,627576,127836,627576,198,781843,783359,778842,634109,778842,visual_patterns,0,0,0,yes,1366
undefined,undefined,undefined,undefined,white,no,Mozilla,Netscape,"5.0 (Windows NT 10.0; Win64; x64) AppleWebKit/537.36 (KHTML, like Gecko) Chrome/101.0.4951.54 Safari/537.36",xpyriment,legacy,legacy,0,uniform,0,0,0,0,24,24,24,0,0,74,74,74,74,74,0,74,0,30,30,30,30,30,0,30,03-04-22,03-04-22,14:56:28,Tue May 03 2022 14:56:28 GMT+0200 (közép-európai nyári idő),The main experiment item,yes,0,0,C:/Users/rrics/Documents/!!ResearchBMECOGSCI/gnet,0,0,0,prototype2.png,no,mono,no,18,no,black,no,no,768,1245,3.5.6,legacy,xpyriment,osweb,1.3.13,0,space,space,space,space,13297,14411,16794,13297,2,legacy,1032,1920,24,1080,24,0,0,1920,1651582640439,1024,2,48000,-16,experiment,p3sarr2.png,0,even,Win32,198,126318,123310,198,198,632580,634104,627576,127836,627576,198,786380,787891,783376,634109,783376,visual_patterns,0,0,0,yes,1366
undefined,undefined,undefined,undefined,white,no,Mozilla,Netscape,"5.0 (Windows NT 10.0; Win64; x64) AppleWebKit/537.36 (KHTML, like Gecko) Chrome/101.0.4951.54 Safari/537.36",xpyriment,legacy,legacy,0,uniform,0,0,0,0,24,24,24,0,0,74,74,74,74,74,0,74,0,31,31,31,31,31,0,31,03-04-22,03-04-22,14:56:28,Tue May 03 2022 14:56:28 GMT+0200 (közép-európai nyári idő),The main experiment item,yes,0,0,C:/Users/rrics/Documents/!!ResearchBMECOGSCI/gnet,0,0,0,prototype2.png,no,mono,no,18,no,black,no,no,768,1245,3.5.6,legacy,xpyriment,osweb,1.3.13,0,space,space,space,space,13297,14411,16794,13297,2,legacy,1032,1920,24,1080,24,0,0,1920,1651582640439,1024,2,48000,-16,experiment,p3sarrshacol3.png,0,even,Win32,198,126318,123310,198,198,632580,634104,627576,127836,627576,198,790916,792424,787912,634109,787912,visual_patterns,0,0,0,yes,1366
undefined,undefined,undefined,undefined,white,no,Mozilla,Netscape,"5.0 (Windows NT 10.0; Win64; x64) AppleWebKit/537.36 (KHTML, like Gecko) Chrome/101.0.4951.54 Safari/537.36",xpyriment,legacy,legacy,0,uniform,0,0,0,0,24,24,24,0,0,74,74,74,74,74,0,74,0,32,32,32,32,32,0,32,03-04-22,03-04-22,14:56:28,Tue May 03 2022 14:56:28 GMT+0200 (közép-európai nyári idő),The main experiment item,yes,0,0,C:/Users/rrics/Documents/!!ResearchBMECOGSCI/gnet,0,0,0,prototype2.png,no,mono,no,18,no,black,no,no,768,1245,3.5.6,legacy,xpyriment,osweb,1.3.13,0,space,space,space,space,13297,14411,16794,13297,2,legacy,1032,1920,24,1080,24,0,0,1920,1651582640439,1024,2,48000,-16,experiment,p2sarrcol4.png,0,even,Win32,198,126318,123310,198,198,632580,634104,627576,127836,627576,198,795446,796960,792445,634109,792445,visual_patterns,0,0,0,yes,1366
undefined,undefined,undefined,undefined,white,no,Mozilla,Netscape,"5.0 (Windows NT 10.0; Win64; x64) AppleWebKit/537.36 (KHTML, like Gecko) Chrome/101.0.4951.54 Safari/537.36",xpyriment,legacy,legacy,0,uniform,0,0,0,0,24,24,24,0,0,74,74,74,74,74,0,74,0,33,33,33,33,33,0,33,03-04-22,03-04-22,14:56:28,Tue May 03 2022 14:56:28 GMT+0200 (közép-európai nyári idő),The main experiment item,yes,0,0,C:/Users/rrics/Documents/!!ResearchBMECOGSCI/gnet,0,0,0,prototype2.png,no,mono,no,18,no,black,no,no,768,1245,3.5.6,legacy,xpyriment,osweb,1.3.13,0,space,space,space,space,13297,14411,16794,13297,2,legacy,1032,1920,24,1080,24,0,0,1920,1651582640439,1024,2,48000,-16,experiment,p5sarrcol1.png,0,even,Win32,198,126318,123310,198,198,632580,634104,627576,127836,627576,198,799978,801489,796982,634109,796981,visual_patterns,0,0,0,yes,1366
undefined,undefined,undefined,undefined,white,no,Mozilla,Netscape,"5.0 (Windows NT 10.0; Win64; x64) AppleWebKit/537.36 (KHTML, like Gecko) Chrome/101.0.4951.54 Safari/537.36",xpyriment,legacy,legacy,0,uniform,0,0,0,0,24,24,24,0,0,74,74,74,74,74,0,74,0,34,34,34,34,34,0,34,03-04-22,03-04-22,14:56:28,Tue May 03 2022 14:56:28 GMT+0200 (közép-európai nyári idő),The main experiment item,yes,0,0,C:/Users/rrics/Documents/!!ResearchBMECOGSCI/gnet,0,0,0,prototype2.png,no,mono,no,18,no,black,no,no,768,1245,3.5.6,legacy,xpyriment,osweb,1.3.13,0,space,space,space,space,13297,14411,16794,13297,2,legacy,1032,1920,24,1080,24,0,0,1920,1651582640439,1024,2,48000,-16,experiment,p8sarr2.png,0,even,Win32,198,126318,123310,198,198,632580,634104,627576,127836,627576,198,804511,806027,801514,634109,801514,visual_patterns,0,0,0,yes,1366
undefined,undefined,undefined,undefined,white,no,Mozilla,Netscape,"5.0 (Windows NT 10.0; Win64; x64) AppleWebKit/537.36 (KHTML, like Gecko) Chrome/101.0.4951.54 Safari/537.36",xpyriment,legacy,legacy,0,uniform,0,0,0,0,24,24,24,0,0,74,74,74,74,74,0,74,0,35,35,35,35,35,0,35,03-04-22,03-04-22,14:56:28,Tue May 03 2022 14:56:28 GMT+0200 (közép-európai nyári idő),The main experiment item,yes,0,0,C:/Users/rrics/Documents/!!ResearchBMECOGSCI/gnet,0,0,0,prototype2.png,no,mono,no,18,no,black,no,no,768,1245,3.5.6,legacy,xpyriment,osweb,1.3.13,0,space,space,space,space,13297,14411,16794,13297,2,legacy,1032,1920,24,1080,24,0,0,1920,1651582640439,1024,2,48000,-16,experiment,p5sarr3.png,0,even,Win32,198,126318,123310,198,198,632580,634104,627576,127836,627576,198,809043,810546,806045,634109,806045,visual_patterns,0,0,0,yes,1366
undefined,undefined,undefined,undefined,white,no,Mozilla,Netscape,"5.0 (Windows NT 10.0; Win64; x64) AppleWebKit/537.36 (KHTML, like Gecko) Chrome/101.0.4951.54 Safari/537.36",xpyriment,legacy,legacy,0,uniform,0,0,0,0,24,24,24,0,0,74,74,74,74,74,0,74,0,36,36,36,36,36,0,36,03-04-22,03-04-22,14:56:28,Tue May 03 2022 14:56:28 GMT+0200 (közép-európai nyári idő),The main experiment item,yes,0,0,C:/Users/rrics/Documents/!!ResearchBMECOGSCI/gnet,0,0,0,prototype2.png,no,mono,no,18,no,black,no,no,768,1245,3.5.6,legacy,xpyriment,osweb,1.3.13,0,space,space,space,space,13297,14411,16794,13297,2,legacy,1032,1920,24,1080,24,0,0,1920,1651582640439,1024,2,48000,-16,experiment,p7sarr1.png,0,even,Win32,198,126318,123310,198,198,632580,634104,627576,127836,627576,198,813568,815071,810561,634109,810561,visual_patterns,0,0,0,yes,1366
undefined,undefined,undefined,undefined,white,no,Mozilla,Netscape,"5.0 (Windows NT 10.0; Win64; x64) AppleWebKit/537.36 (KHTML, like Gecko) Chrome/101.0.4951.54 Safari/537.36",xpyriment,legacy,legacy,0,uniform,0,0,0,0,24,24,24,0,0,74,74,74,74,74,0,74,0,37,37,37,37,37,0,37,03-04-22,03-04-22,14:56:28,Tue May 03 2022 14:56:28 GMT+0200 (közép-európai nyári idő),The main experiment item,yes,0,0,C:/Users/rrics/Documents/!!ResearchBMECOGSCI/gnet,0,0,0,prototype2.png,no,mono,no,18,no,black,no,no,768,1245,3.5.6,legacy,xpyriment,osweb,1.3.13,0,space,space,space,space,13297,14411,16794,13297,2,legacy,1032,1920,24,1080,24,0,0,1920,1651582640439,1024,2,48000,-16,experiment,p1sarrcol4.png,0,even,Win32,198,126318,123310,198,198,632580,634104,627576,127836,627576,198,818088,819604,815093,634109,815092,visual_patterns,0,0,0,yes,1366
undefined,undefined,undefined,undefined,white,no,Mozilla,Netscape,"5.0 (Windows NT 10.0; Win64; x64) AppleWebKit/537.36 (KHTML, like Gecko) Chrome/101.0.4951.54 Safari/537.36",xpyriment,legacy,legacy,0,uniform,0,0,0,0,24,24,24,0,0,74,74,74,74,74,0,74,0,38,38,38,38,38,0,38,03-04-22,03-04-22,14:56:28,Tue May 03 2022 14:56:28 GMT+0200 (közép-európai nyári idő),The main experiment item,yes,0,0,C:/Users/rrics/Documents/!!ResearchBMECOGSCI/gnet,0,0,0,prototype2.png,no,mono,no,18,no,black,no,no,768,1245,3.5.6,legacy,xpyriment,osweb,1.3.13,0,space,space,space,space,13297,14411,16794,13297,2,legacy,1032,1920,24,1080,24,0,0,1920,1651582640439,1024,2,48000,-16,experiment,p3sarrsha4.png,0,even,Win32,198,126318,123310,198,198,632580,634104,627576,127836,627576,198,822632,824142,819631,634109,819631,visual_patterns,0,0,0,yes,1366
undefined,undefined,undefined,undefined,white,no,Mozilla,Netscape,"5.0 (Windows NT 10.0; Win64; x64) AppleWebKit/537.36 (KHTML, like Gecko) Chrome/101.0.4951.54 Safari/537.36",xpyriment,legacy,legacy,0,uniform,0,0,0,0,24,24,24,0,0,74,74,74,74,74,0,74,0,39,39,39,39,39,0,39,03-04-22,03-04-22,14:56:28,Tue May 03 2022 14:56:28 GMT+0200 (közép-európai nyári idő),The main experiment item,yes,0,0,C:/Users/rrics/Documents/!!ResearchBMECOGSCI/gnet,0,0,0,prototype2.png,no,mono,no,18,no,black,no,no,768,1245,3.5.6,legacy,xpyriment,osweb,1.3.13,0,space,space,space,space,13297,14411,16794,13297,2,legacy,1032,1920,24,1080,24,0,0,1920,1651582640439,1024,2,48000,-16,experiment,p3sarr1.png,0,even,Win32,198,126318,123310,198,198,632580,634104,627576,127836,627576,198,827161,828677,824160,634109,824160,visual_patterns,0,0,0,yes,1366
undefined,undefined,undefined,undefined,white,no,Mozilla,Netscape,"5.0 (Windows NT 10.0; Win64; x64) AppleWebKit/537.36 (KHTML, like Gecko) Chrome/101.0.4951.54 Safari/537.36",xpyriment,legacy,legacy,0,uniform,0,0,0,0,24,24,24,0,0,74,74,74,74,74,0,74,0,40,40,40,40,40,0,40,03-04-22,03-04-22,14:56:28,Tue May 03 2022 14:56:28 GMT+0200 (közép-európai nyári idő),The main experiment item,yes,0,0,C:/Users/rrics/Documents/!!ResearchBMECOGSCI/gnet,0,0,0,prototype2.png,no,mono,no,18,no,black,no,no,768,1245,3.5.6,legacy,xpyriment,osweb,1.3.13,0,space,space,space,space,13297,14411,16794,13297,2,legacy,1032,1920,24,1080,24,0,0,1920,1651582640439,1024,2,48000,-16,experiment,p2sarrsha3.png,0,even,Win32,198,126318,123310,198,198,632580,634104,627576,127836,627576,198,831695,833204,828699,634109,828699,visual_patterns,0,0,0,yes,1366
undefined,undefined,undefined,undefined,white,no,Mozilla,Netscape,"5.0 (Windows NT 10.0; Win64; x64) AppleWebKit/537.36 (KHTML, like Gecko) Chrome/101.0.4951.54 Safari/537.36",xpyriment,legacy,legacy,0,uniform,0,0,0,0,24,24,24,0,0,74,74,74,74,74,0,74,0,41,41,41,41,41,0,41,03-04-22,03-04-22,14:56:28,Tue May 03 2022 14:56:28 GMT+0200 (közép-európai nyári idő),The main experiment item,yes,0,0,C:/Users/rrics/Documents/!!ResearchBMECOGSCI/gnet,0,0,0,prototype2.png,no,mono,no,18,no,black,no,no,768,1245,3.5.6,legacy,xpyriment,osweb,1.3.13,0,space,space,space,space,13297,14411,16794,13297,2,legacy,1032,1920,24,1080,24,0,0,1920,1651582640439,1024,2,48000,-16,experiment,p9sarr3.png,0,even,Win32,198,126318,123310,198,198,632580,634104,627576,127836,627576,198,836218,837735,833225,634109,833224,visual_patterns,0,0,0,yes,1366
undefined,undefined,undefined,undefined,white,no,Mozilla,Netscape,"5.0 (Windows NT 10.0; Win64; x64) AppleWebKit/537.36 (KHTML, like Gecko) Chrome/101.0.4951.54 Safari/537.36",xpyriment,legacy,legacy,0,uniform,0,0,0,0,24,24,24,0,0,74,74,74,74,74,0,74,0,42,42,42,42,42,0,42,03-04-22,03-04-22,14:56:28,Tue May 03 2022 14:56:28 GMT+0200 (közép-európai nyári idő),The main experiment item,yes,0,0,C:/Users/rrics/Documents/!!ResearchBMECOGSCI/gnet,0,0,0,prototype2.png,no,mono,no,18,no,black,no,no,768,1245,3.5.6,legacy,xpyriment,osweb,1.3.13,0,space,space,space,space,13297,14411,16794,13297,2,legacy,1032,1920,24,1080,24,0,0,1920,1651582640439,1024,2,48000,-16,experiment,p10sarr4.png,0,even,Win32,198,126318,123310,198,198,632580,634104,627576,127836,627576,198,840751,842268,837754,634109,837754,visual_patterns,0,0,0,yes,1366
undefined,undefined,undefined,undefined,white,no,Mozilla,Netscape,"5.0 (Windows NT 10.0; Win64; x64) AppleWebKit/537.36 (KHTML, like Gecko) Chrome/101.0.4951.54 Safari/537.36",xpyriment,legacy,legacy,0,uniform,0,0,0,0,24,24,24,0,0,74,74,74,74,74,0,74,0,43,43,43,43,43,0,43,03-04-22,03-04-22,14:56:28,Tue May 03 2022 14:56:28 GMT+0200 (közép-európai nyári idő),The main experiment item,yes,0,0,C:/Users/rrics/Documents/!!ResearchBMECOGSCI/gnet,0,0,0,prototype2.png,no,mono,no,18,no,black,no,no,768,1245,3.5.6,legacy,xpyriment,osweb,1.3.13,0,space,space,space,space,13297,14411,16794,13297,2,legacy,1032,1920,24,1080,24,0,0,1920,1651582640439,1024,2,48000,-16,experiment,p4sarrcol1.png,0,even,Win32,198,126318,123310,198,198,632580,634104,627576,127836,627576,198,845284,846800,842287,634109,842287,visual_patterns,0,0,0,yes,1366
undefined,undefined,undefined,undefined,white,no,Mozilla,Netscape,"5.0 (Windows NT 10.0; Win64; x64) AppleWebKit/537.36 (KHTML, like Gecko) Chrome/101.0.4951.54 Safari/537.36",xpyriment,legacy,legacy,0,uniform,0,0,0,0,24,24,24,0,0,74,74,74,74,74,0,74,0,44,44,44,44,44,0,44,03-04-22,03-04-22,14:56:28,Tue May 03 2022 14:56:28 GMT+0200 (közép-európai nyári idő),The main experiment item,yes,0,0,C:/Users/rrics/Documents/!!ResearchBMECOGSCI/gnet,0,0,0,prototype2.png,no,mono,no,18,no,black,no,no,768,1245,3.5.6,legacy,xpyriment,osweb,1.3.13,0,space,space,space,space,13297,14411,16794,13297,2,legacy,1032,1920,24,1080,24,0,0,1920,1651582640439,1024,2,48000,-16,experiment,p5sarrshacol4.png,0,even,Win32,198,126318,123310,198,198,632580,634104,627576,127836,627576,198,849817,851333,846818,634109,846818,visual_patterns,0,0,0,yes,1366
undefined,undefined,undefined,undefined,white,no,Mozilla,Netscape,"5.0 (Windows NT 10.0; Win64; x64) AppleWebKit/537.36 (KHTML, like Gecko) Chrome/101.0.4951.54 Safari/537.36",xpyriment,legacy,legacy,0,uniform,0,0,0,0,24,24,24,0,0,74,74,74,74,74,0,74,0,45,45,45,45,45,0,45,03-04-22,03-04-22,14:56:28,Tue May 03 2022 14:56:28 GMT+0200 (közép-európai nyári idő),The main experiment item,yes,0,0,C:/Users/rrics/Documents/!!ResearchBMECOGSCI/gnet,0,0,0,prototype2.png,no,mono,no,18,no,black,no,no,768,1245,3.5.6,legacy,xpyriment,osweb,1.3.13,0,space,space,space,space,13297,14411,16794,13297,2,legacy,1032,1920,24,1080,24,0,0,1920,1651582640439,1024,2,48000,-16,experiment,p3sarr3.png,0,even,Win32,198,126318,123310,198,198,632580,634104,627576,127836,627576,198,854353,855866,851353,634109,851353,visual_patterns,0,0,0,yes,1366
undefined,undefined,undefined,undefined,white,no,Mozilla,Netscape,"5.0 (Windows NT 10.0; Win64; x64) AppleWebKit/537.36 (KHTML, like Gecko) Chrome/101.0.4951.54 Safari/537.36",xpyriment,legacy,legacy,0,uniform,0,0,0,0,24,24,24,0,0,74,74,74,74,74,0,74,0,46,46,46,46,46,0,46,03-04-22,03-04-22,14:56:28,Tue May 03 2022 14:56:28 GMT+0200 (közép-európai nyári idő),The main experiment item,yes,0,0,C:/Users/rrics/Documents/!!ResearchBMECOGSCI/gnet,0,0,0,prototype2.png,no,mono,no,18,no,black,no,no,768,1245,3.5.6,legacy,xpyriment,osweb,1.3.13,0,space,space,space,space,13297,14411,16794,13297,2,legacy,1032,1920,24,1080,24,0,0,1920,1651582640439,1024,2,48000,-16,experiment,p2sarr3.png,0,even,Win32,198,126318,123310,198,198,632580,634104,627576,127836,627576,198,858881,860385,855886,634109,855886,visual_patterns,0,0,0,yes,1366
undefined,undefined,undefined,undefined,white,no,Mozilla,Netscape,"5.0 (Windows NT 10.0; Win64; x64) AppleWebKit/537.36 (KHTML, like Gecko) Chrome/101.0.4951.54 Safari/537.36",xpyriment,legacy,legacy,0,uniform,0,0,0,0,24,24,24,0,0,74,74,74,74,74,0,74,0,47,47,47,47,47,0,47,03-04-22,03-04-22,14:56:28,Tue May 03 2022 14:56:28 GMT+0200 (közép-európai nyári idő),The main experiment item,yes,0,0,C:/Users/rrics/Documents/!!ResearchBMECOGSCI/gnet,0,0,0,prototype2.png,no,mono,no,18,no,black,no,no,768,1245,3.5.6,legacy,xpyriment,osweb,1.3.13,0,space,space,space,space,13297,14411,16794,13297,2,legacy,1032,1920,24,1080,24,0,0,1920,1651582640439,1024,2,48000,-16,experiment,p4sarr2.png,0,even,Win32,198,126318,123310,198,198,632580,634104,627576,127836,627576,198,863404,864914,860403,634109,860403,visual_patterns,0,0,0,yes,1366
