acc,accuracy,average_response_time,avg_rt,background,batchId,batchTitle,bidi,canvas_backend,clock_backend,color_backend,compensation,componentId,componentPos,componentResultId,componentTitle,coordinates,correct,count_end,count_experiment,count_osweb,count_prestudy,count_prestudy_isi,count_prestudy_sequence,count_prestudy_stimpres,count_start,count_study,count_study_isi,count_study_logger,count_study_response,count_study_sequence,count_study_start,count_study_stimpres,count_study_stimpres_2,count_test,count_test_isi,count_test_logger,count_test_response,count_test_sequence,count_test_start,count_test_stimpres,count_test_stimpres_2,datetime,description,disable_garbage_collection,experiment_path,fampict,font_bold,font_family,font_italic,font_size,font_underline,foreground,form_clicks,fullscreen,groupMemberId,groupResultId,height,keyboard_backend,mouse_backend,opensesame_codename,opensesame_version,response,response_start,response_study_response,response_study_start,response_test_response,response_test_start,response_time,response_time_start,response_time_study_response,response_time_study_start,response_time_test_response,response_time_test_start,round_decimals,sampler_backend,sessionid,sound_buf_size,sound_channels,sound_freq,sound_sample_size,start,stim,studyId,studyResultId,studyTitle,subject_nr,subject_parity,time_prestudy,time_prestudy_isi,time_prestudy_stimpres,time_start,time_study,time_study_isi,time_study_logger,time_study_response,time_study_start,time_study_stimpres,time_study_stimpres_2,time_test,time_test_isi,time_test_logger,time_test_response,time_test_start,time_test_stimpres,time_test_stimpres_2,title,total_correct,total_response_time,total_responses,uniform_coordinates,width,workerId
0,0,3008,3008,white,70,Default,no,xpyriment,legacy,legacy,0,70,1,1085,OSWeb experiment,uniform,undefined,0,0,0,0,24,24,24,0,0,0,0,0,0,0,0,0,0,,,,,0,,,Thu Sep 30 2021 11:34:10 GMT+0200 (Central European Summer Time),The main experiment item,yes,C:/Users/Ricsi/Documents/!!ResearchBMECOGSCI,prototype2.png,no,mono,no,18,no,black,no,no,None,null,768,legacy,xpyriment,osweb,1.3.3,None,enter,None,space,,,3008,12129,3008,23984,,,2,legacy,1632993686913,1024,2,48000,-16,experiment,p6sarr1.png,70,1113,visual_patterns_original,1,odd,91,123566,120561,91,91,154115,155620,149102,125072,149101,152111,91,,,,,,,visual_patterns,0,3008,1,yes,1366,2626
0,0,3010,3010,white,70,Default,no,xpyriment,legacy,legacy,0,70,1,1085,OSWeb experiment,uniform,undefined,0,0,0,0,24,24,24,0,0,1,1,1,1,0,1,1,0,,,,,0,,,Thu Sep 30 2021 11:34:10 GMT+0200 (Central European Summer Time),The main experiment item,yes,C:/Users/Ricsi/Documents/!!ResearchBMECOGSCI,prototype2.png,no,mono,no,18,no,black,no,no,None,null,768,legacy,xpyriment,osweb,1.3.3,None,enter,None,space,,,3012,12129,3012,23984,,,2,legacy,1632993686913,1024,2,48000,-16,experiment,prototype3.png,70,1113,visual_patterns_original,1,odd,91,123566,120561,91,91,160663,162165,155646,125072,155646,158659,91,,,,,,,visual_patterns,0,6020,2,yes,1366,2626
0,0,3009,3009,white,70,Default,no,xpyriment,legacy,legacy,0,70,1,1085,OSWeb experiment,uniform,undefined,0,0,0,0,24,24,24,0,0,2,2,2,2,0,2,2,0,,,,,0,,,Thu Sep 30 2021 11:34:10 GMT+0200 (Central European Summer Time),The main experiment item,yes,C:/Users/Ricsi/Documents/!!ResearchBMECOGSCI,prototype2.png,no,mono,no,18,no,black,no,no,None,null,768,legacy,xpyriment,osweb,1.3.3,None,enter,None,space,,,3008,12129,3008,23984,,,2,legacy,1632993686913,1024,2,48000,-16,experiment,p3sarr1.png,70,1113,visual_patterns_original,1,odd,91,123566,120561,91,91,167193,168696,162181,125072,162180,165189,91,,,,,,,visual_patterns,0,9028,3,yes,1366,2626
0,0,3008,3008,white,70,Default,no,xpyriment,legacy,legacy,0,70,1,1085,OSWeb experiment,uniform,undefined,0,0,0,0,24,24,24,0,0,3,3,3,3,0,3,3,0,,,,,0,,,Thu Sep 30 2021 11:34:10 GMT+0200 (Central European Summer Time),The main experiment item,yes,C:/Users/Ricsi/Documents/!!ResearchBMECOGSCI,prototype2.png,no,mono,no,18,no,black,no,no,None,null,768,legacy,xpyriment,osweb,1.3.3,None,enter,None,space,,,3005,12129,3005,23984,,,2,legacy,1632993686913,1024,2,48000,-16,experiment,p9sarr2.png,70,1113,visual_patterns_original,1,odd,91,123566,120561,91,91,173724,175227,168714,125072,168714,171720,91,,,,,,,visual_patterns,0,12033,4,yes,1366,2626
0,0,3008,3008,white,70,Default,no,xpyriment,legacy,legacy,0,70,1,1085,OSWeb experiment,uniform,undefined,0,0,0,0,24,24,24,0,0,4,4,4,4,0,4,4,0,,,,,0,,,Thu Sep 30 2021 11:34:10 GMT+0200 (Central European Summer Time),The main experiment item,yes,C:/Users/Ricsi/Documents/!!ResearchBMECOGSCI,prototype2.png,no,mono,no,18,no,black,no,no,None,null,768,legacy,xpyriment,osweb,1.3.3,None,enter,None,space,,,3007,12129,3007,23984,,,2,legacy,1632993686913,1024,2,48000,-16,experiment,p4sarr2.png,70,1113,visual_patterns_original,1,odd,91,123566,120561,91,91,180255,181758,175243,125072,175243,178251,91,,,,,,,visual_patterns,0,15040,5,yes,1366,2626
0,0,3007,3007,white,70,Default,no,xpyriment,legacy,legacy,0,70,1,1085,OSWeb experiment,uniform,undefined,0,0,0,0,24,24,24,0,0,5,5,5,5,0,5,5,0,,,,,0,,,Thu Sep 30 2021 11:34:10 GMT+0200 (Central European Summer Time),The main experiment item,yes,C:/Users/Ricsi/Documents/!!ResearchBMECOGSCI,prototype2.png,no,mono,no,18,no,black,no,no,None,null,768,legacy,xpyriment,osweb,1.3.3,None,enter,None,space,,,3003,12129,3003,23984,,,2,legacy,1632993686913,1024,2,48000,-16,experiment,p4sarrshacol2.png,70,1113,visual_patterns_original,1,odd,91,123566,120561,91,91,186786,188289,181778,125072,181778,184782,91,,,,,,,visual_patterns,0,18043,6,yes,1366,2626
0,0,3007,3007,white,70,Default,no,xpyriment,legacy,legacy,0,70,1,1085,OSWeb experiment,uniform,undefined,0,0,0,0,24,24,24,0,0,6,6,6,6,0,6,6,0,,,,,0,,,Thu Sep 30 2021 11:34:10 GMT+0200 (Central European Summer Time),The main experiment item,yes,C:/Users/Ricsi/Documents/!!ResearchBMECOGSCI,prototype2.png,no,mono,no,18,no,black,no,no,None,null,768,legacy,xpyriment,osweb,1.3.3,None,enter,None,space,,,3007,12129,3007,23984,,,2,legacy,1632993686913,1024,2,48000,-16,experiment,p5sarrsha2.png,70,1113,visual_patterns_original,1,odd,91,123566,120561,91,91,193316,194819,188305,125072,188305,191312,91,,,,,,,visual_patterns,0,21050,7,yes,1366,2626
0,0,3007,3007,white,70,Default,no,xpyriment,legacy,legacy,0,70,1,1085,OSWeb experiment,uniform,undefined,0,0,0,0,24,24,24,0,0,7,7,7,7,0,7,7,0,,,,,0,,,Thu Sep 30 2021 11:34:10 GMT+0200 (Central European Summer Time),The main experiment item,yes,C:/Users/Ricsi/Documents/!!ResearchBMECOGSCI,prototype2.png,no,mono,no,18,no,black,no,no,None,null,768,legacy,xpyriment,osweb,1.3.3,None,enter,None,space,,,3008,12129,3008,23984,,,2,legacy,1632993686913,1024,2,48000,-16,experiment,p2sarr1.png,70,1113,visual_patterns_original,1,odd,91,123566,120561,91,91,199847,201350,194835,125072,194835,197844,91,,,,,,,visual_patterns,0,24058,8,yes,1366,2626
0,0,3008,3008,white,70,Default,no,xpyriment,legacy,legacy,0,70,1,1085,OSWeb experiment,uniform,undefined,0,0,0,0,24,24,24,0,0,8,8,8,8,0,8,8,0,,,,,0,,,Thu Sep 30 2021 11:34:10 GMT+0200 (Central European Summer Time),The main experiment item,yes,C:/Users/Ricsi/Documents/!!ResearchBMECOGSCI,prototype2.png,no,mono,no,18,no,black,no,no,None,null,768,legacy,xpyriment,osweb,1.3.3,None,enter,None,space,,,3011,12129,3011,23984,,,2,legacy,1632993686913,1024,2,48000,-16,experiment,prototype4.png,70,1113,visual_patterns_original,1,odd,91,123566,120561,91,91,206379,207881,201363,125072,201363,204375,91,,,,,,,visual_patterns,0,27069,9,yes,1366,2626
0,0,2738,2738,white,70,Default,no,xpyriment,legacy,legacy,0,70,1,1085,OSWeb experiment,uniform,undefined,0,0,0,0,24,24,24,0,0,9,9,9,9,0,9,9,0,,,,,0,,,Thu Sep 30 2021 11:34:10 GMT+0200 (Central European Summer Time),The main experiment item,yes,C:/Users/Ricsi/Documents/!!ResearchBMECOGSCI,prototype2.png,no,mono,no,18,no,black,no,no,None,null,768,legacy,xpyriment,osweb,1.3.3,left,enter,left,space,,,308,12129,308,23984,,,2,legacy,1632993686913,1024,2,48000,-16,experiment,p5sarrsha1.png,70,1113,visual_patterns_original,1,odd,91,123566,120561,91,91,210220,211723,207901,125072,207901,208216,91,,,,,,,visual_patterns,0,27377,10,yes,1366,2626
0,0,2691,2691,white,70,Default,no,xpyriment,legacy,legacy,0,70,1,1085,OSWeb experiment,uniform,undefined,0,0,0,0,24,24,24,0,0,10,10,10,10,0,10,10,0,,,,,0,,,Thu Sep 30 2021 11:34:10 GMT+0200 (Central European Summer Time),The main experiment item,yes,C:/Users/Ricsi/Documents/!!ResearchBMECOGSCI,prototype2.png,no,mono,no,18,no,black,no,no,None,null,768,legacy,xpyriment,osweb,1.3.3,left,enter,left,space,,,2222,12129,2222,23984,,,2,legacy,1632993686913,1024,2,48000,-16,experiment,p5sarrcol1.png,70,1113,visual_patterns_original,1,odd,91,123566,120561,91,91,215982,217485,211742,125072,211742,213978,91,,,,,,,visual_patterns,0,29599,11,yes,1366,2626
0,0,2552,2552,white,70,Default,no,xpyriment,legacy,legacy,0,70,1,1085,OSWeb experiment,uniform,undefined,0,0,0,0,24,24,24,0,0,11,11,11,11,0,11,11,0,,,,,0,,,Thu Sep 30 2021 11:34:10 GMT+0200 (Central European Summer Time),The main experiment item,yes,C:/Users/Ricsi/Documents/!!ResearchBMECOGSCI,prototype2.png,no,mono,no,18,no,black,no,no,None,null,768,legacy,xpyriment,osweb,1.3.3,right,enter,right,space,,,1019,12129,1019,23984,,,2,legacy,1632993686913,1024,2,48000,-16,experiment,p8sarr2.png,70,1113,visual_patterns_original,1,odd,91,123566,120561,91,91,220542,222045,217505,125072,217505,218538,91,,,,,,,visual_patterns,0,30618,12,yes,1366,2626
0,0,2541,2541,white,70,Default,no,xpyriment,legacy,legacy,0,70,1,1085,OSWeb experiment,uniform,undefined,0,0,0,0,24,24,24,0,0,12,12,12,12,0,12,12,0,,,,,0,,,Thu Sep 30 2021 11:34:10 GMT+0200 (Central European Summer Time),The main experiment item,yes,C:/Users/Ricsi/Documents/!!ResearchBMECOGSCI,prototype2.png,no,mono,no,18,no,black,no,no,None,null,768,legacy,xpyriment,osweb,1.3.3,right,enter,right,space,,,2409,12129,2409,23984,,,2,legacy,1632993686913,1024,2,48000,-16,experiment,p5sarrshacol2.png,70,1113,visual_patterns_original,1,odd,91,123566,120561,91,91,226488,227991,222064,125072,222064,224484,91,,,,,,,visual_patterns,0,33027,13,yes,1366,2626
0,0,2476,2476,white,70,Default,no,xpyriment,legacy,legacy,0,70,1,1085,OSWeb experiment,uniform,undefined,0,0,0,0,24,24,24,0,0,13,13,13,13,0,13,13,0,,,,,0,,,Thu Sep 30 2021 11:34:10 GMT+0200 (Central European Summer Time),The main experiment item,yes,C:/Users/Ricsi/Documents/!!ResearchBMECOGSCI,prototype2.png,no,mono,no,18,no,black,no,no,None,null,768,legacy,xpyriment,osweb,1.3.3,left,enter,left,space,,,1643,12129,1643,23984,,,2,legacy,1632993686913,1024,2,48000,-16,experiment,p8sarr1.png,70,1113,visual_patterns_original,1,odd,91,123566,120561,91,91,231666,233169,228006,125072,228006,229662,91,,,,,,,visual_patterns,0,34670,14,yes,1366,2626
0,0,2441,2441,white,70,Default,no,xpyriment,legacy,legacy,0,70,1,1085,OSWeb experiment,uniform,undefined,0,0,0,0,24,24,24,0,0,14,14,14,14,0,14,14,0,,,,,0,,,Thu Sep 30 2021 11:34:10 GMT+0200 (Central European Summer Time),The main experiment item,yes,C:/Users/Ricsi/Documents/!!ResearchBMECOGSCI,prototype2.png,no,mono,no,18,no,black,no,no,None,null,768,legacy,xpyriment,osweb,1.3.3,right,enter,right,space,,,1948,12129,1948,23984,,,2,legacy,1632993686913,1024,2,48000,-16,experiment,p3sarrcol1.png,70,1113,visual_patterns_original,1,odd,91,123566,120561,91,91,237144,238647,233187,125072,233187,235141,91,,,,,,,visual_patterns,0,36618,15,yes,1366,2626
0,0,2454,2454,white,70,Default,no,xpyriment,legacy,legacy,0,70,1,1085,OSWeb experiment,uniform,undefined,0,0,0,0,24,24,24,0,0,15,15,15,15,0,15,15,0,,,,,0,,,Thu Sep 30 2021 11:34:10 GMT+0200 (Central European Summer Time),The main experiment item,yes,C:/Users/Ricsi/Documents/!!ResearchBMECOGSCI,prototype2.png,no,mono,no,18,no,black,no,no,None,null,768,legacy,xpyriment,osweb,1.3.3,right,enter,right,space,,,2653,12129,2653,23984,,,2,legacy,1632993686913,1024,2,48000,-16,experiment,prototype1.png,70,1113,visual_patterns_original,1,odd,91,123566,120561,91,91,243325,244827,238662,125072,238662,241321,91,,,,,,,visual_patterns,0,39271,16,yes,1366,2626
0,0,2411,2411,white,70,Default,no,xpyriment,legacy,legacy,0,70,1,1085,OSWeb experiment,uniform,undefined,0,0,0,0,24,24,24,0,0,16,16,16,16,0,16,16,0,,,,,0,,,Thu Sep 30 2021 11:34:10 GMT+0200 (Central European Summer Time),The main experiment item,yes,C:/Users/Ricsi/Documents/!!ResearchBMECOGSCI,prototype2.png,no,mono,no,18,no,black,no,no,None,null,768,legacy,xpyriment,osweb,1.3.3,left,enter,left,space,,,1722,12129,1722,23984,,,2,legacy,1632993686913,1024,2,48000,-16,experiment,p2sarr2.png,70,1113,visual_patterns_original,1,odd,91,123566,120561,91,91,248586,250089,244847,125072,244846,246582,91,,,,,,,visual_patterns,0,40993,17,yes,1366,2626
0,0,2364,2364,white,70,Default,no,xpyriment,legacy,legacy,0,70,1,1085,OSWeb experiment,uniform,undefined,0,0,0,0,24,24,24,0,0,17,17,17,17,0,17,17,0,,,,,0,,,Thu Sep 30 2021 11:34:10 GMT+0200 (Central European Summer Time),The main experiment item,yes,C:/Users/Ricsi/Documents/!!ResearchBMECOGSCI,prototype2.png,no,mono,no,18,no,black,no,no,None,null,768,legacy,xpyriment,osweb,1.3.3,left,enter,left,space,,,1551,12129,1551,23984,,,2,legacy,1632993686913,1024,2,48000,-16,experiment,p3sarrsha2.png,70,1113,visual_patterns_original,1,odd,91,123566,120561,91,91,253680,255183,250118,125072,250118,251676,91,,,,,,,visual_patterns,0,42544,18,yes,1366,2626
0,0,2302,2302,white,70,Default,no,xpyriment,legacy,legacy,0,70,1,1085,OSWeb experiment,uniform,undefined,0,0,0,0,24,24,24,0,0,18,18,18,18,0,18,18,0,,,,,0,,,Thu Sep 30 2021 11:34:10 GMT+0200 (Central European Summer Time),The main experiment item,yes,C:/Users/Ricsi/Documents/!!ResearchBMECOGSCI,prototype2.png,no,mono,no,18,no,black,no,no,None,null,768,legacy,xpyriment,osweb,1.3.3,left,enter,left,space,,,1187,12129,1187,23984,,,2,legacy,1632993686913,1024,2,48000,-16,experiment,prototype4.png,70,1113,visual_patterns_original,1,odd,91,123566,120561,91,91,258390,259893,255196,125072,255196,256386,91,,,,,,,visual_patterns,0,43731,19,yes,1366,2626
0,0,2244,2244,white,70,Default,no,xpyriment,legacy,legacy,0,70,1,1085,OSWeb experiment,uniform,undefined,0,0,0,0,24,24,24,0,0,19,19,19,19,0,19,19,0,,,,,0,,,Thu Sep 30 2021 11:34:10 GMT+0200 (Central European Summer Time),The main experiment item,yes,C:/Users/Ricsi/Documents/!!ResearchBMECOGSCI,prototype2.png,no,mono,no,18,no,black,no,no,None,null,768,legacy,xpyriment,osweb,1.3.3,left,enter,left,space,,,1148,12129,1148,23984,,,2,legacy,1632993686913,1024,2,48000,-16,experiment,p3sarrsha1.png,70,1113,visual_patterns_original,1,odd,91,123566,120561,91,91,263067,264570,259911,125072,259911,261065,91,,,,,,,visual_patterns,0,44879,20,yes,1366,2626
0,0,2242,2242,white,70,Default,no,xpyriment,legacy,legacy,0,70,1,1085,OSWeb experiment,uniform,undefined,0,0,0,0,24,24,24,0,0,20,20,20,20,0,20,20,0,,,,,0,,,Thu Sep 30 2021 11:34:10 GMT+0200 (Central European Summer Time),The main experiment item,yes,C:/Users/Ricsi/Documents/!!ResearchBMECOGSCI,prototype2.png,no,mono,no,18,no,black,no,no,None,null,768,legacy,xpyriment,osweb,1.3.3,left,enter,left,space,,,2193,12129,2193,23984,,,2,legacy,1632993686913,1024,2,48000,-16,experiment,prototype2.png,70,1113,visual_patterns_original,1,odd,91,123566,120561,91,91,268796,270299,264583,125072,264583,266792,91,,,,,,,visual_patterns,0,47072,21,yes,1366,2626
0,0,2230,2230,white,70,Default,no,xpyriment,legacy,legacy,0,70,1,1085,OSWeb experiment,uniform,undefined,0,0,0,0,24,24,24,0,0,21,21,21,21,0,21,21,0,,,,,0,,,Thu Sep 30 2021 11:34:10 GMT+0200 (Central European Summer Time),The main experiment item,yes,C:/Users/Ricsi/Documents/!!ResearchBMECOGSCI,prototype2.png,no,mono,no,18,no,black,no,no,None,null,768,legacy,xpyriment,osweb,1.3.3,right,enter,right,space,,,1983,12129,1983,23984,,,2,legacy,1632993686913,1024,2,48000,-16,experiment,p4sarrcol2.png,70,1113,visual_patterns_original,1,odd,91,123566,120561,91,91,274308,275811,270317,125072,270317,272304,91,,,,,,,visual_patterns,0,49055,22,yes,1366,2626
0,0,2184,2184,white,70,Default,no,xpyriment,legacy,legacy,0,70,1,1085,OSWeb experiment,uniform,undefined,0,0,0,0,24,24,24,0,0,22,22,22,22,0,22,22,0,,,,,0,,,Thu Sep 30 2021 11:34:10 GMT+0200 (Central European Summer Time),The main experiment item,yes,C:/Users/Ricsi/Documents/!!ResearchBMECOGSCI,prototype2.png,no,mono,no,18,no,black,no,no,None,null,768,legacy,xpyriment,osweb,1.3.3,left,enter,left,space,,,1185,12129,1185,23984,,,2,legacy,1632993686913,1024,2,48000,-16,experiment,p5sarrshacol1.png,70,1113,visual_patterns_original,1,odd,91,123566,120561,91,91,279035,280538,275830,125072,275829,277031,91,,,,,,,visual_patterns,0,50240,23,yes,1366,2626
0,0,2154,2154,white,70,Default,no,xpyriment,legacy,legacy,0,70,1,1085,OSWeb experiment,uniform,undefined,0,0,0,0,24,24,24,0,0,23,23,23,23,0,23,23,0,,,,,0,,,Thu Sep 30 2021 11:34:10 GMT+0200 (Central European Summer Time),The main experiment item,yes,C:/Users/Ricsi/Documents/!!ResearchBMECOGSCI,prototype2.png,no,mono,no,18,no,black,no,no,None,null,768,legacy,xpyriment,osweb,1.3.3,left,enter,left,space,,,1448,12129,1448,23984,,,2,legacy,1632993686913,1024,2,48000,-16,experiment,prototype2.png,70,1113,visual_patterns_original,1,odd,91,123566,120561,91,91,284012,285515,280551,125072,280550,282009,91,,,,,,,visual_patterns,0,51688,24,yes,1366,2626
0,0,2132,2132,white,70,Default,no,xpyriment,legacy,legacy,0,70,1,1085,OSWeb experiment,uniform,undefined,0,0,0,0,24,24,24,0,0,24,24,24,24,0,24,24,0,,,,,0,,,Thu Sep 30 2021 11:34:10 GMT+0200 (Central European Summer Time),The main experiment item,yes,C:/Users/Ricsi/Documents/!!ResearchBMECOGSCI,prototype2.png,no,mono,no,18,no,black,no,no,None,null,768,legacy,xpyriment,osweb,1.3.3,left,enter,left,space,,,1607,12129,1607,23984,,,2,legacy,1632993686913,1024,2,48000,-16,experiment,p4sarrsha2.png,70,1113,visual_patterns_original,1,odd,91,123566,120561,91,91,289157,290660,285531,125072,285531,287153,91,,,,,,,visual_patterns,0,53295,25,yes,1366,2626
0,0,2129,2129,white,70,Default,no,xpyriment,legacy,legacy,0,70,1,1085,OSWeb experiment,uniform,undefined,0,0,0,0,24,24,24,0,0,25,25,25,25,0,25,25,0,,,,,0,,,Thu Sep 30 2021 11:34:10 GMT+0200 (Central European Summer Time),The main experiment item,yes,C:/Users/Ricsi/Documents/!!ResearchBMECOGSCI,prototype2.png,no,mono,no,18,no,black,no,no,None,null,768,legacy,xpyriment,osweb,1.3.3,right,enter,right,space,,,2064,12129,2064,23984,,,2,legacy,1632993686913,1024,2,48000,-16,experiment,p9sarr1.png,70,1113,visual_patterns_original,1,odd,91,123566,120561,91,91,294752,296255,290675,125072,290675,292748,91,,,,,,,visual_patterns,0,55359,26,yes,1366,2626
0,0,2106,2106,white,70,Default,no,xpyriment,legacy,legacy,0,70,1,1085,OSWeb experiment,uniform,undefined,0,0,0,0,24,24,24,0,0,26,26,26,26,0,26,26,0,,,,,0,,,Thu Sep 30 2021 11:34:10 GMT+0200 (Central European Summer Time),The main experiment item,yes,C:/Users/Ricsi/Documents/!!ResearchBMECOGSCI,prototype2.png,no,mono,no,18,no,black,no,no,None,null,768,legacy,xpyriment,osweb,1.3.3,left,enter,left,space,,,1494,12129,1494,23984,,,2,legacy,1632993686913,1024,2,48000,-16,experiment,prototype1.png,70,1113,visual_patterns_original,1,odd,91,123566,120561,91,91,299780,301283,296268,125072,296268,297776,91,,,,,,,visual_patterns,0,56853,27,yes,1366,2626
0,0,2067,2067,white,70,Default,no,xpyriment,legacy,legacy,0,70,1,1085,OSWeb experiment,uniform,undefined,0,0,0,0,24,24,24,0,0,27,27,27,27,0,27,27,0,,,,,0,,,Thu Sep 30 2021 11:34:10 GMT+0200 (Central European Summer Time),The main experiment item,yes,C:/Users/Ricsi/Documents/!!ResearchBMECOGSCI,prototype2.png,no,mono,no,18,no,black,no,no,None,null,768,legacy,xpyriment,osweb,1.3.3,right,enter,right,space,,,1023,12129,1023,23984,,,2,legacy,1632993686913,1024,2,48000,-16,experiment,p4sarrcol1.png,70,1113,visual_patterns_original,1,odd,91,123566,120561,91,91,304340,305843,301299,125072,301299,302336,91,,,,,,,visual_patterns,0,57876,28,yes,1366,2626
0,0,2030,2030,white,70,Default,no,xpyriment,legacy,legacy,0,70,1,1085,OSWeb experiment,uniform,undefined,0,0,0,0,24,24,24,0,0,28,28,28,28,0,28,28,0,,,,,0,,,Thu Sep 30 2021 11:34:10 GMT+0200 (Central European Summer Time),The main experiment item,yes,C:/Users/Ricsi/Documents/!!ResearchBMECOGSCI,prototype2.png,no,mono,no,18,no,black,no,no,None,null,768,legacy,xpyriment,osweb,1.3.3,left,enter,left,space,,,988,12129,988,23984,,,2,legacy,1632993686913,1024,2,48000,-16,experiment,prototype4.png,70,1113,visual_patterns_original,1,odd,91,123566,120561,91,91,308849,310352,305855,125072,305855,306846,91,,,,,,,visual_patterns,0,58864,29,yes,1366,2626
0,0,1995,1995,white,70,Default,no,xpyriment,legacy,legacy,0,70,1,1085,OSWeb experiment,uniform,undefined,0,0,0,0,24,24,24,0,0,29,29,29,29,0,29,29,0,,,,,0,,,Thu Sep 30 2021 11:34:10 GMT+0200 (Central European Summer Time),The main experiment item,yes,C:/Users/Ricsi/Documents/!!ResearchBMECOGSCI,prototype2.png,no,mono,no,18,no,black,no,no,None,null,768,legacy,xpyriment,osweb,1.3.3,left,enter,left,space,,,1000,12129,1000,23984,,,2,legacy,1632993686913,1024,2,48000,-16,experiment,prototype5.png,70,1113,visual_patterns_original,1,odd,91,123566,120561,91,91,313376,314879,310364,125072,310364,311372,91,,,,,,,visual_patterns,0,59864,30,yes,1366,2626
0,0,2020,2020,white,70,Default,no,xpyriment,legacy,legacy,0,70,1,1085,OSWeb experiment,uniform,undefined,0,0,0,0,24,24,24,0,0,30,30,30,30,0,30,30,0,,,,,0,,,Thu Sep 30 2021 11:34:10 GMT+0200 (Central European Summer Time),The main experiment item,yes,C:/Users/Ricsi/Documents/!!ResearchBMECOGSCI,prototype2.png,no,mono,no,18,no,black,no,no,None,null,768,legacy,xpyriment,osweb,1.3.3,left,enter,left,space,,,2764,12129,2764,23984,,,2,legacy,1632993686913,1024,2,48000,-16,experiment,p5sarrcol2.png,70,1113,visual_patterns_original,1,odd,91,123566,120561,91,91,319673,321176,314896,125072,314895,317669,91,,,,,,,visual_patterns,0,62628,31,yes,1366,2626
0,0,1990,1990,white,70,Default,no,xpyriment,legacy,legacy,0,70,1,1085,OSWeb experiment,uniform,undefined,0,0,0,0,24,24,24,0,0,31,31,31,31,0,31,31,0,,,,,0,,,Thu Sep 30 2021 11:34:10 GMT+0200 (Central European Summer Time),The main experiment item,yes,C:/Users/Ricsi/Documents/!!ResearchBMECOGSCI,prototype2.png,no,mono,no,18,no,black,no,no,None,null,768,legacy,xpyriment,osweb,1.3.3,right,enter,right,space,,,1067,12129,1067,23984,,,2,legacy,1632993686913,1024,2,48000,-16,experiment,p2sarrsha2.png,70,1113,visual_patterns_original,1,odd,91,123566,120561,91,91,324266,325769,321192,125072,321191,322262,91,,,,,,,visual_patterns,0,63695,32,yes,1366,2626
0,0,1999,1999,white,70,Default,no,xpyriment,legacy,legacy,0,70,1,1085,OSWeb experiment,uniform,undefined,0,0,0,0,24,24,24,0,0,32,32,32,32,0,32,32,0,,,,,0,,,Thu Sep 30 2021 11:34:10 GMT+0200 (Central European Summer Time),The main experiment item,yes,C:/Users/Ricsi/Documents/!!ResearchBMECOGSCI,prototype2.png,no,mono,no,18,no,black,no,no,None,null,768,legacy,xpyriment,osweb,1.3.3,left,enter,left,space,,,2260,12129,2260,23984,,,2,legacy,1632993686913,1024,2,48000,-16,experiment,p5sarr1.png,70,1113,visual_patterns_original,1,odd,91,123566,120561,91,91,330062,331565,325793,125072,325793,328058,91,,,,,,,visual_patterns,0,65955,33,yes,1366,2626
0,0,1992,1992,white,70,Default,no,xpyriment,legacy,legacy,0,70,1,1085,OSWeb experiment,uniform,undefined,0,0,0,0,24,24,24,0,0,33,33,33,33,0,33,33,0,,,,,0,,,Thu Sep 30 2021 11:34:10 GMT+0200 (Central European Summer Time),The main experiment item,yes,C:/Users/Ricsi/Documents/!!ResearchBMECOGSCI,prototype2.png,no,mono,no,18,no,black,no,no,None,null,768,legacy,xpyriment,osweb,1.3.3,right,enter,right,space,,,1767,12129,1767,23984,,,2,legacy,1632993686913,1024,2,48000,-16,experiment,p3sarrshacol1.png,70,1113,visual_patterns_original,1,odd,91,123566,120561,91,91,335357,336860,331580,125072,331580,333353,91,,,,,,,visual_patterns,0,67722,34,yes,1366,2626
0,0,2021,2021,white,70,Default,no,xpyriment,legacy,legacy,0,70,1,1085,OSWeb experiment,uniform,undefined,0,0,0,0,24,24,24,0,0,34,34,34,34,0,34,34,0,,,,,0,,,Thu Sep 30 2021 11:34:10 GMT+0200 (Central European Summer Time),The main experiment item,yes,C:/Users/Ricsi/Documents/!!ResearchBMECOGSCI,prototype2.png,no,mono,no,18,no,black,no,no,None,null,768,legacy,xpyriment,osweb,1.3.3,None,enter,None,space,,,3002,12129,3002,23984,,,2,legacy,1632993686913,1024,2,48000,-16,experiment,prototype1.png,70,1113,visual_patterns_original,1,odd,91,123566,120561,91,91,341904,343407,336898,125072,336898,339901,91,,,,,,,visual_patterns,0,70724,35,yes,1366,2626
0,0,2031,2031,white,70,Default,no,xpyriment,legacy,legacy,0,70,1,1085,OSWeb experiment,uniform,undefined,0,0,0,0,24,24,24,0,0,35,35,35,35,0,35,35,0,,,,,0,,,Thu Sep 30 2021 11:34:10 GMT+0200 (Central European Summer Time),The main experiment item,yes,C:/Users/Ricsi/Documents/!!ResearchBMECOGSCI,prototype2.png,no,mono,no,18,no,black,no,no,None,null,768,legacy,xpyriment,osweb,1.3.3,right,enter,right,space,,,2398,12129,2398,23984,,,2,legacy,1632993686913,1024,2,48000,-16,experiment,p4sarrshacol1.png,70,1113,visual_patterns_original,1,odd,91,123566,120561,91,91,347834,349337,343425,125072,343425,345830,91,,,,,,,visual_patterns,0,73122,36,yes,1366,2626
0,0,2021,2021,white,70,Default,no,xpyriment,legacy,legacy,0,70,1,1085,OSWeb experiment,uniform,undefined,0,0,0,0,24,24,24,0,0,36,36,36,36,0,36,36,0,,,,,0,,,Thu Sep 30 2021 11:34:10 GMT+0200 (Central European Summer Time),The main experiment item,yes,C:/Users/Ricsi/Documents/!!ResearchBMECOGSCI,prototype2.png,no,mono,no,18,no,black,no,no,None,null,768,legacy,xpyriment,osweb,1.3.3,right,enter,right,space,,,1650,12129,1650,23984,,,2,legacy,1632993686913,1024,2,48000,-16,experiment,prototype3.png,70,1113,visual_patterns_original,1,odd,91,123566,120561,91,91,353012,354515,349350,125072,349350,351008,91,,,,,,,visual_patterns,0,74772,37,yes,1366,2626
0,0,2047,2047,white,70,Default,no,xpyriment,legacy,legacy,0,70,1,1085,OSWeb experiment,uniform,undefined,0,0,0,0,24,24,24,0,0,37,37,37,37,0,37,37,0,,,,,0,,,Thu Sep 30 2021 11:34:10 GMT+0200 (Central European Summer Time),The main experiment item,yes,C:/Users/Ricsi/Documents/!!ResearchBMECOGSCI,prototype2.png,no,mono,no,18,no,black,no,no,None,null,768,legacy,xpyriment,osweb,1.3.3,None,enter,None,space,,,3012,12129,3012,23984,,,2,legacy,1632993686913,1024,2,48000,-16,experiment,prototype3.png,70,1113,visual_patterns_original,1,odd,91,123566,120561,91,91,359542,361045,354526,125072,354526,357538,91,,,,,,,visual_patterns,0,77784,38,yes,1366,2626
0,0,2016,2016,white,70,Default,no,xpyriment,legacy,legacy,0,70,1,1085,OSWeb experiment,uniform,undefined,0,0,0,0,24,24,24,0,0,38,38,38,38,0,38,38,0,,,,,0,,,Thu Sep 30 2021 11:34:10 GMT+0200 (Central European Summer Time),The main experiment item,yes,C:/Users/Ricsi/Documents/!!ResearchBMECOGSCI,prototype2.png,no,mono,no,18,no,black,no,no,None,null,768,legacy,xpyriment,osweb,1.3.3,right,enter,right,space,,,853,12129,853,23984,,,2,legacy,1632993686913,1024,2,48000,-16,experiment,p7sarr1.png,70,1113,visual_patterns_original,1,odd,91,123566,120561,91,91,363935,365438,361063,125072,361063,361931,91,,,,,,,visual_patterns,0,78637,39,yes,1366,2626
0,0,1991,1991,white,70,Default,no,xpyriment,legacy,legacy,0,70,1,1085,OSWeb experiment,uniform,undefined,0,0,0,0,24,24,24,0,0,39,39,39,39,0,39,39,0,,,,,0,,,Thu Sep 30 2021 11:34:10 GMT+0200 (Central European Summer Time),The main experiment item,yes,C:/Users/Ricsi/Documents/!!ResearchBMECOGSCI,prototype2.png,no,mono,no,18,no,black,no,no,None,null,768,legacy,xpyriment,osweb,1.3.3,left,enter,left,space,,,1022,12129,1022,23984,,,2,legacy,1632993686913,1024,2,48000,-16,experiment,p1sarrsha1.png,70,1113,visual_patterns_original,1,odd,91,123566,120561,91,91,368495,369998,365454,125072,365454,366491,91,,,,,,,visual_patterns,0,79659,40,yes,1366,2626
0,0,1965,1965,white,70,Default,no,xpyriment,legacy,legacy,0,70,1,1085,OSWeb experiment,uniform,undefined,0,0,0,0,24,24,24,0,0,40,40,40,40,0,40,40,0,,,,,0,,,Thu Sep 30 2021 11:34:10 GMT+0200 (Central European Summer Time),The main experiment item,yes,C:/Users/Ricsi/Documents/!!ResearchBMECOGSCI,prototype2.png,no,mono,no,18,no,black,no,no,None,null,768,legacy,xpyriment,osweb,1.3.3,left,enter,left,space,,,910,12129,910,23984,,,2,legacy,1632993686913,1024,2,48000,-16,experiment,prototype5.png,70,1113,visual_patterns_original,1,odd,91,123566,120561,91,91,372938,374441,370010,125072,370010,370934,91,,,,,,,visual_patterns,0,80569,41,yes,1366,2626
0,0,1948,1948,white,70,Default,no,xpyriment,legacy,legacy,0,70,1,1085,OSWeb experiment,uniform,undefined,0,0,0,0,24,24,24,0,0,41,41,41,41,0,41,41,0,,,,,0,,,Thu Sep 30 2021 11:34:10 GMT+0200 (Central European Summer Time),The main experiment item,yes,C:/Users/Ricsi/Documents/!!ResearchBMECOGSCI,prototype2.png,no,mono,no,18,no,black,no,no,None,null,768,legacy,xpyriment,osweb,1.3.3,right,enter,right,space,,,1252,12129,1252,23984,,,2,legacy,1632993686913,1024,2,48000,-16,experiment,p3sarrshacol2.png,70,1113,visual_patterns_original,1,odd,91,123566,120561,91,91,377732,379235,374459,125072,374457,375728,91,,,,,,,visual_patterns,0,81821,42,yes,1366,2626
0,0,1935,1935,white,70,Default,no,xpyriment,legacy,legacy,0,70,1,1085,OSWeb experiment,uniform,undefined,0,0,0,0,24,24,24,0,0,42,42,42,42,0,42,42,0,,,,,0,,,Thu Sep 30 2021 11:34:10 GMT+0200 (Central European Summer Time),The main experiment item,yes,C:/Users/Ricsi/Documents/!!ResearchBMECOGSCI,prototype2.png,no,mono,no,18,no,black,no,no,None,null,768,legacy,xpyriment,osweb,1.3.3,right,enter,right,space,,,1381,12129,1381,23984,,,2,legacy,1632993686913,1024,2,48000,-16,experiment,p3sarrcol2.png,70,1113,visual_patterns_original,1,odd,91,123566,120561,91,91,382676,384179,379276,125072,379276,380672,91,,,,,,,visual_patterns,0,83202,43,yes,1366,2626
0,0,1951,1951,white,70,Default,no,xpyriment,legacy,legacy,0,70,1,1085,OSWeb experiment,uniform,undefined,0,0,0,0,24,24,24,0,0,43,43,43,43,0,43,43,0,,,,,0,,,Thu Sep 30 2021 11:34:10 GMT+0200 (Central European Summer Time),The main experiment item,yes,C:/Users/Ricsi/Documents/!!ResearchBMECOGSCI,prototype2.png,no,mono,no,18,no,black,no,no,None,null,768,legacy,xpyriment,osweb,1.3.3,right,enter,right,space,,,2643,12129,2643,23984,,,2,legacy,1632993686913,1024,2,48000,-16,experiment,p3sarr2.png,70,1113,visual_patterns_original,1,odd,91,123566,120561,91,91,388856,390359,384194,125072,384194,386852,91,,,,,,,visual_patterns,0,85845,44,yes,1366,2626
0,0,1975,1975,white,70,Default,no,xpyriment,legacy,legacy,0,70,1,1085,OSWeb experiment,uniform,undefined,0,0,0,0,24,24,24,0,0,44,44,44,44,0,44,44,0,,,,,0,,,Thu Sep 30 2021 11:34:10 GMT+0200 (Central European Summer Time),The main experiment item,yes,C:/Users/Ricsi/Documents/!!ResearchBMECOGSCI,prototype2.png,no,mono,no,18,no,black,no,no,None,null,768,legacy,xpyriment,osweb,1.3.3,None,enter,None,space,,,3008,12129,3008,23984,,,2,legacy,1632993686913,1024,2,48000,-16,experiment,p2sarrsha1.png,70,1113,visual_patterns_original,1,odd,91,123566,120561,91,91,395387,396890,390374,125072,390374,393382,91,,,,,,,visual_patterns,0,88853,45,yes,1366,2626
0,0,1992,1992,white,70,Default,no,xpyriment,legacy,legacy,0,70,1,1085,OSWeb experiment,uniform,undefined,0,0,0,0,24,24,24,0,0,45,45,45,45,0,45,45,0,,,,,0,,,Thu Sep 30 2021 11:34:10 GMT+0200 (Central European Summer Time),The main experiment item,yes,C:/Users/Ricsi/Documents/!!ResearchBMECOGSCI,prototype2.png,no,mono,no,18,no,black,no,no,None,null,768,legacy,xpyriment,osweb,1.3.3,right,enter,right,space,,,2756,12129,2756,23984,,,2,legacy,1632993686913,1024,2,48000,-16,experiment,p4sarrsha1.png,70,1113,visual_patterns_original,1,odd,91,123566,120561,91,91,401667,403170,396905,125072,396905,399663,91,,,,,,,visual_patterns,0,91609,46,yes,1366,2626
0,0,1967,1967,white,70,Default,no,xpyriment,legacy,legacy,0,70,1,1085,OSWeb experiment,uniform,undefined,0,0,0,0,24,24,24,0,0,46,46,46,46,0,46,46,0,,,,,0,,,Thu Sep 30 2021 11:34:10 GMT+0200 (Central European Summer Time),The main experiment item,yes,C:/Users/Ricsi/Documents/!!ResearchBMECOGSCI,prototype2.png,no,mono,no,18,no,black,no,no,None,null,768,legacy,xpyriment,osweb,1.3.3,right,enter,right,space,,,843,12129,843,23984,,,2,legacy,1632993686913,1024,2,48000,-16,experiment,p1sarrcol1.png,70,1113,visual_patterns_original,1,odd,91,123566,120561,91,91,406043,407546,403185,125072,403185,404039,91,,,,,,,visual_patterns,0,92452,47,yes,1366,2626
0,0,1980,1980,white,70,Default,no,xpyriment,legacy,legacy,0,70,1,1085,OSWeb experiment,uniform,undefined,0,0,0,0,24,24,24,0,0,47,47,47,47,0,47,47,0,,,,,0,,,Thu Sep 30 2021 11:34:10 GMT+0200 (Central European Summer Time),The main experiment item,yes,C:/Users/Ricsi/Documents/!!ResearchBMECOGSCI,prototype2.png,no,mono,no,18,no,black,no,no,None,null,768,legacy,xpyriment,osweb,1.3.3,right,enter,right,space,,,2568,12129,2568,23984,,,2,legacy,1632993686913,1024,2,48000,-16,experiment,p1sarrsha2.png,70,1113,visual_patterns_original,1,odd,91,123566,120561,91,91,412139,413642,407564,125072,407564,410136,91,,,,,,,visual_patterns,0,95020,48,yes,1366,2626
0,0,1963,1963,white,70,Default,no,xpyriment,legacy,legacy,0,70,1,1085,OSWeb experiment,uniform,undefined,0,0,0,0,24,24,24,0,0,48,48,48,48,0,48,48,0,,,,,0,,,Thu Sep 30 2021 11:34:10 GMT+0200 (Central European Summer Time),The main experiment item,yes,C:/Users/Ricsi/Documents/!!ResearchBMECOGSCI,prototype2.png,no,mono,no,18,no,black,no,no,None,null,768,legacy,xpyriment,osweb,1.3.3,right,enter,right,space,,,1147,12129,1147,23984,,,2,legacy,1632993686913,1024,2,48000,-16,experiment,p7sarr2.png,70,1113,visual_patterns_original,1,odd,91,123566,120561,91,91,416816,418319,413660,125072,413659,414812,91,,,,,,,visual_patterns,0,96167,49,yes,1366,2626
0,0,1980,1980,white,70,Default,no,xpyriment,legacy,legacy,0,70,1,1085,OSWeb experiment,uniform,undefined,0,0,0,0,24,24,24,0,0,49,49,49,49,0,49,49,0,,,,,0,,,Thu Sep 30 2021 11:34:10 GMT+0200 (Central European Summer Time),The main experiment item,yes,C:/Users/Ricsi/Documents/!!ResearchBMECOGSCI,prototype2.png,no,mono,no,18,no,black,no,no,None,null,768,legacy,xpyriment,osweb,1.3.3,right,enter,right,space,,,2809,12129,2809,23984,,,2,legacy,1632993686913,1024,2,48000,-16,experiment,p4sarr1.png,70,1113,visual_patterns_original,1,odd,91,123566,120561,91,91,423163,424666,418334,125072,418334,421159,91,,,,,,,visual_patterns,0,98976,50,yes,1366,2626
0,0,1958,1958,white,70,Default,no,xpyriment,legacy,legacy,0,70,1,1085,OSWeb experiment,uniform,undefined,0,0,0,0,24,24,24,0,0,50,50,50,50,0,50,50,0,,,,,0,,,Thu Sep 30 2021 11:34:10 GMT+0200 (Central European Summer Time),The main experiment item,yes,C:/Users/Ricsi/Documents/!!ResearchBMECOGSCI,prototype2.png,no,mono,no,18,no,black,no,no,None,null,768,legacy,xpyriment,osweb,1.3.3,right,enter,right,space,,,902,12129,902,23984,,,2,legacy,1632993686913,1024,2,48000,-16,experiment,p10sarr1.png,70,1113,visual_patterns_original,1,odd,91,123566,120561,91,91,427606,429109,424685,125072,424685,425603,91,,,,,,,visual_patterns,0,99878,51,yes,1366,2626
0,0,1962,1962,white,70,Default,no,xpyriment,legacy,legacy,0,70,1,1085,OSWeb experiment,uniform,undefined,0,0,0,0,24,24,24,0,0,51,51,51,51,0,51,51,0,,,,,0,,,Thu Sep 30 2021 11:34:10 GMT+0200 (Central European Summer Time),The main experiment item,yes,C:/Users/Ricsi/Documents/!!ResearchBMECOGSCI,prototype2.png,no,mono,no,18,no,black,no,no,None,null,768,legacy,xpyriment,osweb,1.3.3,left,enter,left,space,,,2127,12129,2127,23984,,,2,legacy,1632993686913,1024,2,48000,-16,experiment,prototype3.png,70,1113,visual_patterns_original,1,odd,91,123566,120561,91,91,433287,434788,429139,125072,429139,431281,91,,,,,,,visual_patterns,0,102005,52,yes,1366,2626
0,0,1967,1967,white,70,Default,no,xpyriment,legacy,legacy,0,70,1,1085,OSWeb experiment,uniform,undefined,0,0,0,0,24,24,24,0,0,52,52,52,52,0,52,52,0,,,,,0,,,Thu Sep 30 2021 11:34:10 GMT+0200 (Central European Summer Time),The main experiment item,yes,C:/Users/Ricsi/Documents/!!ResearchBMECOGSCI,prototype2.png,no,mono,no,18,no,black,no,no,None,null,768,legacy,xpyriment,osweb,1.3.3,right,enter,right,space,,,2256,12129,2256,23984,,,2,legacy,1632993686913,1024,2,48000,-16,experiment,p1sarr1.png,70,1113,visual_patterns_original,1,odd,91,123566,120561,91,91,439081,440584,434804,125072,434804,437076,91,,,,,,,visual_patterns,0,104261,53,yes,1366,2626
0,0,1951,1951,white,70,Default,no,xpyriment,legacy,legacy,0,70,1,1085,OSWeb experiment,uniform,undefined,0,0,0,0,24,24,24,0,0,53,53,53,53,0,53,53,0,,,,,0,,,Thu Sep 30 2021 11:34:10 GMT+0200 (Central European Summer Time),The main experiment item,yes,C:/Users/Ricsi/Documents/!!ResearchBMECOGSCI,prototype2.png,no,mono,no,18,no,black,no,no,None,null,768,legacy,xpyriment,osweb,1.3.3,right,enter,right,space,,,1096,12129,1096,23984,,,2,legacy,1632993686913,1024,2,48000,-16,experiment,p1sarrcol2.png,70,1113,visual_patterns_original,1,odd,91,123566,120561,91,91,443708,445211,440602,125072,440602,441704,91,,,,,,,visual_patterns,0,105357,54,yes,1366,2626
0,0,1965,1965,white,70,Default,no,xpyriment,legacy,legacy,0,70,1,1085,OSWeb experiment,uniform,undefined,0,0,0,0,24,24,24,0,0,54,54,54,54,0,54,54,0,,,,,0,,,Thu Sep 30 2021 11:34:10 GMT+0200 (Central European Summer Time),The main experiment item,yes,C:/Users/Ricsi/Documents/!!ResearchBMECOGSCI,prototype2.png,no,mono,no,18,no,black,no,no,None,null,768,legacy,xpyriment,osweb,1.3.3,right,enter,right,space,,,2691,12129,2691,23984,,,2,legacy,1632993686913,1024,2,48000,-16,experiment,p2sarrcol2.png,70,1113,visual_patterns_original,1,odd,91,123566,120561,91,91,449938,451441,445226,125072,445226,447934,91,,,,,,,visual_patterns,0,108048,55,yes,1366,2626
0,0,1944,1944,white,70,Default,no,xpyriment,legacy,legacy,0,70,1,1085,OSWeb experiment,uniform,undefined,0,0,0,0,24,24,24,0,0,55,55,55,55,0,55,55,0,,,,,0,,,Thu Sep 30 2021 11:34:10 GMT+0200 (Central European Summer Time),The main experiment item,yes,C:/Users/Ricsi/Documents/!!ResearchBMECOGSCI,prototype2.png,no,mono,no,18,no,black,no,no,None,null,768,legacy,xpyriment,osweb,1.3.3,left,enter,left,space,,,792,12129,792,23984,,,2,legacy,1632993686913,1024,2,48000,-16,experiment,prototype4.png,70,1113,visual_patterns_original,1,odd,91,123566,120561,91,91,454264,455767,451453,125072,451453,452260,91,,,,,,,visual_patterns,0,108840,56,yes,1366,2626
0,0,1950,1950,white,70,Default,no,xpyriment,legacy,legacy,0,70,1,1085,OSWeb experiment,uniform,undefined,0,0,0,0,24,24,24,0,0,56,56,56,56,0,56,56,0,,,,,0,,,Thu Sep 30 2021 11:34:10 GMT+0200 (Central European Summer Time),The main experiment item,yes,C:/Users/Ricsi/Documents/!!ResearchBMECOGSCI,prototype2.png,no,mono,no,18,no,black,no,no,None,null,768,legacy,xpyriment,osweb,1.3.3,right,enter,right,space,,,2335,12129,2335,23984,,,2,legacy,1632993686913,1024,2,48000,-16,experiment,p2sarrshacol1.png,70,1113,visual_patterns_original,1,odd,91,123566,120561,91,91,460126,461629,455782,125072,455782,458123,91,,,,,,,visual_patterns,0,111175,57,yes,1366,2626
0,0,1938,1938,white,70,Default,no,xpyriment,legacy,legacy,0,70,1,1085,OSWeb experiment,uniform,undefined,0,0,0,0,24,24,24,0,0,57,57,57,57,0,57,57,0,,,,,0,,,Thu Sep 30 2021 11:34:10 GMT+0200 (Central European Summer Time),The main experiment item,yes,C:/Users/Ricsi/Documents/!!ResearchBMECOGSCI,prototype2.png,no,mono,no,18,no,black,no,no,None,null,768,legacy,xpyriment,osweb,1.3.3,left,enter,left,space,,,1210,12129,1210,23984,,,2,legacy,1632993686913,1024,2,48000,-16,experiment,prototype5.png,70,1113,visual_patterns_original,1,odd,91,123566,120561,91,91,464870,466373,461649,125072,461649,462866,91,,,,,,,visual_patterns,0,112385,58,yes,1366,2626
0,0,1933,1933,white,70,Default,no,xpyriment,legacy,legacy,0,70,1,1085,OSWeb experiment,uniform,undefined,0,0,0,0,24,24,24,0,0,58,58,58,58,0,58,58,0,,,,,0,,,Thu Sep 30 2021 11:34:10 GMT+0200 (Central European Summer Time),The main experiment item,yes,C:/Users/Ricsi/Documents/!!ResearchBMECOGSCI,prototype2.png,no,mono,no,18,no,black,no,no,None,null,768,legacy,xpyriment,osweb,1.3.3,left,enter,left,space,,,1682,12129,1682,23984,,,2,legacy,1632993686913,1024,2,48000,-16,experiment,prototype2.png,70,1113,visual_patterns_original,1,odd,91,123566,120561,91,91,470081,471584,466393,125072,466392,468077,91,,,,,,,visual_patterns,0,114067,59,yes,1366,2626
0,0,1922,1922,white,70,Default,no,xpyriment,legacy,legacy,0,70,1,1085,OSWeb experiment,uniform,undefined,0,0,0,0,24,24,24,0,0,59,59,59,59,0,59,59,0,,,,,0,,,Thu Sep 30 2021 11:34:10 GMT+0200 (Central European Summer Time),The main experiment item,yes,C:/Users/Ricsi/Documents/!!ResearchBMECOGSCI,prototype2.png,no,mono,no,18,no,black,no,no,None,null,768,legacy,xpyriment,osweb,1.3.3,left,enter,left,space,,,1243,12129,1243,23984,,,2,legacy,1632993686913,1024,2,48000,-16,experiment,prototype5.png,70,1113,visual_patterns_original,1,odd,91,123566,120561,91,91,474875,476378,471624,125072,471624,472871,91,,,,,,,visual_patterns,0,115310,60,yes,1366,2626
0,0,1940,1940,white,70,Default,no,xpyriment,legacy,legacy,0,70,1,1085,OSWeb experiment,uniform,undefined,0,0,0,0,24,24,24,0,0,60,60,60,60,0,60,60,0,,,,,0,,,Thu Sep 30 2021 11:34:10 GMT+0200 (Central European Summer Time),The main experiment item,yes,C:/Users/Ricsi/Documents/!!ResearchBMECOGSCI,prototype2.png,no,mono,no,18,no,black,no,no,None,null,768,legacy,xpyriment,osweb,1.3.3,None,enter,None,space,,,3004,12129,3004,23984,,,2,legacy,1632993686913,1024,2,48000,-16,experiment,p1sarrshacol2.png,70,1113,visual_patterns_original,1,odd,91,123566,120561,91,91,481406,482909,476397,125072,476397,479402,91,,,,,,,visual_patterns,0,118314,61,yes,1366,2626
0,0,1925,1925,white,70,Default,no,xpyriment,legacy,legacy,0,70,1,1085,OSWeb experiment,uniform,undefined,0,0,0,0,24,24,24,0,0,61,61,61,61,0,61,61,0,,,,,0,,,Thu Sep 30 2021 11:34:10 GMT+0200 (Central European Summer Time),The main experiment item,yes,C:/Users/Ricsi/Documents/!!ResearchBMECOGSCI,prototype2.png,no,mono,no,18,no,black,no,no,None,null,768,legacy,xpyriment,osweb,1.3.3,right,enter,right,space,,,1031,12129,1031,23984,,,2,legacy,1632993686913,1024,2,48000,-16,experiment,p2sarrcol1.png,70,1113,visual_patterns_original,1,odd,91,123566,120561,91,91,485966,487469,482923,125072,482923,483962,91,,,,,,,visual_patterns,0,119345,62,yes,1366,2626
0,0,1921,1921,white,70,Default,no,xpyriment,legacy,legacy,0,70,1,1085,OSWeb experiment,uniform,undefined,0,0,0,0,24,24,24,0,0,62,62,62,62,0,62,62,0,,,,,0,,,Thu Sep 30 2021 11:34:10 GMT+0200 (Central European Summer Time),The main experiment item,yes,C:/Users/Ricsi/Documents/!!ResearchBMECOGSCI,prototype2.png,no,mono,no,18,no,black,no,no,None,null,768,legacy,xpyriment,osweb,1.3.3,right,enter,right,space,,,1686,12129,1686,23984,,,2,legacy,1632993686913,1024,2,48000,-16,experiment,p5sarr2.png,70,1113,visual_patterns_original,1,odd,91,123566,120561,91,91,491177,492680,487484,125072,487484,489173,91,,,,,,,visual_patterns,0,121031,63,yes,1366,2626
0,0,1909,1909,white,70,Default,no,xpyriment,legacy,legacy,0,70,1,1085,OSWeb experiment,uniform,undefined,0,0,0,0,24,24,24,0,0,63,63,63,63,0,63,63,0,,,,,0,,,Thu Sep 30 2021 11:34:10 GMT+0200 (Central European Summer Time),The main experiment item,yes,C:/Users/Ricsi/Documents/!!ResearchBMECOGSCI,prototype2.png,no,mono,no,18,no,black,no,no,None,null,768,legacy,xpyriment,osweb,1.3.3,right,enter,right,space,,,1113,12129,1113,23984,,,2,legacy,1632993686913,1024,2,48000,-16,experiment,p10sarr2.png,70,1113,visual_patterns_original,1,odd,91,123566,120561,91,91,495820,497323,492695,125072,492695,493816,91,,,,,,,visual_patterns,0,122144,64,yes,1366,2626
0,0,1902,1902,white,70,Default,no,xpyriment,legacy,legacy,0,70,1,1085,OSWeb experiment,uniform,undefined,0,0,0,0,24,24,24,0,0,64,64,64,64,0,64,64,0,,,,,0,,,Thu Sep 30 2021 11:34:10 GMT+0200 (Central European Summer Time),The main experiment item,yes,C:/Users/Ricsi/Documents/!!ResearchBMECOGSCI,prototype2.png,no,mono,no,18,no,black,no,no,None,null,768,legacy,xpyriment,osweb,1.3.3,left,enter,left,space,,,1496,12129,1496,23984,,,2,legacy,1632993686913,1024,2,48000,-16,experiment,prototype1.png,70,1113,visual_patterns_original,1,odd,91,123566,120561,91,91,500848,502351,497335,125072,497335,498844,91,,,,,,,visual_patterns,0,123640,65,yes,1366,2626
0,0,1890,1890,white,70,Default,no,xpyriment,legacy,legacy,0,70,1,1085,OSWeb experiment,uniform,undefined,0,0,0,0,24,24,24,0,0,65,65,65,65,0,65,65,0,,,,,0,,,Thu Sep 30 2021 11:34:10 GMT+0200 (Central European Summer Time),The main experiment item,yes,C:/Users/Ricsi/Documents/!!ResearchBMECOGSCI,prototype2.png,no,mono,no,18,no,black,no,no,None,null,768,legacy,xpyriment,osweb,1.3.3,left,enter,left,space,,,1105,12129,1105,23984,,,2,legacy,1632993686913,1024,2,48000,-16,experiment,prototype4.png,70,1113,visual_patterns_original,1,odd,91,123566,120561,91,91,505475,506977,502363,125072,502363,503470,91,,,,,,,visual_patterns,0,124745,66,yes,1366,2626
0,0,1896,1896,white,70,Default,no,xpyriment,legacy,legacy,0,70,1,1085,OSWeb experiment,uniform,undefined,0,0,0,0,24,24,24,0,0,66,66,66,66,0,66,66,0,,,,,0,,,Thu Sep 30 2021 11:34:10 GMT+0200 (Central European Summer Time),The main experiment item,yes,C:/Users/Ricsi/Documents/!!ResearchBMECOGSCI,prototype2.png,no,mono,no,18,no,black,no,no,None,null,768,legacy,xpyriment,osweb,1.3.3,left,enter,left,space,,,2257,12129,2257,23984,,,2,legacy,1632993686913,1024,2,48000,-16,experiment,p2sarrshacol2.png,70,1113,visual_patterns_original,1,odd,91,123566,120561,91,91,511270,512773,506995,125072,506995,509266,91,,,,,,,visual_patterns,0,127002,67,yes,1366,2626
0,0,1889,1889,white,70,Default,no,xpyriment,legacy,legacy,0,70,1,1085,OSWeb experiment,uniform,undefined,0,0,0,0,24,24,24,0,0,67,67,67,67,0,67,67,0,,,,,0,,,Thu Sep 30 2021 11:34:10 GMT+0200 (Central European Summer Time),The main experiment item,yes,C:/Users/Ricsi/Documents/!!ResearchBMECOGSCI,prototype2.png,no,mono,no,18,no,black,no,no,None,null,768,legacy,xpyriment,osweb,1.3.3,right,enter,right,space,,,1474,12129,1474,23984,,,2,legacy,1632993686913,1024,2,48000,-16,experiment,p1sarr2.png,70,1113,visual_patterns_original,1,odd,91,123566,120561,91,91,516281,517784,512801,125072,512801,514277,91,,,,,,,visual_patterns,0,128476,68,yes,1366,2626
0,0,1879,1879,white,70,Default,no,xpyriment,legacy,legacy,0,70,1,1085,OSWeb experiment,uniform,undefined,0,0,0,0,24,24,24,0,0,68,68,68,68,0,68,68,0,,,,,0,,,Thu Sep 30 2021 11:34:10 GMT+0200 (Central European Summer Time),The main experiment item,yes,C:/Users/Ricsi/Documents/!!ResearchBMECOGSCI,prototype2.png,no,mono,no,18,no,black,no,no,None,null,768,legacy,xpyriment,osweb,1.3.3,right,enter,right,space,,,1151,12129,1151,23984,,,2,legacy,1632993686913,1024,2,48000,-16,experiment,p6sarr2.png,70,1113,visual_patterns_original,1,odd,91,123566,120561,91,91,520958,522461,517800,125072,517800,518954,91,,,,,,,visual_patterns,0,129627,69,yes,1366,2626
0,0,1869,1869,white,70,Default,no,xpyriment,legacy,legacy,0,70,1,1085,OSWeb experiment,uniform,undefined,0,0,0,0,24,24,24,0,0,69,69,69,69,0,69,69,0,,,,,0,,,Thu Sep 30 2021 11:34:10 GMT+0200 (Central European Summer Time),The main experiment item,yes,C:/Users/Ricsi/Documents/!!ResearchBMECOGSCI,prototype2.png,no,mono,no,18,no,black,no,no,None,null,768,legacy,xpyriment,osweb,1.3.3,left,enter,left,space,,,1192,12129,1192,23984,,,2,legacy,1632993686913,1024,2,48000,-16,experiment,prototype2.png,70,1113,visual_patterns_original,1,odd,91,123566,120561,91,91,525685,527188,522473,125072,522473,523681,91,,,,,,,visual_patterns,0,130819,70,yes,1366,2626
0,0,1875,1875,white,70,Default,no,xpyriment,legacy,legacy,0,70,1,1085,OSWeb experiment,uniform,undefined,0,0,0,0,24,24,24,0,0,70,70,70,70,0,70,70,0,,,,,0,,,Thu Sep 30 2021 11:34:10 GMT+0200 (Central European Summer Time),The main experiment item,yes,C:/Users/Ricsi/Documents/!!ResearchBMECOGSCI,prototype2.png,no,mono,no,18,no,black,no,no,None,null,768,legacy,xpyriment,osweb,1.3.3,right,enter,right,space,,,2323,12129,2323,23984,,,2,legacy,1632993686913,1024,2,48000,-16,experiment,p1sarrshacol1.png,70,1113,visual_patterns_original,1,odd,91,123566,120561,91,91,531531,533034,527203,125072,527203,529527,91,,,,,,,visual_patterns,0,133142,71,yes,1366,2626
0,0,1885,1885,white,70,Default,no,xpyriment,legacy,legacy,0,70,1,1085,OSWeb experiment,uniform,undefined,0,0,0,0,24,24,24,0,0,71,71,71,71,0,71,71,0,,,,,0,,,Thu Sep 30 2021 11:34:10 GMT+0200 (Central European Summer Time),The main experiment item,yes,C:/Users/Ricsi/Documents/!!ResearchBMECOGSCI,prototype2.png,no,mono,no,18,no,black,no,no,None,null,768,legacy,xpyriment,osweb,1.3.3,right,enter,right,space,,,2583,12129,2583,23984,,,2,legacy,1632993686913,1024,2,48000,-16,experiment,prototype1.png,70,1113,visual_patterns_original,1,odd,91,123566,120561,91,91,537644,539147,533046,125072,533046,535640,91,,,,,,,visual_patterns,0,135725,72,yes,1366,2626
0,0,1871,1871,white,70,Default,no,xpyriment,legacy,legacy,0,70,1,1085,OSWeb experiment,uniform,undefined,0,0,0,0,24,24,24,0,0,72,72,72,72,0,72,72,0,,,,,0,,,Thu Sep 30 2021 11:34:10 GMT+0200 (Central European Summer Time),The main experiment item,yes,C:/Users/Ricsi/Documents/!!ResearchBMECOGSCI,prototype2.png,no,mono,no,18,no,black,no,no,None,null,768,legacy,xpyriment,osweb,1.3.3,left,enter,left,space,,,835,12129,835,23984,,,2,legacy,1632993686913,1024,2,48000,-16,experiment,prototype5.png,70,1113,visual_patterns_original,1,odd,91,123566,120561,91,91,542003,543506,539161,125072,539161,540000,91,,,,,,,visual_patterns,0,136560,73,yes,1366,2626
0,0,1879,1879,white,70,Default,no,xpyriment,legacy,legacy,0,70,1,1085,OSWeb experiment,uniform,undefined,0,0,0,0,24,24,24,0,0,73,73,73,73,0,73,73,0,,,,,0,,,Thu Sep 30 2021 11:34:10 GMT+0200 (Central European Summer Time),The main experiment item,yes,C:/Users/Ricsi/Documents/!!ResearchBMECOGSCI,prototype2.png,no,mono,no,18,no,black,no,no,None,null,768,legacy,xpyriment,osweb,1.3.3,right,enter,right,space,,,2466,12129,2466,23984,,,2,legacy,1632993686913,1024,2,48000,-16,experiment,prototype3.png,70,1113,visual_patterns_original,1,odd,91,123566,120561,91,91,548000,549503,543518,125072,543518,545996,91,,,,,,,visual_patterns,0,139026,74,yes,1366,2626
0,0,1868,1868,white,70,Default,no,xpyriment,legacy,legacy,0,70,1,1085,OSWeb experiment,uniform,undefined,0,0,0,0,24,24,24,0,0,74,74,74,74,0,74,74,0,,,,,0,,,Thu Sep 30 2021 11:34:10 GMT+0200 (Central European Summer Time),The main experiment item,yes,C:/Users/Ricsi/Documents/!!ResearchBMECOGSCI,prototype2.png,no,mono,no,18,no,black,no,no,None,null,768,legacy,xpyriment,osweb,1.3.3,left,enter,left,space,,,1103,12129,1103,23984,,,2,legacy,1632993686913,1024,2,48000,-16,experiment,prototype2.png,70,1113,visual_patterns_original,1,odd,91,123566,120561,91,91,552626,554129,549518,125072,549518,550623,91,,,,,,,visual_patterns,0,140129,75,yes,1366,2626
0,0,1872,1872,white,70,Default,no,xpyriment,legacy,legacy,0,70,1,1085,OSWeb experiment,uniform,undefined,0,0,0,0,24,24,24,0,0,74,74,74,74,0,74,74,0,0,0,0,0,0,0,0,Thu Sep 30 2021 11:34:10 GMT+0200 (Central European Summer Time),The main experiment item,yes,C:/Users/Ricsi/Documents/!!ResearchBMECOGSCI,prototype2.png,no,mono,no,18,no,black,no,no,None,null,768,legacy,xpyriment,osweb,1.3.3,down,enter,left,space,down,space,2174,12129,1103,23984,2174,18938,2,legacy,1632993686913,1024,2,48000,-16,experiment,p5sarrsha3.png,70,1113,visual_patterns_original,1,odd,91,123566,120561,91,91,552626,554129,549518,125072,549518,550623,91,577296,578800,573109,554136,573109,575293,visual_patterns,0,142303,76,yes,1366,2626
0,0,1879,1879,white,70,Default,no,xpyriment,legacy,legacy,0,70,1,1085,OSWeb experiment,uniform,undefined,0,0,0,0,24,24,24,0,0,74,74,74,74,0,74,74,0,1,1,1,1,0,1,1,Thu Sep 30 2021 11:34:10 GMT+0200 (Central European Summer Time),The main experiment item,yes,C:/Users/Ricsi/Documents/!!ResearchBMECOGSCI,prototype2.png,no,mono,no,18,no,black,no,no,None,null,768,legacy,xpyriment,osweb,1.3.3,left,enter,left,space,left,space,2404,12129,1103,23984,2404,18938,2,legacy,1632993686913,1024,2,48000,-16,experiment,p2sarrshacol1.png,70,1113,visual_patterns_original,1,odd,91,123566,120561,91,91,552626,554129,549518,125072,549518,550623,91,583226,584729,578817,554136,578817,581222,visual_patterns,0,144707,77,yes,1366,2626
0,0,1880,1880,white,70,Default,no,xpyriment,legacy,legacy,0,70,1,1085,OSWeb experiment,uniform,undefined,0,0,0,0,24,24,24,0,0,74,74,74,74,0,74,74,0,2,2,2,2,0,2,2,Thu Sep 30 2021 11:34:10 GMT+0200 (Central European Summer Time),The main experiment item,yes,C:/Users/Ricsi/Documents/!!ResearchBMECOGSCI,prototype2.png,no,mono,no,18,no,black,no,no,None,null,768,legacy,xpyriment,osweb,1.3.3,left,enter,left,space,left,space,1919,12129,1103,23984,1919,18938,2,legacy,1632993686913,1024,2,48000,-16,experiment,p4sarr4.png,70,1113,visual_patterns_original,1,odd,91,123566,120561,91,91,552626,554129,549518,125072,549518,550623,91,588688,590191,584750,554136,584750,586684,visual_patterns,0,146626,78,yes,1366,2626
0,0,1894,1894,white,70,Default,no,xpyriment,legacy,legacy,0,70,1,1085,OSWeb experiment,uniform,undefined,0,0,0,0,24,24,24,0,0,74,74,74,74,0,74,74,0,3,3,3,3,0,3,3,Thu Sep 30 2021 11:34:10 GMT+0200 (Central European Summer Time),The main experiment item,yes,C:/Users/Ricsi/Documents/!!ResearchBMECOGSCI,prototype2.png,no,mono,no,18,no,black,no,no,None,null,768,legacy,xpyriment,osweb,1.3.3,None,enter,left,space,None,space,3013,12129,1103,23984,3013,18938,2,legacy,1632993686913,1024,2,48000,-16,experiment,p5sarrsha2.png,70,1113,visual_patterns_original,1,odd,91,123566,120561,91,91,552626,554129,549518,125072,549518,550623,91,595218,596721,590201,554136,590201,593215,visual_patterns,0,149639,79,yes,1366,2626
0,0,1906,1906,white,70,Default,no,xpyriment,legacy,legacy,0,70,1,1085,OSWeb experiment,uniform,undefined,0,0,0,0,24,24,24,0,0,74,74,74,74,0,74,74,0,4,4,4,4,0,4,4,Thu Sep 30 2021 11:34:10 GMT+0200 (Central European Summer Time),The main experiment item,yes,C:/Users/Ricsi/Documents/!!ResearchBMECOGSCI,prototype2.png,no,mono,no,18,no,black,no,no,None,null,768,legacy,xpyriment,osweb,1.3.3,right,enter,left,space,right,space,2813,12129,1103,23984,2813,18938,2,legacy,1632993686913,1024,2,48000,-16,experiment,p7sarr2.png,70,1113,visual_patterns_original,1,odd,91,123566,120561,91,91,552626,554129,549518,125072,549518,550623,91,601566,603069,596740,554136,596740,599562,visual_patterns,0,152452,80,yes,1366,2626
0,0,1905,1905,white,70,Default,no,xpyriment,legacy,legacy,0,70,1,1085,OSWeb experiment,uniform,undefined,0,0,0,0,24,24,24,0,0,74,74,74,74,0,74,74,0,5,5,5,5,0,5,5,Thu Sep 30 2021 11:34:10 GMT+0200 (Central European Summer Time),The main experiment item,yes,C:/Users/Ricsi/Documents/!!ResearchBMECOGSCI,prototype2.png,no,mono,no,18,no,black,no,no,None,null,768,legacy,xpyriment,osweb,1.3.3,left,enter,left,space,left,space,1836,12129,1103,23984,1836,18938,2,legacy,1632993686913,1024,2,48000,-16,experiment,p1sarrsha4.png,70,1113,visual_patterns_original,1,odd,91,123566,120561,91,91,552626,554129,549518,125072,549518,550623,91,606944,608447,603088,554136,603088,604940,visual_patterns,0,154288,81,yes,1366,2626
0,0,1905,1905,white,70,Default,no,xpyriment,legacy,legacy,0,70,1,1085,OSWeb experiment,uniform,undefined,0,0,0,0,24,24,24,0,0,74,74,74,74,0,74,74,0,6,6,6,6,0,6,6,Thu Sep 30 2021 11:34:10 GMT+0200 (Central European Summer Time),The main experiment item,yes,C:/Users/Ricsi/Documents/!!ResearchBMECOGSCI,prototype2.png,no,mono,no,18,no,black,no,no,None,null,768,legacy,xpyriment,osweb,1.3.3,right,enter,left,space,right,space,1904,12129,1103,23984,1904,18938,2,legacy,1632993686913,1024,2,48000,-16,experiment,p3sarrcol2.png,70,1113,visual_patterns_original,1,odd,91,123566,120561,91,91,552626,554129,549518,125072,549518,550623,91,612389,613892,608467,554136,608467,610385,visual_patterns,0,156192,82,yes,1366,2626
0,0,1918,1918,white,70,Default,no,xpyriment,legacy,legacy,0,70,1,1085,OSWeb experiment,uniform,undefined,0,0,0,0,24,24,24,0,0,74,74,74,74,0,74,74,0,7,7,7,7,0,7,7,Thu Sep 30 2021 11:34:10 GMT+0200 (Central European Summer Time),The main experiment item,yes,C:/Users/Ricsi/Documents/!!ResearchBMECOGSCI,prototype2.png,no,mono,no,18,no,black,no,no,None,null,768,legacy,xpyriment,osweb,1.3.3,None,enter,left,space,None,space,3001,12129,1103,23984,3001,18938,2,legacy,1632993686913,1024,2,48000,-16,experiment,p3sarrcol3.png,70,1113,visual_patterns_original,1,odd,91,123566,120561,91,91,552626,554129,549518,125072,549518,550623,91,618920,620423,613914,554136,613914,616916,visual_patterns,0,159193,83,yes,1366,2626
0,0,1913,1913,white,70,Default,no,xpyriment,legacy,legacy,0,70,1,1085,OSWeb experiment,uniform,undefined,0,0,0,0,24,24,24,0,0,74,74,74,74,0,74,74,0,8,8,8,8,0,8,8,Thu Sep 30 2021 11:34:10 GMT+0200 (Central European Summer Time),The main experiment item,yes,C:/Users/Ricsi/Documents/!!ResearchBMECOGSCI,prototype2.png,no,mono,no,18,no,black,no,no,None,null,768,legacy,xpyriment,osweb,1.3.3,left,enter,left,space,left,space,1511,12129,1103,23984,1511,18938,2,legacy,1632993686913,1024,2,48000,-16,experiment,p1sarrsha1.png,70,1113,visual_patterns_original,1,odd,91,123566,120561,91,91,552626,554129,549518,125072,549518,550623,91,623981,625484,620450,554136,620450,621977,visual_patterns,0,160704,84,yes,1366,2626
0,0,1908,1908,white,70,Default,no,xpyriment,legacy,legacy,0,70,1,1085,OSWeb experiment,uniform,undefined,0,0,0,0,24,24,24,0,0,74,74,74,74,0,74,74,0,9,9,9,9,0,9,9,Thu Sep 30 2021 11:34:10 GMT+0200 (Central European Summer Time),The main experiment item,yes,C:/Users/Ricsi/Documents/!!ResearchBMECOGSCI,prototype2.png,no,mono,no,18,no,black,no,no,None,null,768,legacy,xpyriment,osweb,1.3.3,left,enter,left,space,left,space,1440,12129,1103,23984,1440,18938,2,legacy,1632993686913,1024,2,48000,-16,experiment,p4sarr1.png,70,1113,visual_patterns_original,1,odd,91,123566,120561,91,91,552626,554129,549518,125072,549518,550623,91,628958,630461,625505,554136,625504,626954,visual_patterns,0,162144,85,yes,1366,2626
0,0,1909,1909,white,70,Default,no,xpyriment,legacy,legacy,0,70,1,1085,OSWeb experiment,uniform,undefined,0,0,0,0,24,24,24,0,0,74,74,74,74,0,74,74,0,10,10,10,10,0,10,10,Thu Sep 30 2021 11:34:10 GMT+0200 (Central European Summer Time),The main experiment item,yes,C:/Users/Ricsi/Documents/!!ResearchBMECOGSCI,prototype2.png,no,mono,no,18,no,black,no,no,None,null,768,legacy,xpyriment,osweb,1.3.3,right,enter,left,space,right,space,1994,12129,1103,23984,1994,18938,2,legacy,1632993686913,1024,2,48000,-16,experiment,p9sarr2.png,70,1113,visual_patterns_original,1,odd,91,123566,120561,91,91,552626,554129,549518,125072,549518,550623,91,634487,635990,630476,554136,630476,632483,visual_patterns,0,164138,86,yes,1366,2626
0,0,1920,1920,white,70,Default,no,xpyriment,legacy,legacy,0,70,1,1085,OSWeb experiment,uniform,undefined,0,0,0,0,24,24,24,0,0,74,74,74,74,0,74,74,0,11,11,11,11,0,11,11,Thu Sep 30 2021 11:34:10 GMT+0200 (Central European Summer Time),The main experiment item,yes,C:/Users/Ricsi/Documents/!!ResearchBMECOGSCI,prototype2.png,no,mono,no,18,no,black,no,no,None,null,768,legacy,xpyriment,osweb,1.3.3,down,enter,left,space,down,space,2877,12129,1103,23984,2877,18938,2,legacy,1632993686913,1024,2,48000,-16,experiment,p1sarr2.png,70,1113,visual_patterns_original,1,odd,91,123566,120561,91,91,552626,554129,549518,125072,549518,550623,91,640901,642404,636005,554136,636005,638897,visual_patterns,0,167015,87,yes,1366,2626
0,0,1927,1927,white,70,Default,no,xpyriment,legacy,legacy,0,70,1,1085,OSWeb experiment,uniform,undefined,0,0,0,0,24,24,24,0,0,74,74,74,74,0,74,74,0,12,12,12,12,0,12,12,Thu Sep 30 2021 11:34:10 GMT+0200 (Central European Summer Time),The main experiment item,yes,C:/Users/Ricsi/Documents/!!ResearchBMECOGSCI,prototype2.png,no,mono,no,18,no,black,no,no,None,null,768,legacy,xpyriment,osweb,1.3.3,left,enter,left,space,left,space,2525,12129,1103,23984,2525,18938,2,legacy,1632993686913,1024,2,48000,-16,experiment,p3sarrcol4.png,70,1113,visual_patterns_original,1,odd,91,123566,120561,91,91,552626,554129,549518,125072,549518,550623,91,646964,648467,642422,554136,642422,644960,visual_patterns,0,169540,88,yes,1366,2626
0,0,1926,1926,white,70,Default,no,xpyriment,legacy,legacy,0,70,1,1085,OSWeb experiment,uniform,undefined,0,0,0,0,24,24,24,0,0,74,74,74,74,0,74,74,0,13,13,13,13,0,13,13,Thu Sep 30 2021 11:34:10 GMT+0200 (Central European Summer Time),The main experiment item,yes,C:/Users/Ricsi/Documents/!!ResearchBMECOGSCI,prototype2.png,no,mono,no,18,no,black,no,no,None,null,768,legacy,xpyriment,osweb,1.3.3,right,enter,left,space,right,space,1835,12129,1103,23984,1835,18938,2,legacy,1632993686913,1024,2,48000,-16,experiment,p2sarrshacol2.png,70,1113,visual_patterns_original,1,odd,91,123566,120561,91,91,552626,554129,549518,125072,549518,550623,91,652325,653828,648482,554136,648482,650321,visual_patterns,0,171375,89,yes,1366,2626
0,0,1938,1938,white,70,Default,no,xpyriment,legacy,legacy,0,70,1,1085,OSWeb experiment,uniform,undefined,0,0,0,0,24,24,24,0,0,74,74,74,74,0,74,74,0,14,14,14,14,0,14,14,Thu Sep 30 2021 11:34:10 GMT+0200 (Central European Summer Time),The main experiment item,yes,C:/Users/Ricsi/Documents/!!ResearchBMECOGSCI,prototype2.png,no,mono,no,18,no,black,no,no,None,null,768,legacy,xpyriment,osweb,1.3.3,None,enter,left,space,None,space,3007,12129,1103,23984,3007,18938,2,legacy,1632993686913,1024,2,48000,-16,experiment,p6sarr1.png,70,1113,visual_patterns_original,1,odd,91,123566,120561,91,91,552626,554129,549518,125072,549518,550623,91,658856,660359,653844,554136,653844,656852,visual_patterns,0,174382,90,yes,1366,2626
0,0,1941,1941,white,70,Default,no,xpyriment,legacy,legacy,0,70,1,1085,OSWeb experiment,uniform,undefined,0,0,0,0,24,24,24,0,0,74,74,74,74,0,74,74,0,15,15,15,15,0,15,15,Thu Sep 30 2021 11:34:10 GMT+0200 (Central European Summer Time),The main experiment item,yes,C:/Users/Ricsi/Documents/!!ResearchBMECOGSCI,prototype2.png,no,mono,no,18,no,black,no,no,None,null,768,legacy,xpyriment,osweb,1.3.3,left,enter,left,space,left,space,2258,12129,1103,23984,2258,18938,2,legacy,1632993686913,1024,2,48000,-16,experiment,p4sarrshacol3.png,70,1113,visual_patterns_original,1,odd,91,123566,120561,91,91,552626,554129,549518,125072,549518,550623,91,664652,666179,660382,554136,660381,662648,visual_patterns,0,176640,91,yes,1366,2626
0,0,1946,1946,white,70,Default,no,xpyriment,legacy,legacy,0,70,1,1085,OSWeb experiment,uniform,undefined,0,0,0,0,24,24,24,0,0,74,74,74,74,0,74,74,0,16,16,16,16,0,16,16,Thu Sep 30 2021 11:34:10 GMT+0200 (Central European Summer Time),The main experiment item,yes,C:/Users/Ricsi/Documents/!!ResearchBMECOGSCI,prototype2.png,no,mono,no,18,no,black,no,no,None,null,768,legacy,xpyriment,osweb,1.3.3,left,enter,left,space,left,space,2437,12129,1103,23984,2437,18938,2,legacy,1632993686913,1024,2,48000,-16,experiment,p4sarrshacol4.png,70,1113,visual_patterns_original,1,odd,91,123566,120561,91,91,552626,554129,549518,125072,549518,550623,91,670648,672151,666191,554136,666191,668644,visual_patterns,0,179077,92,yes,1366,2626
0,0,1945,1945,white,70,Default,no,xpyriment,legacy,legacy,0,70,1,1085,OSWeb experiment,uniform,undefined,0,0,0,0,24,24,24,0,0,74,74,74,74,0,74,74,0,17,17,17,17,0,17,17,Thu Sep 30 2021 11:34:10 GMT+0200 (Central European Summer Time),The main experiment item,yes,C:/Users/Ricsi/Documents/!!ResearchBMECOGSCI,prototype2.png,no,mono,no,18,no,black,no,no,None,null,768,legacy,xpyriment,osweb,1.3.3,left,enter,left,space,left,space,1831,12129,1103,23984,1831,18938,2,legacy,1632993686913,1024,2,48000,-16,experiment,p2sarrcol1.png,70,1113,visual_patterns_original,1,odd,91,123566,120561,91,91,552626,554129,549518,125072,549518,550623,91,676010,677513,672167,554136,672167,674006,visual_patterns,0,180908,93,yes,1366,2626
0,0,1939,1939,white,70,Default,no,xpyriment,legacy,legacy,0,70,1,1085,OSWeb experiment,uniform,undefined,0,0,0,0,24,24,24,0,0,74,74,74,74,0,74,74,0,18,18,18,18,0,18,18,Thu Sep 30 2021 11:34:10 GMT+0200 (Central European Summer Time),The main experiment item,yes,C:/Users/Ricsi/Documents/!!ResearchBMECOGSCI,prototype2.png,no,mono,no,18,no,black,no,no,None,null,768,legacy,xpyriment,osweb,1.3.3,right,enter,left,space,right,space,1371,12129,1103,23984,1371,18938,2,legacy,1632993686913,1024,2,48000,-16,experiment,p1sarr4.png,70,1113,visual_patterns_original,1,odd,91,123566,120561,91,91,552626,554129,549518,125072,549518,550623,91,680920,682423,677535,554136,677534,678917,visual_patterns,0,182279,94,yes,1366,2626
0,0,1941,1941,white,70,Default,no,xpyriment,legacy,legacy,0,70,1,1085,OSWeb experiment,uniform,undefined,0,0,0,0,24,24,24,0,0,74,74,74,74,0,74,74,0,19,19,19,19,0,19,19,Thu Sep 30 2021 11:34:10 GMT+0200 (Central European Summer Time),The main experiment item,yes,C:/Users/Ricsi/Documents/!!ResearchBMECOGSCI,prototype2.png,no,mono,no,18,no,black,no,no,None,null,768,legacy,xpyriment,osweb,1.3.3,right,enter,left,space,right,space,2105,12129,1103,23984,2105,18938,2,legacy,1632993686913,1024,2,48000,-16,experiment,p10sarr1.png,70,1113,visual_patterns_original,1,odd,91,123566,120561,91,91,552626,554129,549518,125072,549518,550623,91,686566,688069,682441,554136,682441,684562,visual_patterns,0,184384,95,yes,1366,2626
0,0,1934,1934,white,70,Default,no,xpyriment,legacy,legacy,0,70,1,1085,OSWeb experiment,uniform,undefined,0,0,0,0,24,24,24,0,0,74,74,74,74,0,74,74,0,20,20,20,20,0,20,20,Thu Sep 30 2021 11:34:10 GMT+0200 (Central European Summer Time),The main experiment item,yes,C:/Users/Ricsi/Documents/!!ResearchBMECOGSCI,prototype2.png,no,mono,no,18,no,black,no,no,None,null,768,legacy,xpyriment,osweb,1.3.3,right,enter,left,space,right,space,1251,12129,1103,23984,1251,18938,2,legacy,1632993686913,1024,2,48000,-16,experiment,p8sarr3.png,70,1113,visual_patterns_original,1,odd,91,123566,120561,91,91,552626,554129,549518,125072,549518,550623,91,691360,692863,688088,554136,688088,689356,visual_patterns,0,185635,96,yes,1366,2626
0,0,1929,1929,white,70,Default,no,xpyriment,legacy,legacy,0,70,1,1085,OSWeb experiment,uniform,undefined,0,0,0,0,24,24,24,0,0,74,74,74,74,0,74,74,0,21,21,21,21,0,21,21,Thu Sep 30 2021 11:34:10 GMT+0200 (Central European Summer Time),The main experiment item,yes,C:/Users/Ricsi/Documents/!!ResearchBMECOGSCI,prototype2.png,no,mono,no,18,no,black,no,no,None,null,768,legacy,xpyriment,osweb,1.3.3,right,enter,left,space,right,space,1442,12129,1103,23984,1442,18938,2,legacy,1632993686913,1024,2,48000,-16,experiment,p9sarr4.png,70,1113,visual_patterns_original,1,odd,91,123566,120561,91,91,552626,554129,549518,125072,549518,550623,91,696337,697840,692881,554136,692881,694336,visual_patterns,0,187077,97,yes,1366,2626
0,0,1925,1925,white,70,Default,no,xpyriment,legacy,legacy,0,70,1,1085,OSWeb experiment,uniform,undefined,0,0,0,0,24,24,24,0,0,74,74,74,74,0,74,74,0,22,22,22,22,0,22,22,Thu Sep 30 2021 11:34:10 GMT+0200 (Central European Summer Time),The main experiment item,yes,C:/Users/Ricsi/Documents/!!ResearchBMECOGSCI,prototype2.png,no,mono,no,18,no,black,no,no,None,null,768,legacy,xpyriment,osweb,1.3.3,left,enter,left,space,left,space,1607,12129,1103,23984,1607,18938,2,legacy,1632993686913,1024,2,48000,-16,experiment,p5sarrcol2.png,70,1113,visual_patterns_original,1,odd,91,123566,120561,91,91,552626,554129,549518,125072,549518,550623,91,701482,702984,697855,554136,697855,699478,visual_patterns,0,188684,98,yes,1366,2626
0,0,1928,1928,white,70,Default,no,xpyriment,legacy,legacy,0,70,1,1085,OSWeb experiment,uniform,undefined,0,0,0,0,24,24,24,0,0,74,74,74,74,0,74,74,0,23,23,23,23,0,23,23,Thu Sep 30 2021 11:34:10 GMT+0200 (Central European Summer Time),The main experiment item,yes,C:/Users/Ricsi/Documents/!!ResearchBMECOGSCI,prototype2.png,no,mono,no,18,no,black,no,no,None,null,768,legacy,xpyriment,osweb,1.3.3,right,enter,left,space,right,space,2177,12129,1103,23984,2177,18938,2,legacy,1632993686913,1024,2,48000,-16,experiment,p7sarr4.png,70,1113,visual_patterns_original,1,odd,91,123566,120561,91,91,552626,554129,549518,125072,549518,550623,91,707227,708730,703030,554136,703030,705223,visual_patterns,0,190861,99,yes,1366,2626
0,0,1921,1921,white,70,Default,no,xpyriment,legacy,legacy,0,70,1,1085,OSWeb experiment,uniform,undefined,0,0,0,0,24,24,24,0,0,74,74,74,74,0,74,74,0,24,24,24,24,0,24,24,Thu Sep 30 2021 11:34:10 GMT+0200 (Central European Summer Time),The main experiment item,yes,C:/Users/Ricsi/Documents/!!ResearchBMECOGSCI,prototype2.png,no,mono,no,18,no,black,no,no,None,null,768,legacy,xpyriment,osweb,1.3.3,left,enter,left,space,left,space,1211,12129,1103,23984,1211,18938,2,legacy,1632993686913,1024,2,48000,-16,experiment,p3sarrsha3.png,70,1113,visual_patterns_original,1,odd,91,123566,120561,91,91,552626,554129,549518,125072,549518,550623,91,711971,713474,708749,554136,708749,709967,visual_patterns,0,192072,100,yes,1366,2626
0,0,1931,1931,white,70,Default,no,xpyriment,legacy,legacy,0,70,1,1085,OSWeb experiment,uniform,undefined,0,0,0,0,24,24,24,0,0,74,74,74,74,0,74,74,0,25,25,25,25,0,25,25,Thu Sep 30 2021 11:34:10 GMT+0200 (Central European Summer Time),The main experiment item,yes,C:/Users/Ricsi/Documents/!!ResearchBMECOGSCI,prototype2.png,no,mono,no,18,no,black,no,no,None,null,768,legacy,xpyriment,osweb,1.3.3,None,enter,left,space,None,space,3003,12129,1103,23984,3003,18938,2,legacy,1632993686913,1024,2,48000,-16,experiment,p8sarr4.png,70,1113,visual_patterns_original,1,odd,91,123566,120561,91,91,552626,554129,549518,125072,549518,550623,91,718502,720005,713494,554136,713494,716498,visual_patterns,0,195075,101,yes,1366,2626
0,0,1934,1934,white,70,Default,no,xpyriment,legacy,legacy,0,70,1,1085,OSWeb experiment,uniform,undefined,0,0,0,0,24,24,24,0,0,74,74,74,74,0,74,74,0,26,26,26,26,0,26,26,Thu Sep 30 2021 11:34:10 GMT+0200 (Central European Summer Time),The main experiment item,yes,C:/Users/Ricsi/Documents/!!ResearchBMECOGSCI,prototype2.png,no,mono,no,18,no,black,no,no,None,null,768,legacy,xpyriment,osweb,1.3.3,down,enter,left,space,down,space,2221,12129,1103,23984,2221,18938,2,legacy,1632993686913,1024,2,48000,-16,experiment,p2sarrshacol4.png,70,1113,visual_patterns_original,1,odd,91,123566,120561,91,91,552626,554129,549518,125072,549518,550623,91,724264,725767,720024,554136,720024,722260,visual_patterns,0,197296,102,yes,1366,2626
0,0,1927,1927,white,70,Default,no,xpyriment,legacy,legacy,0,70,1,1085,OSWeb experiment,uniform,undefined,0,0,0,0,24,24,24,0,0,74,74,74,74,0,74,74,0,27,27,27,27,0,27,27,Thu Sep 30 2021 11:34:10 GMT+0200 (Central European Summer Time),The main experiment item,yes,C:/Users/Ricsi/Documents/!!ResearchBMECOGSCI,prototype2.png,no,mono,no,18,no,black,no,no,None,null,768,legacy,xpyriment,osweb,1.3.3,left,enter,left,space,left,space,1138,12129,1103,23984,1138,18938,2,legacy,1632993686913,1024,2,48000,-16,experiment,p4sarrshacol1.png,70,1113,visual_patterns_original,1,odd,91,123566,120561,91,91,552626,554129,549518,125072,549518,550623,91,728941,730444,725782,554136,725782,726937,visual_patterns,0,198434,103,yes,1366,2626
0,0,1928,1928,white,70,Default,no,xpyriment,legacy,legacy,0,70,1,1085,OSWeb experiment,uniform,undefined,0,0,0,0,24,24,24,0,0,74,74,74,74,0,74,74,0,28,28,28,28,0,28,28,Thu Sep 30 2021 11:34:10 GMT+0200 (Central European Summer Time),The main experiment item,yes,C:/Users/Ricsi/Documents/!!ResearchBMECOGSCI,prototype2.png,no,mono,no,18,no,black,no,no,None,null,768,legacy,xpyriment,osweb,1.3.3,right,enter,left,space,right,space,2057,12129,1103,23984,2057,18938,2,legacy,1632993686913,1024,2,48000,-16,experiment,p1sarrshacol3.png,70,1113,visual_patterns_original,1,odd,91,123566,120561,91,91,552626,554129,549518,125072,549518,550623,91,734536,736039,730466,554136,730466,732532,visual_patterns,0,200491,104,yes,1366,2626
0,0,1928,1928,white,70,Default,no,xpyriment,legacy,legacy,0,70,1,1085,OSWeb experiment,uniform,undefined,0,0,0,0,24,24,24,0,0,74,74,74,74,0,74,74,0,29,29,29,29,0,29,29,Thu Sep 30 2021 11:34:10 GMT+0200 (Central European Summer Time),The main experiment item,yes,C:/Users/Ricsi/Documents/!!ResearchBMECOGSCI,prototype2.png,no,mono,no,18,no,black,no,no,None,null,768,legacy,xpyriment,osweb,1.3.3,right,enter,left,space,right,space,1949,12129,1103,23984,1949,18938,2,legacy,1632993686913,1024,2,48000,-16,experiment,p2sarrsha1.png,70,1113,visual_patterns_original,1,odd,91,123566,120561,91,91,552626,554129,549518,125072,549518,550623,91,740015,741518,736060,554136,736059,738011,visual_patterns,0,202440,105,yes,1366,2626
0,0,1936,1936,white,70,Default,no,xpyriment,legacy,legacy,0,70,1,1085,OSWeb experiment,uniform,undefined,0,0,0,0,24,24,24,0,0,74,74,74,74,0,74,74,0,30,30,30,30,0,30,30,Thu Sep 30 2021 11:34:10 GMT+0200 (Central European Summer Time),The main experiment item,yes,C:/Users/Ricsi/Documents/!!ResearchBMECOGSCI,prototype2.png,no,mono,no,18,no,black,no,no,None,null,768,legacy,xpyriment,osweb,1.3.3,down,enter,left,space,down,space,2733,12129,1103,23984,2733,18938,2,legacy,1632993686913,1024,2,48000,-16,experiment,p3sarr2.png,70,1113,visual_patterns_original,1,odd,91,123566,120561,91,91,552626,554129,549518,125072,549518,550623,91,746278,747781,741534,554136,741534,744274,visual_patterns,0,205173,106,yes,1366,2626
0,0,1933,1933,white,70,Default,no,xpyriment,legacy,legacy,0,70,1,1085,OSWeb experiment,uniform,undefined,0,0,0,0,24,24,24,0,0,74,74,74,74,0,74,74,0,31,31,31,31,0,31,31,Thu Sep 30 2021 11:34:10 GMT+0200 (Central European Summer Time),The main experiment item,yes,C:/Users/Ricsi/Documents/!!ResearchBMECOGSCI,prototype2.png,no,mono,no,18,no,black,no,no,None,null,768,legacy,xpyriment,osweb,1.3.3,right,enter,left,space,right,space,1656,12129,1103,23984,1656,18938,2,legacy,1632993686913,1024,2,48000,-16,experiment,p3sarrshacol3.png,70,1113,visual_patterns_original,1,odd,91,123566,120561,91,91,552626,554129,549518,125072,549518,550623,91,751490,752993,747827,554136,747827,749486,visual_patterns,0,206829,107,yes,1366,2626
0,0,1943,1943,white,70,Default,no,xpyriment,legacy,legacy,0,70,1,1085,OSWeb experiment,uniform,undefined,0,0,0,0,24,24,24,0,0,74,74,74,74,0,74,74,0,32,32,32,32,0,32,32,Thu Sep 30 2021 11:34:10 GMT+0200 (Central European Summer Time),The main experiment item,yes,C:/Users/Ricsi/Documents/!!ResearchBMECOGSCI,prototype2.png,no,mono,no,18,no,black,no,no,None,null,768,legacy,xpyriment,osweb,1.3.3,None,enter,left,space,None,space,3004,12129,1103,23984,3004,18938,2,legacy,1632993686913,1024,2,48000,-16,experiment,p2sarrcol4.png,70,1113,visual_patterns_original,1,odd,91,123566,120561,91,91,552626,554129,549518,125072,549518,550623,91,758020,759523,753012,554136,753012,756016,visual_patterns,0,209833,108,yes,1366,2626
0,0,1934,1934,white,70,Default,no,xpyriment,legacy,legacy,0,70,1,1085,OSWeb experiment,uniform,undefined,0,0,0,0,24,24,24,0,0,74,74,74,74,0,74,74,0,33,33,33,33,0,33,33,Thu Sep 30 2021 11:34:10 GMT+0200 (Central European Summer Time),The main experiment item,yes,C:/Users/Ricsi/Documents/!!ResearchBMECOGSCI,prototype2.png,no,mono,no,18,no,black,no,no,None,null,768,legacy,xpyriment,osweb,1.3.3,left,enter,left,space,left,space,1014,12129,1103,23984,1014,18938,2,legacy,1632993686913,1024,2,48000,-16,experiment,p5sarrcol1.png,70,1113,visual_patterns_original,1,odd,91,123566,120561,91,91,552626,554129,549518,125072,549518,550623,91,762580,764083,759546,554136,759546,760576,visual_patterns,0,210847,109,yes,1366,2626
0,0,1926,1926,white,70,Default,no,xpyriment,legacy,legacy,0,70,1,1085,OSWeb experiment,uniform,undefined,0,0,0,0,24,24,24,0,0,74,74,74,74,0,74,74,0,34,34,34,34,0,34,34,Thu Sep 30 2021 11:34:10 GMT+0200 (Central European Summer Time),The main experiment item,yes,C:/Users/Ricsi/Documents/!!ResearchBMECOGSCI,prototype2.png,no,mono,no,18,no,black,no,no,None,null,768,legacy,xpyriment,osweb,1.3.3,right,enter,left,space,right,space,1012,12129,1103,23984,1012,18938,2,legacy,1632993686913,1024,2,48000,-16,experiment,p8sarr2.png,70,1113,visual_patterns_original,1,odd,91,123566,120561,91,91,552626,554129,549518,125072,549518,550623,91,767123,768626,764098,554136,764098,765119,visual_patterns,0,211859,110,yes,1366,2626
0,0,1929,1929,white,70,Default,no,xpyriment,legacy,legacy,0,70,1,1085,OSWeb experiment,uniform,undefined,0,0,0,0,24,24,24,0,0,74,74,74,74,0,74,74,0,35,35,35,35,0,35,35,Thu Sep 30 2021 11:34:10 GMT+0200 (Central European Summer Time),The main experiment item,yes,C:/Users/Ricsi/Documents/!!ResearchBMECOGSCI,prototype2.png,no,mono,no,18,no,black,no,no,None,null,768,legacy,xpyriment,osweb,1.3.3,down,enter,left,space,down,space,2295,12129,1103,23984,2295,18938,2,legacy,1632993686913,1024,2,48000,-16,experiment,p5sarr3.png,70,1113,visual_patterns_original,1,odd,91,123566,120561,91,91,552626,554129,549518,125072,549518,550623,91,772953,774456,768648,554136,768648,770949,visual_patterns,0,214154,111,yes,1366,2626
0,0,1922,1922,white,70,Default,no,xpyriment,legacy,legacy,0,70,1,1085,OSWeb experiment,uniform,undefined,0,0,0,0,24,24,24,0,0,74,74,74,74,0,74,74,0,36,36,36,36,0,36,36,Thu Sep 30 2021 11:34:10 GMT+0200 (Central European Summer Time),The main experiment item,yes,C:/Users/Ricsi/Documents/!!ResearchBMECOGSCI,prototype2.png,no,mono,no,18,no,black,no,no,None,null,768,legacy,xpyriment,osweb,1.3.3,right,enter,left,space,right,space,1069,12129,1103,23984,1069,18938,2,legacy,1632993686913,1024,2,48000,-16,experiment,p7sarr1.png,70,1113,visual_patterns_original,1,odd,91,123566,120561,91,91,552626,554129,549518,125072,549518,550623,91,777563,779066,774473,554136,774473,775559,visual_patterns,0,215223,112,yes,1366,2626
0,0,1931,1931,white,70,Default,no,xpyriment,legacy,legacy,0,70,1,1085,OSWeb experiment,uniform,undefined,0,0,0,0,24,24,24,0,0,74,74,74,74,0,74,74,0,37,37,37,37,0,37,37,Thu Sep 30 2021 11:34:10 GMT+0200 (Central European Summer Time),The main experiment item,yes,C:/Users/Ricsi/Documents/!!ResearchBMECOGSCI,prototype2.png,no,mono,no,18,no,black,no,no,None,null,768,legacy,xpyriment,osweb,1.3.3,None,enter,left,space,None,space,3002,12129,1103,23984,3002,18938,2,legacy,1632993686913,1024,2,48000,-16,experiment,p1sarrcol4.png,70,1113,visual_patterns_original,1,odd,91,123566,120561,91,91,552626,554129,549518,125072,549518,550623,91,784093,785596,779087,554136,779087,782089,visual_patterns,0,218225,113,yes,1366,2626
0,0,1925,1925,white,70,Default,no,xpyriment,legacy,legacy,0,70,1,1085,OSWeb experiment,uniform,undefined,0,0,0,0,24,24,24,0,0,74,74,74,74,0,74,74,0,38,38,38,38,0,38,38,Thu Sep 30 2021 11:34:10 GMT+0200 (Central European Summer Time),The main experiment item,yes,C:/Users/Ricsi/Documents/!!ResearchBMECOGSCI,prototype2.png,no,mono,no,18,no,black,no,no,None,null,768,legacy,xpyriment,osweb,1.3.3,left,enter,left,space,left,space,1208,12129,1103,23984,1208,18938,2,legacy,1632993686913,1024,2,48000,-16,experiment,p3sarrsha4.png,70,1113,visual_patterns_original,1,odd,91,123566,120561,91,91,552626,554129,549518,125072,549518,550623,91,788837,790340,785615,554136,785615,786833,visual_patterns,0,219433,114,yes,1366,2626
0,0,1931,1931,white,70,Default,no,xpyriment,legacy,legacy,0,70,1,1085,OSWeb experiment,uniform,undefined,0,0,0,0,24,24,24,0,0,74,74,74,74,0,74,74,0,39,39,39,39,0,39,39,Thu Sep 30 2021 11:34:10 GMT+0200 (Central European Summer Time),The main experiment item,yes,C:/Users/Ricsi/Documents/!!ResearchBMECOGSCI,prototype2.png,no,mono,no,18,no,black,no,no,None,null,768,legacy,xpyriment,osweb,1.3.3,right,enter,left,space,right,space,2611,12129,1103,23984,2611,18938,2,legacy,1632993686913,1024,2,48000,-16,experiment,p3sarr1.png,70,1113,visual_patterns_original,1,odd,91,123566,120561,91,91,552626,554129,549518,125072,549518,550623,91,794984,796487,790355,554136,790355,792980,visual_patterns,0,222044,115,yes,1366,2626
0,0,1925,1925,white,70,Default,no,xpyriment,legacy,legacy,0,70,1,1085,OSWeb experiment,uniform,undefined,0,0,0,0,24,24,24,0,0,74,74,74,74,0,74,74,0,40,40,40,40,0,40,40,Thu Sep 30 2021 11:34:10 GMT+0200 (Central European Summer Time),The main experiment item,yes,C:/Users/Ricsi/Documents/!!ResearchBMECOGSCI,prototype2.png,no,mono,no,18,no,black,no,no,None,null,768,legacy,xpyriment,osweb,1.3.3,left,enter,left,space,left,space,1287,12129,1103,23984,1287,18938,2,legacy,1632993686913,1024,2,48000,-16,experiment,p2sarrsha3.png,70,1113,visual_patterns_original,1,odd,91,123566,120561,91,91,552626,554129,549518,125072,549518,550623,91,799811,801314,796509,554136,796509,797807,visual_patterns,0,223331,116,yes,1366,2626
0,0,1929,1929,white,70,Default,no,xpyriment,legacy,legacy,0,70,1,1085,OSWeb experiment,uniform,undefined,0,0,0,0,24,24,24,0,0,74,74,74,74,0,74,74,0,41,41,41,41,0,41,41,Thu Sep 30 2021 11:34:10 GMT+0200 (Central European Summer Time),The main experiment item,yes,C:/Users/Ricsi/Documents/!!ResearchBMECOGSCI,prototype2.png,no,mono,no,18,no,black,no,no,None,null,768,legacy,xpyriment,osweb,1.3.3,down,enter,left,space,down,space,2334,12129,1103,23984,2334,18938,2,legacy,1632993686913,1024,2,48000,-16,experiment,p9sarr3.png,70,1113,visual_patterns_original,1,odd,91,123566,120561,91,91,552626,554129,549518,125072,549518,550623,91,805673,807176,801335,554136,801335,803670,visual_patterns,0,225665,117,yes,1366,2626
0,0,1923,1923,white,70,Default,no,xpyriment,legacy,legacy,0,70,1,1085,OSWeb experiment,uniform,undefined,0,0,0,0,24,24,24,0,0,74,74,74,74,0,74,74,0,42,42,42,42,0,42,42,Thu Sep 30 2021 11:34:10 GMT+0200 (Central European Summer Time),The main experiment item,yes,C:/Users/Ricsi/Documents/!!ResearchBMECOGSCI,prototype2.png,no,mono,no,18,no,black,no,no,None,null,768,legacy,xpyriment,osweb,1.3.3,right,enter,left,space,right,space,1301,12129,1103,23984,1301,18938,2,legacy,1632993686913,1024,2,48000,-16,experiment,p10sarr4.png,70,1113,visual_patterns_original,1,odd,91,123566,120561,91,91,552626,554129,549518,125072,549518,550623,91,810517,812020,807198,554136,807197,808513,visual_patterns,0,226966,118,yes,1366,2626
0,0,1918,1918,white,70,Default,no,xpyriment,legacy,legacy,0,70,1,1085,OSWeb experiment,uniform,undefined,0,0,0,0,24,24,24,0,0,74,74,74,74,0,74,74,0,43,43,43,43,0,43,43,Thu Sep 30 2021 11:34:10 GMT+0200 (Central European Summer Time),The main experiment item,yes,C:/Users/Ricsi/Documents/!!ResearchBMECOGSCI,prototype2.png,no,mono,no,18,no,black,no,no,None,null,768,legacy,xpyriment,osweb,1.3.3,right,enter,left,space,right,space,1292,12129,1103,23984,1292,18938,2,legacy,1632993686913,1024,2,48000,-16,experiment,p4sarrcol1.png,70,1113,visual_patterns_original,1,odd,91,123566,120561,91,91,552626,554129,549518,125072,549518,550623,91,815344,816847,812038,554136,812038,813340,visual_patterns,0,228258,119,yes,1366,2626
0,0,1915,1915,white,70,Default,no,xpyriment,legacy,legacy,0,70,1,1085,OSWeb experiment,uniform,undefined,0,0,0,0,24,24,24,0,0,74,74,74,74,0,74,74,0,44,44,44,44,0,44,44,Thu Sep 30 2021 11:34:10 GMT+0200 (Central European Summer Time),The main experiment item,yes,C:/Users/Ricsi/Documents/!!ResearchBMECOGSCI,prototype2.png,no,mono,no,18,no,black,no,no,None,null,768,legacy,xpyriment,osweb,1.3.3,left,enter,left,space,left,space,1485,12129,1103,23984,1485,18938,2,legacy,1632993686913,1024,2,48000,-16,experiment,p5sarrshacol4.png,70,1113,visual_patterns_original,1,odd,91,123566,120561,91,91,552626,554129,549518,125072,549518,550623,91,820372,821875,816868,554136,816866,818368,visual_patterns,0,229743,120,yes,1366,2626
0,0,1919,1919,white,70,Default,no,xpyriment,legacy,legacy,0,70,1,1085,OSWeb experiment,uniform,undefined,0,0,0,0,24,24,24,0,0,74,74,74,74,0,74,74,0,45,45,45,45,0,45,45,Thu Sep 30 2021 11:34:10 GMT+0200 (Central European Summer Time),The main experiment item,yes,C:/Users/Ricsi/Documents/!!ResearchBMECOGSCI,prototype2.png,no,mono,no,18,no,black,no,no,None,null,768,legacy,xpyriment,osweb,1.3.3,down,enter,left,space,down,space,2408,12129,1103,23984,2408,18938,2,legacy,1632993686913,1024,2,48000,-16,experiment,p3sarr3.png,70,1113,visual_patterns_original,1,odd,91,123566,120561,91,91,552626,554129,549518,125072,549518,550623,91,826318,827821,821894,554136,821894,824314,visual_patterns,0,232151,121,yes,1366,2626
0,0,1916,1916,white,70,Default,no,xpyriment,legacy,legacy,0,70,1,1085,OSWeb experiment,uniform,undefined,0,0,0,0,24,24,24,0,0,74,74,74,74,0,74,74,0,46,46,46,46,0,46,46,Thu Sep 30 2021 11:34:10 GMT+0200 (Central European Summer Time),The main experiment item,yes,C:/Users/Ricsi/Documents/!!ResearchBMECOGSCI,prototype2.png,no,mono,no,18,no,black,no,no,None,null,768,legacy,xpyriment,osweb,1.3.3,left,enter,left,space,left,space,1640,12129,1103,23984,1640,18938,2,legacy,1632993686913,1024,2,48000,-16,experiment,p2sarr3.png,70,1113,visual_patterns_original,1,odd,91,123566,120561,91,91,552626,554129,549518,125072,549518,550623,91,831496,832999,827840,554136,827840,829492,visual_patterns,0,233791,122,yes,1366,2626
0,0,1911,1911,white,70,Default,no,xpyriment,legacy,legacy,0,70,1,1085,OSWeb experiment,uniform,undefined,0,0,0,0,24,24,24,0,0,74,74,74,74,0,74,74,0,47,47,47,47,0,47,47,Thu Sep 30 2021 11:34:10 GMT+0200 (Central European Summer Time),The main experiment item,yes,C:/Users/Ricsi/Documents/!!ResearchBMECOGSCI,prototype2.png,no,mono,no,18,no,black,no,no,None,null,768,legacy,xpyriment,osweb,1.3.3,left,enter,left,space,left,space,1273,12129,1103,23984,1273,18938,2,legacy,1632993686913,1024,2,48000,-16,experiment,p4sarr2.png,70,1113,visual_patterns_original,1,odd,91,123566,120561,91,91,552626,554129,549518,125072,549518,550623,91,836323,837826,833037,554136,833037,834319,visual_patterns,0,235064,123,yes,1366,2626
0,0,1905,1905,white,70,Default,no,xpyriment,legacy,legacy,0,70,1,1085,OSWeb experiment,uniform,undefined,0,0,0,0,24,24,24,0,0,74,74,74,74,0,74,74,0,48,48,48,48,0,48,48,Thu Sep 30 2021 11:34:10 GMT+0200 (Central European Summer Time),The main experiment item,yes,C:/Users/Ricsi/Documents/!!ResearchBMECOGSCI,prototype2.png,no,mono,no,18,no,black,no,no,None,null,768,legacy,xpyriment,osweb,1.3.3,left,enter,left,space,left,space,1101,12129,1103,23984,1101,18938,2,legacy,1632993686913,1024,2,48000,-16,experiment,p2sarrshacol3.png,70,1113,visual_patterns_original,1,odd,91,123566,120561,91,91,552626,554129,549518,125072,549518,550623,91,840966,842469,837847,554136,837847,838963,visual_patterns,0,236165,124,yes,1366,2626
0,0,1911,1911,white,70,Default,no,xpyriment,legacy,legacy,0,70,1,1085,OSWeb experiment,uniform,undefined,0,0,0,0,24,24,24,0,0,74,74,74,74,0,74,74,0,49,49,49,49,0,49,49,Thu Sep 30 2021 11:34:10 GMT+0200 (Central European Summer Time),The main experiment item,yes,C:/Users/Ricsi/Documents/!!ResearchBMECOGSCI,prototype2.png,no,mono,no,18,no,black,no,no,None,null,768,legacy,xpyriment,osweb,1.3.3,left,enter,left,space,left,space,2682,12129,1103,23984,2682,18938,2,legacy,1632993686913,1024,2,48000,-16,experiment,p2sarrcol2.png,70,1113,visual_patterns_original,1,odd,91,123566,120561,91,91,552626,554129,549518,125072,549518,550623,91,847180,848683,842485,554136,842485,845176,visual_patterns,0,238847,125,yes,1366,2626
0,0,1916,1916,white,70,Default,no,xpyriment,legacy,legacy,0,70,1,1085,OSWeb experiment,uniform,undefined,0,0,0,0,24,24,24,0,0,74,74,74,74,0,74,74,0,50,50,50,50,0,50,50,Thu Sep 30 2021 11:34:10 GMT+0200 (Central European Summer Time),The main experiment item,yes,C:/Users/Ricsi/Documents/!!ResearchBMECOGSCI,prototype2.png,no,mono,no,18,no,black,no,no,None,null,768,legacy,xpyriment,osweb,1.3.3,left,enter,left,space,left,space,2596,12129,1103,23984,2596,18938,2,legacy,1632993686913,1024,2,48000,-16,experiment,p4sarrsha3.png,70,1113,visual_patterns_original,1,odd,91,123566,120561,91,91,552626,554129,549518,125072,549518,550623,91,853310,854813,848703,554136,848703,851306,visual_patterns,0,241443,126,yes,1366,2626
0,0,1933,1933,white,70,Default,no,xpyriment,legacy,legacy,0,70,1,1085,OSWeb experiment,uniform,undefined,0,0,0,0,24,24,24,0,0,74,74,74,74,0,74,74,0,51,51,51,51,0,51,51,Thu Sep 30 2021 11:34:10 GMT+0200 (Central European Summer Time),The main experiment item,yes,C:/Users/Ricsi/Documents/!!ResearchBMECOGSCI,prototype2.png,no,mono,no,18,no,black,no,no,None,null,768,legacy,xpyriment,osweb,1.3.3,None,enter,left,space,None,space,3008,12129,1103,23984,3008,18938,2,legacy,1632993686913,1024,2,48000,-16,experiment,p4sarrsha1.png,70,1113,visual_patterns_original,1,odd,91,123566,120561,91,91,552626,554129,549518,125072,549518,550623,91,859841,861344,854828,554136,854828,857837,visual_patterns,0,247450,128,yes,1366,2626
0,0,1934,1934,white,70,Default,no,xpyriment,legacy,legacy,0,70,1,1085,OSWeb experiment,uniform,undefined,0,0,0,0,24,24,24,0,0,74,74,74,74,0,74,74,0,52,52,52,52,0,52,52,Thu Sep 30 2021 11:34:10 GMT+0200 (Central European Summer Time),The main experiment item,yes,C:/Users/Ricsi/Documents/!!ResearchBMECOGSCI,prototype2.png,no,mono,no,18,no,black,no,no,None,null,768,legacy,xpyriment,osweb,1.3.3,left,enter,left,space,left,space,1986,12129,1103,23984,1986,18938,2,legacy,1632993686913,1024,2,48000,-16,experiment,p5sarrshacol3.png,70,1113,visual_patterns_original,1,odd,91,123566,120561,91,91,552626,554129,549518,125072,549518,550623,91,865369,866872,861365,554136,861365,863365,visual_patterns,0,249436,129,yes,1366,2626
0,0,1933,1933,white,70,Default,no,xpyriment,legacy,legacy,0,70,1,1085,OSWeb experiment,uniform,undefined,0,0,0,0,24,24,24,0,0,74,74,74,74,0,74,74,0,53,53,53,53,0,53,53,Thu Sep 30 2021 11:34:10 GMT+0200 (Central European Summer Time),The main experiment item,yes,C:/Users/Ricsi/Documents/!!ResearchBMECOGSCI,prototype2.png,no,mono,no,18,no,black,no,no,None,null,768,legacy,xpyriment,osweb,1.3.3,left,enter,left,space,left,space,1908,12129,1103,23984,1908,18938,2,legacy,1632993686913,1024,2,48000,-16,experiment,p5sarrshacol2.png,70,1113,visual_patterns_original,1,odd,91,123566,120561,91,91,552626,554129,549518,125072,549518,550623,91,870814,872317,866891,554136,866891,868810,visual_patterns,0,251344,130,yes,1366,2626
0,0,1938,1938,white,70,Default,no,xpyriment,legacy,legacy,0,70,1,1085,OSWeb experiment,uniform,undefined,0,0,0,0,24,24,24,0,0,74,74,74,74,0,74,74,0,54,54,54,54,0,54,54,Thu Sep 30 2021 11:34:10 GMT+0200 (Central European Summer Time),The main experiment item,yes,C:/Users/Ricsi/Documents/!!ResearchBMECOGSCI,prototype2.png,no,mono,no,18,no,black,no,no,None,null,768,legacy,xpyriment,osweb,1.3.3,down,enter,left,space,down,space,2528,12129,1103,23984,2528,18938,2,legacy,1632993686913,1024,2,48000,-16,experiment,p1sarrsha3.png,70,1113,visual_patterns_original,1,odd,91,123566,120561,91,91,552626,554129,549518,125072,549518,550623,91,876877,878380,872336,554136,872336,874873,visual_patterns,0,253872,131,yes,1366,2626
0,0,1935,1935,white,70,Default,no,xpyriment,legacy,legacy,0,70,1,1085,OSWeb experiment,uniform,undefined,0,0,0,0,24,24,24,0,0,74,74,74,74,0,74,74,0,55,55,55,55,0,55,55,Thu Sep 30 2021 11:34:10 GMT+0200 (Central European Summer Time),The main experiment item,yes,C:/Users/Ricsi/Documents/!!ResearchBMECOGSCI,prototype2.png,no,mono,no,18,no,black,no,no,None,null,768,legacy,xpyriment,osweb,1.3.3,right,enter,left,space,right,space,1568,12129,1103,23984,1568,18938,2,legacy,1632993686913,1024,2,48000,-16,experiment,p3sarrshacol2.png,70,1113,visual_patterns_original,1,odd,91,123566,120561,91,91,552626,554129,549518,125072,549518,550623,91,881972,883475,878397,554136,878397,879968,visual_patterns,0,255440,132,yes,1366,2626
0,0,1931,1931,white,70,Default,no,xpyriment,legacy,legacy,0,70,1,1085,OSWeb experiment,uniform,undefined,0,0,0,0,24,24,24,0,0,74,74,74,74,0,74,74,0,56,56,56,56,0,56,56,Thu Sep 30 2021 11:34:10 GMT+0200 (Central European Summer Time),The main experiment item,yes,C:/Users/Ricsi/Documents/!!ResearchBMECOGSCI,prototype2.png,no,mono,no,18,no,black,no,no,None,null,768,legacy,xpyriment,osweb,1.3.3,right,enter,left,space,right,space,1422,12129,1103,23984,1422,18938,2,legacy,1632993686913,1024,2,48000,-16,experiment,p10sarr2.png,70,1113,visual_patterns_original,1,odd,91,123566,120561,91,91,552626,554129,549518,125072,549518,550623,91,886932,888435,883490,554136,883490,884929,visual_patterns,0,256862,133,yes,1366,2626
0,0,1926,1926,white,70,Default,no,xpyriment,legacy,legacy,0,70,1,1085,OSWeb experiment,uniform,undefined,0,0,0,0,24,24,24,0,0,74,74,74,74,0,74,74,0,57,57,57,57,0,57,57,Thu Sep 30 2021 11:34:10 GMT+0200 (Central European Summer Time),The main experiment item,yes,C:/Users/Ricsi/Documents/!!ResearchBMECOGSCI,prototype2.png,no,mono,no,18,no,black,no,no,None,null,768,legacy,xpyriment,osweb,1.3.3,left,enter,left,space,left,space,1288,12129,1103,23984,1288,18938,2,legacy,1632993686913,1024,2,48000,-16,experiment,p5sarrcol3.png,70,1113,visual_patterns_original,1,odd,91,123566,120561,91,91,552626,554129,549518,125072,549518,550623,91,891760,893263,888454,554136,888454,889756,visual_patterns,0,258150,134,yes,1366,2626
0,0,1929,1929,white,70,Default,no,xpyriment,legacy,legacy,0,70,1,1085,OSWeb experiment,uniform,undefined,0,0,0,0,24,24,24,0,0,74,74,74,74,0,74,74,0,58,58,58,58,0,58,58,Thu Sep 30 2021 11:34:10 GMT+0200 (Central European Summer Time),The main experiment item,yes,C:/Users/Ricsi/Documents/!!ResearchBMECOGSCI,prototype2.png,no,mono,no,18,no,black,no,no,None,null,768,legacy,xpyriment,osweb,1.3.3,right,enter,left,space,right,space,2331,12129,1103,23984,2331,18938,2,legacy,1632993686913,1024,2,48000,-16,experiment,p5sarr4.png,70,1113,visual_patterns_original,1,odd,91,123566,120561,91,91,552626,554129,549518,125072,549518,550623,91,897622,899125,893283,554136,893283,895618,visual_patterns,0,260481,135,yes,1366,2626
0,0,1923,1923,white,70,Default,no,xpyriment,legacy,legacy,0,70,1,1085,OSWeb experiment,uniform,undefined,0,0,0,0,24,24,24,0,0,74,74,74,74,0,74,74,0,59,59,59,59,0,59,59,Thu Sep 30 2021 11:34:10 GMT+0200 (Central European Summer Time),The main experiment item,yes,C:/Users/Ricsi/Documents/!!ResearchBMECOGSCI,prototype2.png,no,mono,no,18,no,black,no,no,None,null,768,legacy,xpyriment,osweb,1.3.3,left,enter,left,space,left,space,1072,12129,1103,23984,1072,18938,2,legacy,1632993686913,1024,2,48000,-16,experiment,p3sarrsha1.png,70,1113,visual_patterns_original,1,odd,91,123566,120561,91,91,552626,554129,549518,125072,549518,550623,91,902232,903735,899141,554136,899141,900228,visual_patterns,0,261553,136,yes,1366,2626
0,0,1930,1930,white,70,Default,no,xpyriment,legacy,legacy,0,70,1,1085,OSWeb experiment,uniform,undefined,0,0,0,0,24,24,24,0,0,74,74,74,74,0,74,74,0,60,60,60,60,0,60,60,Thu Sep 30 2021 11:34:10 GMT+0200 (Central European Summer Time),The main experiment item,yes,C:/Users/Ricsi/Documents/!!ResearchBMECOGSCI,prototype2.png,no,mono,no,18,no,black,no,no,None,null,768,legacy,xpyriment,osweb,1.3.3,down,enter,left,space,down,space,2823,12129,1103,23984,2823,18938,2,legacy,1632993686913,1024,2,48000,-16,experiment,p5sarr1.png,70,1113,visual_patterns_original,1,odd,91,123566,120561,91,91,552626,554129,549518,125072,549518,550623,91,908598,910099,903753,554136,903753,906592,visual_patterns,0,264376,137,yes,1366,2626
0,0,1926,1926,white,70,Default,no,xpyriment,legacy,legacy,0,70,1,1085,OSWeb experiment,uniform,undefined,0,0,0,0,24,24,24,0,0,74,74,74,74,0,74,74,0,61,61,61,61,0,61,61,Thu Sep 30 2021 11:34:10 GMT+0200 (Central European Summer Time),The main experiment item,yes,C:/Users/Ricsi/Documents/!!ResearchBMECOGSCI,prototype2.png,no,mono,no,18,no,black,no,no,None,null,768,legacy,xpyriment,osweb,1.3.3,down,enter,left,space,down,space,1447,12129,1103,23984,1447,18938,2,legacy,1632993686913,1024,2,48000,-16,experiment,p1sarrcol2.png,70,1113,visual_patterns_original,1,odd,91,123566,120561,91,91,552626,554129,549518,125072,549518,550623,91,913573,915076,910114,554136,910114,911570,visual_patterns,0,265823,138,yes,1366,2626
0,0,1933,1933,white,70,Default,no,xpyriment,legacy,legacy,0,70,1,1085,OSWeb experiment,uniform,undefined,0,0,0,0,24,24,24,0,0,74,74,74,74,0,74,74,0,62,62,62,62,0,62,62,Thu Sep 30 2021 11:34:10 GMT+0200 (Central European Summer Time),The main experiment item,yes,C:/Users/Ricsi/Documents/!!ResearchBMECOGSCI,prototype2.png,no,mono,no,18,no,black,no,no,None,null,768,legacy,xpyriment,osweb,1.3.3,right,enter,left,space,right,space,2927,12129,1103,23984,2927,18938,2,legacy,1632993686913,1024,2,48000,-16,experiment,p6sarr4.png,70,1113,visual_patterns_original,1,odd,91,123566,120561,91,91,552626,554129,549518,125072,549518,550623,91,920071,921574,915124,554136,915124,918067,visual_patterns,0,268750,139,yes,1366,2626
0,0,1937,1937,white,70,Default,no,xpyriment,legacy,legacy,0,70,1,1085,OSWeb experiment,uniform,undefined,0,0,0,0,24,24,24,0,0,74,74,74,74,0,74,74,0,63,63,63,63,0,63,63,Thu Sep 30 2021 11:34:10 GMT+0200 (Central European Summer Time),The main experiment item,yes,C:/Users/Ricsi/Documents/!!ResearchBMECOGSCI,prototype2.png,no,mono,no,18,no,black,no,no,None,null,768,legacy,xpyriment,osweb,1.3.3,right,enter,left,space,right,space,2368,12129,1103,23984,2368,18938,2,legacy,1632993686913,1024,2,48000,-16,experiment,p6sarr3.png,70,1113,visual_patterns_original,1,odd,91,123566,120561,91,91,552626,554129,549518,125072,549518,550623,91,925967,927470,921594,554136,921594,923963,visual_patterns,0,271118,140,yes,1366,2626
0,0,1933,1933,white,70,Default,no,xpyriment,legacy,legacy,0,70,1,1085,OSWeb experiment,uniform,undefined,0,0,0,0,24,24,24,0,0,74,74,74,74,0,74,74,0,64,64,64,64,0,64,64,Thu Sep 30 2021 11:34:10 GMT+0200 (Central European Summer Time),The main experiment item,yes,C:/Users/Ricsi/Documents/!!ResearchBMECOGSCI,prototype2.png,no,mono,no,18,no,black,no,no,None,null,768,legacy,xpyriment,osweb,1.3.3,right,enter,left,space,right,space,1476,12129,1103,23984,1476,18938,2,legacy,1632993686913,1024,2,48000,-16,experiment,p4sarr3.png,70,1113,visual_patterns_original,1,odd,91,123566,120561,91,91,552626,554129,549518,125072,549518,550623,91,930978,932481,927492,554136,927492,928974,visual_patterns,0,272594,141,yes,1366,2626
0,0,1930,1930,white,70,Default,no,xpyriment,legacy,legacy,0,70,1,1085,OSWeb experiment,uniform,undefined,0,0,0,0,24,24,24,0,0,74,74,74,74,0,74,74,0,65,65,65,65,0,65,65,Thu Sep 30 2021 11:34:10 GMT+0200 (Central European Summer Time),The main experiment item,yes,C:/Users/Ricsi/Documents/!!ResearchBMECOGSCI,prototype2.png,no,mono,no,18,no,black,no,no,None,null,768,legacy,xpyriment,osweb,1.3.3,left,enter,left,space,left,space,1534,12129,1103,23984,1534,18938,2,legacy,1632993686913,1024,2,48000,-16,experiment,p1sarrsha2.png,70,1113,visual_patterns_original,1,odd,91,123566,120561,91,91,552626,554129,549518,125072,549518,550623,91,936047,937558,932496,554136,932496,934035,visual_patterns,0,274128,142,yes,1366,2626
0,0,1937,1937,white,70,Default,no,xpyriment,legacy,legacy,0,70,1,1085,OSWeb experiment,uniform,undefined,0,0,0,0,24,24,24,0,0,74,74,74,74,0,74,74,0,66,66,66,66,0,66,66,Thu Sep 30 2021 11:34:10 GMT+0200 (Central European Summer Time),The main experiment item,yes,C:/Users/Ricsi/Documents/!!ResearchBMECOGSCI,prototype2.png,no,mono,no,18,no,black,no,no,None,null,768,legacy,xpyriment,osweb,1.3.3,left,enter,left,space,left,space,2827,12129,1103,23984,2827,18938,2,legacy,1632993686913,1024,2,48000,-16,experiment,p2sarrsha4.png,70,1113,visual_patterns_original,1,odd,91,123566,120561,91,91,552626,554129,549518,125072,549518,550623,91,942419,943922,937577,554136,937577,940415,visual_patterns,0,276955,143,yes,1366,2626
0,0,1944,1944,white,70,Default,no,xpyriment,legacy,legacy,0,70,1,1085,OSWeb experiment,uniform,undefined,0,0,0,0,24,24,24,0,0,74,74,74,74,0,74,74,0,67,67,67,67,0,67,67,Thu Sep 30 2021 11:34:10 GMT+0200 (Central European Summer Time),The main experiment item,yes,C:/Users/Ricsi/Documents/!!ResearchBMECOGSCI,prototype2.png,no,mono,no,18,no,black,no,no,None,null,768,legacy,xpyriment,osweb,1.3.3,None,enter,left,space,None,space,3008,12129,1103,23984,3008,18938,2,legacy,1632993686913,1024,2,48000,-16,experiment,p3sarrcol1.png,70,1113,visual_patterns_original,1,odd,91,123566,120561,91,91,552626,554129,549518,125072,549518,550623,91,948950,950453,943937,554136,943937,946946,visual_patterns,0,279963,144,yes,1366,2626
0,0,1943,1943,white,70,Default,no,xpyriment,legacy,legacy,0,70,1,1085,OSWeb experiment,uniform,undefined,0,0,0,0,24,24,24,0,0,74,74,74,74,0,74,74,0,68,68,68,68,0,68,68,Thu Sep 30 2021 11:34:10 GMT+0200 (Central European Summer Time),The main experiment item,yes,C:/Users/Ricsi/Documents/!!ResearchBMECOGSCI,prototype2.png,no,mono,no,18,no,black,no,no,None,null,768,legacy,xpyriment,osweb,1.3.3,left,enter,left,space,left,space,1793,12129,1103,23984,1793,18938,2,legacy,1632993686913,1024,2,48000,-16,experiment,p2sarrsha2.png,70,1113,visual_patterns_original,1,odd,91,123566,120561,91,91,552626,554129,549518,125072,549518,550623,91,954278,955781,950472,554136,950472,952274,visual_patterns,0,281756,145,yes,1366,2626
