acc,accuracy,average_response_time,avg_rt,background,bidi,browser_codename,browser_name,browser_version,canvas_backend,clock_backend,color_backend,compensation,coordinates,correct,correct_number_input_1,correct_study_response,count_end,count_experiment,count_famrecall,count_get_input_loop_1,count_get_input_sequence_1,count_init_1,count_neptun_textinput,count_number_input_1,count_osweb,count_prestudy,count_prestudy_isi,count_prestudy_sequence,count_prestudy_stimpres,count_process_input_1,count_recall,count_recallcounter,count_recalltest_start,count_show_input_1,count_start,count_study,count_study_getresptime,count_study_isi,count_study_logger,count_study_response,count_study_sequence,count_study_start,count_study_stimp2,count_study_stimpres,count_test,count_test_start,count_textinp_1,date_startdate,date_startdateUTC,date_starttime,datetime,description,disable_garbage_collection,empty_column,experiment_debug,experiment_parameters,experiment_path,experiment_pilot,experiment_taskname,experiment_taskversion,fampict,font_bold,font_family,font_italic,font_size,font_underline,foreground,form_clicks,fullscreen,height,jatosStudyResultId,jatosVersion,keyboard_backend,mouse_backend,multichar_knowresp,opensesame_codename,opensesame_version,p2dur,penwidth,repeat_cycle,response,response_number_input_1,response_start,response_study_response,response_study_start,response_time,response_time_number_input_1,response_time_start,response_time_study_response,response_time_study_start,round_decimals,rtnr,sampler_backend,screen_availableHeight,screen_availableWidth,screen_colorDepth,screen_height,screen_pixelDepth,screen_screenX,screen_screenY,screen_width,sessionid,sound_buf_size,sound_channels,sound_freq,sound_sample_size,start,stim,subject_nr,subject_parity,system_os,time_famrecall,time_get_input_loop_1,time_init_1,time_number_input_1,time_prestudy,time_prestudy_isi,time_prestudy_stimpres,time_process_input_1,time_show_input_1,time_start,time_study,time_study_getresptime,time_study_isi,time_study_logger,time_study_response,time_study_start,time_study_stimp2,time_study_stimpres,time_test,time_textinp_1,title,total_correct,total_response_time,total_responses,uniform_coordinates,width
,,,,,,Mozilla,Netscape,"5.0 (Windows NT 10.0; Win64; x64) AppleWebKit/537.36 (KHTML, like Gecko) Chrome/118.0.0.0 Safari/537.36",,,,,,,,,,,,,,,,,,,,,,,,,,,,,,,,,,,,,,,,25-09-23,25-09-23,11:03:52,,,,,0,0,,0,0,0,,,,,,,,,,,2240,3.5.8,,,m55dj9,,,,,,,,,,,,,,,,,,,900,1600,24,900,24,0,0,1600,,,,,,,,,,Win32,,,,,,,,,,,,,,,,,,,,,,,,,,
0,0,1032,1032,white,no,Mozilla,Netscape,"5.0 (Windows NT 10.0; Win64; x64) AppleWebKit/537.36 (KHTML, like Gecko) Chrome/118.0.0.0 Safari/537.36",xpyriment,legacy,legacy,0,uniform,,,,0,0,0,0,7,0,0,7,0,0,19,19,19,7,0,0,0,7,0,0,0,0,0,0,0,0,0,0,0,0,0,25-09-23,25-09-23,11:03:52,Wed Oct 25 2023 11:03:52 GMT+0200 (közép-európai nyári idő),The main experiment item,yes,,0,0,C:\Users\zymotik\Documents\!research\GNET,0,0,0,prototype4.png,no,mono,no,18,no,black,no,no,768,2240,3.5.8,legacy,xpyriment,m55dj9,osweb,1.4.0,0,1,0,None,enter,k,None,l,3005,810,15228,3005,28687,2,0,legacy,900,1600,24,900,24,0,0,1600,1698224662963,1024,2,48000,-16,experiment,p2sarrshacol2.png,1,odd,Win32,179,179,147,5794,179,111028,108013,6615,5794,6617,179,144297,144300,145814,141292,112547,144299,141292,179,6616,GNET_4stim_recallt_idinput_artn_-_STUDY,0,9287,9,yes,1366
0,0,1230,1230,white,no,Mozilla,Netscape,"5.0 (Windows NT 10.0; Win64; x64) AppleWebKit/537.36 (KHTML, like Gecko) Chrome/118.0.0.0 Safari/537.36",xpyriment,legacy,legacy,0,uniform,,,,0,0,0,0,7,0,0,7,0,0,19,19,19,7,0,0,0,7,0,0,1,1,1,1,1,0,1,1,0,0,0,25-09-23,25-09-23,11:03:52,Wed Oct 25 2023 11:03:52 GMT+0200 (közép-európai nyári idő),The main experiment item,yes,,0,0,C:\Users\zymotik\Documents\!research\GNET,0,0,0,prototype4.png,no,mono,no,18,no,black,no,no,768,2240,3.5.8,legacy,xpyriment,m55dj9,osweb,1.4.0,0,1,0,None,enter,k,None,l,3009,810,15228,3009,28687,2,0,legacy,900,1600,24,900,24,0,0,1600,1698224662963,1024,2,48000,-16,experiment,p1sarrsha2.png,1,odd,Win32,179,179,147,5794,179,111028,108013,6615,5794,6617,179,148864,148867,150381,145854,112547,148867,145854,179,6616,GNET_4stim_recallt_idinput_artn_-_STUDY,0,12296,10,yes,1366
0,0,1392,1392,white,no,Mozilla,Netscape,"5.0 (Windows NT 10.0; Win64; x64) AppleWebKit/537.36 (KHTML, like Gecko) Chrome/118.0.0.0 Safari/537.36",xpyriment,legacy,legacy,0,uniform,,,,0,0,0,0,7,0,0,7,0,0,19,19,19,7,0,0,0,7,0,0,2,2,2,2,2,0,2,2,0,0,0,25-09-23,25-09-23,11:03:52,Wed Oct 25 2023 11:03:52 GMT+0200 (közép-európai nyári idő),The main experiment item,yes,,0,0,C:\Users\zymotik\Documents\!research\GNET,0,0,0,prototype4.png,no,mono,no,18,no,black,no,no,768,2240,3.5.8,legacy,xpyriment,m55dj9,osweb,1.4.0,0,1,0,None,enter,k,None,l,3017,810,15228,3017,28687,2,0,legacy,900,1600,24,900,24,0,0,1600,1698224662963,1024,2,48000,-16,experiment,p4sarrsha2.png,1,odd,Win32,179,179,147,5794,179,111028,108013,6615,5794,6617,179,153414,153417,154931,150397,112547,153416,150396,179,6616,GNET_4stim_recallt_idinput_artn_-_STUDY,0,15313,11,yes,1366
0,0,1463,1463,white,no,Mozilla,Netscape,"5.0 (Windows NT 10.0; Win64; x64) AppleWebKit/537.36 (KHTML, like Gecko) Chrome/118.0.0.0 Safari/537.36",xpyriment,legacy,legacy,0,uniform,,,,0,0,0,0,7,0,0,7,0,0,19,19,19,7,0,0,0,7,0,0,3,3,3,3,3,0,3,3,0,0,0,25-09-23,25-09-23,11:03:52,Wed Oct 25 2023 11:03:52 GMT+0200 (közép-európai nyári idő),The main experiment item,yes,,0,0,C:\Users\zymotik\Documents\!research\GNET,0,0,0,prototype4.png,no,mono,no,18,no,black,no,no,768,2240,3.5.8,legacy,xpyriment,m55dj9,osweb,1.4.0,757,1,0,right,enter,k,right,l,2243,810,15228,2243,28687,2,0,legacy,900,1600,24,900,24,0,0,1600,1698224662963,1024,2,48000,-16,experiment,p2sarrcol1.png,1,odd,Win32,179,179,147,5794,179,111028,108013,6615,5794,6617,179,157198,157965,159481,154945,112547,157201,154945,179,6616,GNET_4stim_recallt_idinput_artn_-_STUDY,0,17556,12,yes,1366
0,0,1495,1495,white,no,Mozilla,Netscape,"5.0 (Windows NT 10.0; Win64; x64) AppleWebKit/537.36 (KHTML, like Gecko) Chrome/118.0.0.0 Safari/537.36",xpyriment,legacy,legacy,0,uniform,,,,0,0,0,0,7,0,0,7,0,0,19,19,19,7,0,0,0,7,0,0,4,4,4,4,4,0,4,4,0,0,0,25-09-23,25-09-23,11:03:52,Wed Oct 25 2023 11:03:52 GMT+0200 (közép-európai nyári idő),The main experiment item,yes,,0,0,C:\Users\zymotik\Documents\!research\GNET,0,0,0,prototype4.png,no,mono,no,18,no,black,no,no,768,2240,3.5.8,legacy,xpyriment,m55dj9,osweb,1.4.0,1119,1,0,right,enter,k,right,l,1881,810,15228,1881,28687,2,0,legacy,900,1600,24,900,24,0,0,1600,1698224662963,1024,2,48000,-16,experiment,p9sarr2.png,1,odd,Win32,179,179,147,5794,179,111028,108013,6615,5794,6617,179,161398,162532,164049,159502,112547,161400,159502,179,6616,GNET_4stim_recallt_idinput_artn_-_STUDY,0,19437,13,yes,1366
0,0,1488,1488,white,no,Mozilla,Netscape,"5.0 (Windows NT 10.0; Win64; x64) AppleWebKit/537.36 (KHTML, like Gecko) Chrome/118.0.0.0 Safari/537.36",xpyriment,legacy,legacy,0,uniform,,,,0,0,0,0,7,0,0,7,0,0,19,19,19,7,0,0,0,7,0,0,5,5,5,5,5,0,5,5,0,0,0,25-09-23,25-09-23,11:03:52,Wed Oct 25 2023 11:03:52 GMT+0200 (közép-európai nyári idő),The main experiment item,yes,,0,0,C:\Users\zymotik\Documents\!research\GNET,0,0,0,prototype4.png,no,mono,no,18,no,black,no,no,768,2240,3.5.8,legacy,xpyriment,m55dj9,osweb,1.4.0,1599,1,0,right,enter,k,right,l,1401,810,15228,1401,28687,2,0,legacy,900,1600,24,900,24,0,0,1600,1698224662963,1024,2,48000,-16,experiment,p1sarr2.png,1,odd,Win32,179,179,147,5794,179,111028,108013,6615,5794,6617,179,165466,167083,168599,164063,112547,165468,164063,179,6616,GNET_4stim_recallt_idinput_artn_-_STUDY,0,20838,14,yes,1366
0,0,1546,1546,white,no,Mozilla,Netscape,"5.0 (Windows NT 10.0; Win64; x64) AppleWebKit/537.36 (KHTML, like Gecko) Chrome/118.0.0.0 Safari/537.36",xpyriment,legacy,legacy,0,uniform,,,,0,0,0,0,7,0,0,7,0,0,19,19,19,7,0,0,0,7,0,0,6,6,6,6,6,0,6,6,0,0,0,25-09-23,25-09-23,11:03:52,Wed Oct 25 2023 11:03:52 GMT+0200 (közép-európai nyári idő),The main experiment item,yes,,0,0,C:\Users\zymotik\Documents\!research\GNET,0,0,0,prototype4.png,no,mono,no,18,no,black,no,no,768,2240,3.5.8,legacy,xpyriment,m55dj9,osweb,1.4.0,654,1,0,right,enter,k,right,l,2346,810,15228,2346,28687,2,0,legacy,900,1600,24,900,24,0,0,1600,1698224662963,1024,2,48000,-16,experiment,p3sarrsha2.png,1,odd,Win32,179,179,147,5794,179,111028,108013,6615,5794,6617,179,170966,171633,173150,168613,112547,170969,168613,179,6616,GNET_4stim_recallt_idinput_artn_-_STUDY,0,23184,15,yes,1366
0,0,1543,1543,white,no,Mozilla,Netscape,"5.0 (Windows NT 10.0; Win64; x64) AppleWebKit/537.36 (KHTML, like Gecko) Chrome/118.0.0.0 Safari/537.36",xpyriment,legacy,legacy,0,uniform,,,,0,0,0,0,7,0,0,7,0,0,19,19,19,7,0,0,0,7,0,0,7,7,7,7,7,0,7,7,0,0,0,25-09-23,25-09-23,11:03:52,Wed Oct 25 2023 11:03:52 GMT+0200 (közép-európai nyári idő),The main experiment item,yes,,0,0,C:\Users\zymotik\Documents\!research\GNET,0,0,0,prototype4.png,no,mono,no,18,no,black,no,no,768,2240,3.5.8,legacy,xpyriment,m55dj9,osweb,1.4.0,1491,1,0,left,enter,k,left,l,1509,810,15228,1509,28687,2,0,legacy,900,1600,24,900,24,0,0,1600,1698224662963,1024,2,48000,-16,experiment,prototype3.png,1,odd,Win32,179,179,147,5794,179,111028,108013,6615,5794,6617,179,174683,176184,177700,173165,112547,174685,173164,179,6616,GNET_4stim_recallt_idinput_artn_-_STUDY,0,24693,16,yes,1366
0,0,1502,1502,white,no,Mozilla,Netscape,"5.0 (Windows NT 10.0; Win64; x64) AppleWebKit/537.36 (KHTML, like Gecko) Chrome/118.0.0.0 Safari/537.36",xpyriment,legacy,legacy,0,uniform,,,,0,0,0,0,7,0,0,7,0,0,19,19,19,7,0,0,0,7,0,0,8,8,8,8,8,0,8,8,0,0,0,25-09-23,25-09-23,11:03:52,Wed Oct 25 2023 11:03:52 GMT+0200 (közép-európai nyári idő),The main experiment item,yes,,0,0,C:\Users\zymotik\Documents\!research\GNET,0,0,0,prototype4.png,no,mono,no,18,no,black,no,no,768,2240,3.5.8,legacy,xpyriment,m55dj9,osweb,1.4.0,2161,1,0,right,enter,k,right,l,839,810,15228,839,28687,2,0,legacy,900,1600,24,900,24,0,0,1600,1698224662963,1024,2,48000,-16,experiment,p7sarr1.png,1,odd,Win32,179,179,147,5794,179,111028,108013,6615,5794,6617,179,178567,180734,182250,177714,112547,178569,177714,179,6616,GNET_4stim_recallt_idinput_artn_-_STUDY,0,25532,17,yes,1366
0,0,1494,1494,white,no,Mozilla,Netscape,"5.0 (Windows NT 10.0; Win64; x64) AppleWebKit/537.36 (KHTML, like Gecko) Chrome/118.0.0.0 Safari/537.36",xpyriment,legacy,legacy,0,uniform,,,,0,0,0,0,7,0,0,7,0,0,19,19,19,7,0,0,0,7,0,0,9,9,9,9,9,0,9,9,0,0,0,25-09-23,25-09-23,11:03:52,Wed Oct 25 2023 11:03:52 GMT+0200 (közép-európai nyári idő),The main experiment item,yes,,0,0,C:\Users\zymotik\Documents\!research\GNET,0,0,0,prototype4.png,no,mono,no,18,no,black,no,no,768,2240,3.5.8,legacy,xpyriment,m55dj9,osweb,1.4.0,1643,1,0,left,enter,k,left,l,1357,810,15228,1357,28687,2,0,legacy,900,1600,24,900,24,0,0,1600,1698224662963,1024,2,48000,-16,experiment,prototype3.png,1,odd,Win32,179,179,147,5794,179,111028,108013,6615,5794,6617,179,183634,185284,186801,182262,112547,183637,182261,179,6616,GNET_4stim_recallt_idinput_artn_-_STUDY,0,26889,18,yes,1366
0,0,1463,1463,white,no,Mozilla,Netscape,"5.0 (Windows NT 10.0; Win64; x64) AppleWebKit/537.36 (KHTML, like Gecko) Chrome/118.0.0.0 Safari/537.36",xpyriment,legacy,legacy,0,uniform,,,,0,0,0,0,7,0,0,7,0,0,19,19,19,7,0,0,0,7,0,0,10,10,10,10,10,0,10,10,0,0,0,25-09-23,25-09-23,11:03:52,Wed Oct 25 2023 11:03:52 GMT+0200 (közép-európai nyári idő),The main experiment item,yes,,0,0,C:\Users\zymotik\Documents\!research\GNET,0,0,0,prototype4.png,no,mono,no,18,no,black,no,no,768,2240,3.5.8,legacy,xpyriment,m55dj9,osweb,1.4.0,2084,1,0,right,enter,k,right,l,916,810,15228,916,28687,2,0,legacy,900,1600,24,900,24,0,0,1600,1698224662963,1024,2,48000,-16,experiment,p3sarrsha1.png,1,odd,Win32,179,179,147,5794,179,111028,108013,6615,5794,6617,179,187734,189835,191351,186816,112547,187737,186816,179,6616,GNET_4stim_recallt_idinput_artn_-_STUDY,0,27805,19,yes,1366
0,0,1461,1461,white,no,Mozilla,Netscape,"5.0 (Windows NT 10.0; Win64; x64) AppleWebKit/537.36 (KHTML, like Gecko) Chrome/118.0.0.0 Safari/537.36",xpyriment,legacy,legacy,0,uniform,,,,0,0,0,0,7,0,0,7,0,0,19,19,19,7,0,0,0,7,0,0,11,11,11,11,11,0,11,11,0,0,0,25-09-23,25-09-23,11:03:52,Wed Oct 25 2023 11:03:52 GMT+0200 (közép-európai nyári idő),The main experiment item,yes,,0,0,C:\Users\zymotik\Documents\!research\GNET,0,0,0,prototype4.png,no,mono,no,18,no,black,no,no,768,2240,3.5.8,legacy,xpyriment,m55dj9,osweb,1.4.0,1586,1,0,right,enter,k,right,l,1414,810,15228,1414,28687,2,0,legacy,900,1600,24,900,24,0,0,1600,1698224662963,1024,2,48000,-16,experiment,p4sarrshacol1.png,1,odd,Win32,179,179,147,5794,179,111028,108013,6615,5794,6617,179,192802,194402,195919,191385,112547,192804,191385,179,6616,GNET_4stim_recallt_idinput_artn_-_STUDY,0,29219,20,yes,1366
0,0,1441,1441,white,no,Mozilla,Netscape,"5.0 (Windows NT 10.0; Win64; x64) AppleWebKit/537.36 (KHTML, like Gecko) Chrome/118.0.0.0 Safari/537.36",xpyriment,legacy,legacy,0,uniform,,,,0,0,0,0,7,0,0,7,0,0,19,19,19,7,0,0,0,7,0,0,12,12,12,12,12,0,12,12,0,0,0,25-09-23,25-09-23,11:03:52,Wed Oct 25 2023 11:03:52 GMT+0200 (közép-európai nyári idő),The main experiment item,yes,,0,0,C:\Users\zymotik\Documents\!research\GNET,0,0,0,prototype4.png,no,mono,no,18,no,black,no,no,768,2240,3.5.8,legacy,xpyriment,m55dj9,osweb,1.4.0,1962,1,0,right,enter,k,right,l,1038,810,15228,1038,28687,2,0,legacy,900,1600,24,900,24,0,0,1600,1698224662963,1024,2,48000,-16,experiment,p1sarrcol2.png,1,odd,Win32,179,179,147,5794,179,111028,108013,6615,5794,6617,179,196986,198953,200469,195933,112547,196988,195933,179,6616,GNET_4stim_recallt_idinput_artn_-_STUDY,0,30257,21,yes,1366
0,0,1422,1422,white,no,Mozilla,Netscape,"5.0 (Windows NT 10.0; Win64; x64) AppleWebKit/537.36 (KHTML, like Gecko) Chrome/118.0.0.0 Safari/537.36",xpyriment,legacy,legacy,0,uniform,,,,0,0,0,0,7,0,0,7,0,0,19,19,19,7,0,0,0,7,0,0,13,13,13,13,13,0,13,13,0,0,0,25-09-23,25-09-23,11:03:52,Wed Oct 25 2023 11:03:52 GMT+0200 (közép-európai nyári idő),The main experiment item,yes,,0,0,C:\Users\zymotik\Documents\!research\GNET,0,0,0,prototype4.png,no,mono,no,18,no,black,no,no,768,2240,3.5.8,legacy,xpyriment,m55dj9,osweb,1.4.0,1984,1,0,right,enter,k,right,l,1016,810,15228,1016,28687,2,0,legacy,900,1600,24,900,24,0,0,1600,1698224662963,1024,2,48000,-16,experiment,p3sarr2.png,1,odd,Win32,179,179,147,5794,179,111028,108013,6615,5794,6617,179,201503,203503,205020,200483,112547,201505,200483,179,6616,GNET_4stim_recallt_idinput_artn_-_STUDY,0,31273,22,yes,1366
0,0,1403,1403,white,no,Mozilla,Netscape,"5.0 (Windows NT 10.0; Win64; x64) AppleWebKit/537.36 (KHTML, like Gecko) Chrome/118.0.0.0 Safari/537.36",xpyriment,legacy,legacy,0,uniform,,,,0,0,0,0,7,0,0,7,0,0,19,19,19,7,0,0,0,7,0,0,14,14,14,14,14,0,14,14,0,0,0,25-09-23,25-09-23,11:03:52,Wed Oct 25 2023 11:03:52 GMT+0200 (közép-európai nyári idő),The main experiment item,yes,,0,0,C:\Users\zymotik\Documents\!research\GNET,0,0,0,prototype4.png,no,mono,no,18,no,black,no,no,768,2240,3.5.8,legacy,xpyriment,m55dj9,osweb,1.4.0,2005,1,0,right,enter,k,right,l,995,810,15228,995,28687,2,0,legacy,900,1600,24,900,24,0,0,1600,1698224662963,1024,2,48000,-16,experiment,p8sarr1.png,1,odd,Win32,179,179,147,5794,179,111028,108013,6615,5794,6617,179,206037,208053,209570,205034,112547,206039,205034,179,6616,GNET_4stim_recallt_idinput_artn_-_STUDY,0,32268,23,yes,1366
0,0,1401,1401,white,no,Mozilla,Netscape,"5.0 (Windows NT 10.0; Win64; x64) AppleWebKit/537.36 (KHTML, like Gecko) Chrome/118.0.0.0 Safari/537.36",xpyriment,legacy,legacy,0,uniform,,,,0,0,0,0,7,0,0,7,0,0,19,19,19,7,0,0,0,7,0,0,15,15,15,15,15,0,15,15,0,0,0,25-09-23,25-09-23,11:03:52,Wed Oct 25 2023 11:03:52 GMT+0200 (közép-európai nyári idő),The main experiment item,yes,,0,0,C:\Users\zymotik\Documents\!research\GNET,0,0,0,prototype4.png,no,mono,no,18,no,black,no,no,768,2240,3.5.8,legacy,xpyriment,m55dj9,osweb,1.4.0,1652,1,0,left,enter,k,left,l,1348,810,15228,1348,28687,2,0,legacy,900,1600,24,900,24,0,0,1600,1698224662963,1024,2,48000,-16,experiment,p1sarr1.png,1,odd,Win32,179,179,147,5794,179,111028,108013,6615,5794,6617,179,210937,212604,214120,209586,112547,210939,209586,179,6616,GNET_4stim_recallt_idinput_artn_-_STUDY,0,33616,24,yes,1366
0,0,1388,1388,white,no,Mozilla,Netscape,"5.0 (Windows NT 10.0; Win64; x64) AppleWebKit/537.36 (KHTML, like Gecko) Chrome/118.0.0.0 Safari/537.36",xpyriment,legacy,legacy,0,uniform,,,,0,0,0,0,7,0,0,7,0,0,19,19,19,7,0,0,0,7,0,0,16,16,16,16,16,0,16,16,0,0,0,25-09-23,25-09-23,11:03:52,Wed Oct 25 2023 11:03:52 GMT+0200 (közép-európai nyári idő),The main experiment item,yes,,0,0,C:\Users\zymotik\Documents\!research\GNET,0,0,0,prototype4.png,no,mono,no,18,no,black,no,no,768,2240,3.5.8,legacy,xpyriment,m55dj9,osweb,1.4.0,1911,1,0,right,enter,k,right,l,1089,810,15228,1089,28687,2,0,legacy,900,1600,24,900,24,0,0,1600,1698224662963,1024,2,48000,-16,experiment,p4sarr2.png,1,odd,Win32,179,179,147,5794,179,111028,108013,6615,5794,6617,179,215254,217171,218687,214149,112547,215256,214149,179,6616,GNET_4stim_recallt_idinput_artn_-_STUDY,0,34705,25,yes,1366
0,0,1398,1398,white,no,Mozilla,Netscape,"5.0 (Windows NT 10.0; Win64; x64) AppleWebKit/537.36 (KHTML, like Gecko) Chrome/118.0.0.0 Safari/537.36",xpyriment,legacy,legacy,0,uniform,,,,0,0,0,0,7,0,0,7,0,0,19,19,19,7,0,0,0,7,0,0,17,17,17,17,17,0,17,17,0,0,0,25-09-23,25-09-23,11:03:52,Wed Oct 25 2023 11:03:52 GMT+0200 (közép-európai nyári idő),The main experiment item,yes,,0,0,C:\Users\zymotik\Documents\!research\GNET,0,0,0,prototype4.png,no,mono,no,18,no,black,no,no,768,2240,3.5.8,legacy,xpyriment,m55dj9,osweb,1.4.0,1356,1,0,left,enter,k,left,l,1644,810,15228,1644,28687,2,0,legacy,900,1600,24,900,24,0,0,1600,1698224662963,1024,2,48000,-16,experiment,prototype1.png,1,odd,Win32,179,179,147,5794,179,111028,108013,6615,5794,6617,179,220355,221722,223238,218701,112547,220357,218701,179,6616,GNET_4stim_recallt_idinput_artn_-_STUDY,0,36349,26,yes,1366
0,0,1392,1392,white,no,Mozilla,Netscape,"5.0 (Windows NT 10.0; Win64; x64) AppleWebKit/537.36 (KHTML, like Gecko) Chrome/118.0.0.0 Safari/537.36",xpyriment,legacy,legacy,0,uniform,,,,0,0,0,0,7,0,0,7,0,0,19,19,19,7,0,0,0,7,0,0,18,18,18,18,18,0,18,18,0,0,0,25-09-23,25-09-23,11:03:52,Wed Oct 25 2023 11:03:52 GMT+0200 (közép-európai nyári idő),The main experiment item,yes,,0,0,C:\Users\zymotik\Documents\!research\GNET,0,0,0,prototype4.png,no,mono,no,18,no,black,no,no,768,2240,3.5.8,legacy,xpyriment,m55dj9,osweb,1.4.0,1770,1,0,left,enter,k,left,l,1230,810,15228,1230,28687,2,0,legacy,900,1600,24,900,24,0,0,1600,1698224662963,1024,2,48000,-16,experiment,prototype1.png,1,odd,Win32,179,179,147,5794,179,111028,108013,6615,5794,6617,179,224489,226272,227789,223248,112547,224491,223248,179,6616,GNET_4stim_recallt_idinput_artn_-_STUDY,0,37579,27,yes,1366
0,0,1412,1412,white,no,Mozilla,Netscape,"5.0 (Windows NT 10.0; Win64; x64) AppleWebKit/537.36 (KHTML, like Gecko) Chrome/118.0.0.0 Safari/537.36",xpyriment,legacy,legacy,0,uniform,,,,0,0,0,0,7,0,0,7,0,0,19,19,19,7,0,0,0,7,0,0,19,19,19,19,19,0,19,19,0,0,0,25-09-23,25-09-23,11:03:52,Wed Oct 25 2023 11:03:52 GMT+0200 (közép-európai nyári idő),The main experiment item,yes,,0,0,C:\Users\zymotik\Documents\!research\GNET,0,0,0,prototype4.png,no,mono,no,18,no,black,no,no,768,2240,3.5.8,legacy,xpyriment,m55dj9,osweb,1.4.0,1037,1,0,right,enter,k,right,l,1963,810,15228,1963,28687,2,0,legacy,900,1600,24,900,24,0,0,1600,1698224662963,1024,2,48000,-16,experiment,p2sarrsha1.png,1,odd,Win32,179,179,147,5794,179,111028,108013,6615,5794,6617,179,229772,230823,232339,227805,112547,229775,227805,179,6616,GNET_4stim_recallt_idinput_artn_-_STUDY,0,39542,28,yes,1366
0,0,1432,1432,white,no,Mozilla,Netscape,"5.0 (Windows NT 10.0; Win64; x64) AppleWebKit/537.36 (KHTML, like Gecko) Chrome/118.0.0.0 Safari/537.36",xpyriment,legacy,legacy,0,uniform,,,,0,0,0,0,7,0,0,7,0,0,19,19,19,7,0,0,0,7,0,0,20,20,20,20,20,0,20,20,0,0,0,25-09-23,25-09-23,11:03:52,Wed Oct 25 2023 11:03:52 GMT+0200 (közép-európai nyári idő),The main experiment item,yes,,0,0,C:\Users\zymotik\Documents\!research\GNET,0,0,0,prototype4.png,no,mono,no,18,no,black,no,no,768,2240,3.5.8,legacy,xpyriment,m55dj9,osweb,1.4.0,1006,1,0,left,enter,k,left,l,1994,810,15228,1994,28687,2,0,legacy,900,1600,24,900,24,0,0,1600,1698224662963,1024,2,48000,-16,experiment,prototype4.png,1,odd,Win32,179,179,147,5794,179,111028,108013,6615,5794,6617,179,234356,235373,236889,232355,112547,234359,232355,179,6616,GNET_4stim_recallt_idinput_artn_-_STUDY,0,41536,29,yes,1366
0,0,1432,1432,white,no,Mozilla,Netscape,"5.0 (Windows NT 10.0; Win64; x64) AppleWebKit/537.36 (KHTML, like Gecko) Chrome/118.0.0.0 Safari/537.36",xpyriment,legacy,legacy,0,uniform,,,,0,0,0,0,7,0,0,7,0,0,19,19,19,7,0,0,0,7,0,0,21,21,21,21,21,0,21,21,0,0,0,25-09-23,25-09-23,11:03:52,Wed Oct 25 2023 11:03:52 GMT+0200 (közép-európai nyári idő),The main experiment item,yes,,0,0,C:\Users\zymotik\Documents\!research\GNET,0,0,0,prototype4.png,no,mono,no,18,no,black,no,no,768,2240,3.5.8,legacy,xpyriment,m55dj9,osweb,1.4.0,1582,1,0,right,enter,k,right,l,1418,810,15228,1418,28687,2,0,legacy,900,1600,24,900,24,0,0,1600,1698224662963,1024,2,48000,-16,experiment,p4sarrcol1.png,1,odd,Win32,179,179,147,5794,179,111028,108013,6615,5794,6617,179,238356,239956,241457,236923,112547,238359,236923,179,6616,GNET_4stim_recallt_idinput_artn_-_STUDY,0,42954,30,yes,1366
0,0,1435,1435,white,no,Mozilla,Netscape,"5.0 (Windows NT 10.0; Win64; x64) AppleWebKit/537.36 (KHTML, like Gecko) Chrome/118.0.0.0 Safari/537.36",xpyriment,legacy,legacy,0,uniform,,,,0,0,0,0,7,0,0,7,0,0,19,19,19,7,0,0,0,7,0,0,22,22,22,22,22,0,22,22,0,0,0,25-09-23,25-09-23,11:03:52,Wed Oct 25 2023 11:03:52 GMT+0200 (közép-európai nyári idő),The main experiment item,yes,,0,0,C:\Users\zymotik\Documents\!research\GNET,0,0,0,prototype4.png,no,mono,no,18,no,black,no,no,768,2240,3.5.8,legacy,xpyriment,m55dj9,osweb,1.4.0,1481,1,0,left,enter,k,left,l,1519,810,15228,1519,28687,2,0,legacy,900,1600,24,900,24,0,0,1600,1698224662963,1024,2,48000,-16,experiment,prototype2.png,1,odd,Win32,179,179,147,5794,179,111028,108013,6615,5794,6617,179,242990,244490,246007,241470,112547,242993,241470,179,6616,GNET_4stim_recallt_idinput_artn_-_STUDY,0,44473,31,yes,1366
0,0,1421,1421,white,no,Mozilla,Netscape,"5.0 (Windows NT 10.0; Win64; x64) AppleWebKit/537.36 (KHTML, like Gecko) Chrome/118.0.0.0 Safari/537.36",xpyriment,legacy,legacy,0,uniform,,,,0,0,0,0,7,0,0,7,0,0,19,19,19,7,0,0,0,7,0,0,23,23,23,23,23,0,23,23,0,0,0,25-09-23,25-09-23,11:03:52,Wed Oct 25 2023 11:03:52 GMT+0200 (közép-európai nyári idő),The main experiment item,yes,,0,0,C:\Users\zymotik\Documents\!research\GNET,0,0,0,prototype4.png,no,mono,no,18,no,black,no,no,768,2240,3.5.8,legacy,xpyriment,m55dj9,osweb,1.4.0,2009,1,0,right,enter,k,right,l,991,810,15228,991,28687,2,0,legacy,900,1600,24,900,24,0,0,1600,1698224662963,1024,2,48000,-16,experiment,p3sarrcol2.png,1,odd,Win32,179,179,147,5794,179,111028,108013,6615,5794,6617,179,247024,249041,250558,246021,112547,247027,246021,179,6616,GNET_4stim_recallt_idinput_artn_-_STUDY,0,45464,32,yes,1366
0,0,1410,1410,white,no,Mozilla,Netscape,"5.0 (Windows NT 10.0; Win64; x64) AppleWebKit/537.36 (KHTML, like Gecko) Chrome/118.0.0.0 Safari/537.36",xpyriment,legacy,legacy,0,uniform,,,,0,0,0,0,7,0,0,7,0,0,19,19,19,7,0,0,0,7,0,0,24,24,24,24,24,0,24,24,0,0,0,25-09-23,25-09-23,11:03:52,Wed Oct 25 2023 11:03:52 GMT+0200 (közép-európai nyári idő),The main experiment item,yes,,0,0,C:\Users\zymotik\Documents\!research\GNET,0,0,0,prototype4.png,no,mono,no,18,no,black,no,no,768,2240,3.5.8,legacy,xpyriment,m55dj9,osweb,1.4.0,1946,1,0,left,enter,k,left,l,1054,810,15228,1054,28687,2,0,legacy,900,1600,24,900,24,0,0,1600,1698224662963,1024,2,48000,-16,experiment,prototype2.png,1,odd,Win32,179,179,147,5794,179,111028,108013,6615,5794,6617,179,251625,253575,255091,250569,112547,251627,250569,179,6616,GNET_4stim_recallt_idinput_artn_-_STUDY,0,46518,33,yes,1366
0,0,1404,1404,white,no,Mozilla,Netscape,"5.0 (Windows NT 10.0; Win64; x64) AppleWebKit/537.36 (KHTML, like Gecko) Chrome/118.0.0.0 Safari/537.36",xpyriment,legacy,legacy,0,uniform,,,,0,0,0,0,7,0,0,7,0,0,19,19,19,7,0,0,0,7,0,0,25,25,25,25,25,0,25,25,0,0,0,25-09-23,25-09-23,11:03:52,Wed Oct 25 2023 11:03:52 GMT+0200 (közép-európai nyári idő),The main experiment item,yes,,0,0,C:\Users\zymotik\Documents\!research\GNET,0,0,0,prototype4.png,no,mono,no,18,no,black,no,no,768,2240,3.5.8,legacy,xpyriment,m55dj9,osweb,1.4.0,1790,1,0,right,enter,k,right,l,1210,810,15228,1210,28687,2,0,legacy,900,1600,24,900,24,0,0,1600,1698224662963,1024,2,48000,-16,experiment,p7sarr2.png,1,odd,Win32,179,179,147,5794,179,111028,108013,6615,5794,6617,179,256325,258125,259642,255104,112547,256327,255104,179,6616,GNET_4stim_recallt_idinput_artn_-_STUDY,0,47728,34,yes,1366
0,0,1385,1385,white,no,Mozilla,Netscape,"5.0 (Windows NT 10.0; Win64; x64) AppleWebKit/537.36 (KHTML, like Gecko) Chrome/118.0.0.0 Safari/537.36",xpyriment,legacy,legacy,0,uniform,,,,0,0,0,0,7,0,0,7,0,0,19,19,19,7,0,0,0,7,0,0,26,26,26,26,26,0,26,26,0,0,0,25-09-23,25-09-23,11:03:52,Wed Oct 25 2023 11:03:52 GMT+0200 (közép-európai nyári idő),The main experiment item,yes,,0,0,C:\Users\zymotik\Documents\!research\GNET,0,0,0,prototype4.png,no,mono,no,18,no,black,no,no,768,2240,3.5.8,legacy,xpyriment,m55dj9,osweb,1.4.0,2249,1,0,right,enter,k,right,l,751,810,15228,751,28687,2,0,legacy,900,1600,24,900,24,0,0,1600,1698224662963,1024,2,48000,-16,experiment,p6sarr2.png,1,odd,Win32,179,179,147,5794,179,111028,108013,6615,5794,6617,179,260409,262676,264192,259655,112547,260411,259655,179,6616,GNET_4stim_recallt_idinput_artn_-_STUDY,0,48479,35,yes,1366
0,0,1386,1386,white,no,Mozilla,Netscape,"5.0 (Windows NT 10.0; Win64; x64) AppleWebKit/537.36 (KHTML, like Gecko) Chrome/118.0.0.0 Safari/537.36",xpyriment,legacy,legacy,0,uniform,,,,0,0,0,0,7,0,0,7,0,0,19,19,19,7,0,0,0,7,0,0,27,27,27,27,27,0,27,27,0,0,0,25-09-23,25-09-23,11:03:52,Wed Oct 25 2023 11:03:52 GMT+0200 (közép-európai nyári idő),The main experiment item,yes,,0,0,C:\Users\zymotik\Documents\!research\GNET,0,0,0,prototype4.png,no,mono,no,18,no,black,no,no,768,2240,3.5.8,legacy,xpyriment,m55dj9,osweb,1.4.0,1588,1,0,right,enter,k,right,l,1412,810,15228,1412,28687,2,0,legacy,900,1600,24,900,24,0,0,1600,1698224662963,1024,2,48000,-16,experiment,p1sarrshacol1.png,1,odd,Win32,179,179,147,5794,179,111028,108013,6615,5794,6617,179,265626,267226,268743,264206,112547,265628,264206,179,6616,GNET_4stim_recallt_idinput_artn_-_STUDY,0,49891,36,yes,1366
0,0,1382,1382,white,no,Mozilla,Netscape,"5.0 (Windows NT 10.0; Win64; x64) AppleWebKit/537.36 (KHTML, like Gecko) Chrome/118.0.0.0 Safari/537.36",xpyriment,legacy,legacy,0,uniform,,,,0,0,0,0,7,0,0,7,0,0,19,19,19,7,0,0,0,7,0,0,28,28,28,28,28,0,28,28,0,0,0,25-09-23,25-09-23,11:03:52,Wed Oct 25 2023 11:03:52 GMT+0200 (közép-európai nyári idő),The main experiment item,yes,,0,0,C:\Users\zymotik\Documents\!research\GNET,0,0,0,prototype4.png,no,mono,no,18,no,black,no,no,768,2240,3.5.8,legacy,xpyriment,m55dj9,osweb,1.4.0,1763,1,0,right,enter,k,right,l,1237,810,15228,1237,28687,2,0,legacy,900,1600,24,900,24,0,0,1600,1698224662963,1024,2,48000,-16,experiment,p3sarrshacol2.png,1,odd,Win32,179,179,147,5794,179,111028,108013,6615,5794,6617,179,270010,271777,273293,268758,112547,270012,268758,179,6616,GNET_4stim_recallt_idinput_artn_-_STUDY,0,51128,37,yes,1366
0,0,1377,1377,white,no,Mozilla,Netscape,"5.0 (Windows NT 10.0; Win64; x64) AppleWebKit/537.36 (KHTML, like Gecko) Chrome/118.0.0.0 Safari/537.36",xpyriment,legacy,legacy,0,uniform,,,,0,0,0,0,7,0,0,7,0,0,19,19,19,7,0,0,0,7,0,0,29,29,29,29,29,0,29,29,0,0,0,25-09-23,25-09-23,11:03:52,Wed Oct 25 2023 11:03:52 GMT+0200 (közép-európai nyári idő),The main experiment item,yes,,0,0,C:\Users\zymotik\Documents\!research\GNET,0,0,0,prototype4.png,no,mono,no,18,no,black,no,no,768,2240,3.5.8,legacy,xpyriment,m55dj9,osweb,1.4.0,1784,1,0,right,enter,k,right,l,1216,810,15228,1216,28687,2,0,legacy,900,1600,24,900,24,0,0,1600,1698224662963,1024,2,48000,-16,experiment,p2sarrshacol1.png,1,odd,Win32,179,179,147,5794,179,111028,108013,6615,5794,6617,179,274526,276327,277844,273309,112547,274528,273309,179,6616,GNET_4stim_recallt_idinput_artn_-_STUDY,0,52344,38,yes,1366
0,0,1386,1386,white,no,Mozilla,Netscape,"5.0 (Windows NT 10.0; Win64; x64) AppleWebKit/537.36 (KHTML, like Gecko) Chrome/118.0.0.0 Safari/537.36",xpyriment,legacy,legacy,0,uniform,,,,0,0,0,0,7,0,0,7,0,0,19,19,19,7,0,0,0,7,0,0,30,30,30,30,30,0,30,30,0,0,0,25-09-23,25-09-23,11:03:52,Wed Oct 25 2023 11:03:52 GMT+0200 (közép-európai nyári idő),The main experiment item,yes,,0,0,C:\Users\zymotik\Documents\!research\GNET,0,0,0,prototype4.png,no,mono,no,18,no,black,no,no,768,2240,3.5.8,legacy,xpyriment,m55dj9,osweb,1.4.0,1304,1,0,right,enter,k,right,l,1696,810,15228,1696,28687,2,0,legacy,900,1600,24,900,24,0,0,1600,1698224662963,1024,2,48000,-16,experiment,p2sarrcol2.png,1,odd,Win32,179,179,147,5794,179,111028,108013,6615,5794,6617,179,279561,280878,282394,277858,112547,279563,277858,179,6616,GNET_4stim_recallt_idinput_artn_-_STUDY,0,54040,39,yes,1366
0,0,1367,1367,white,no,Mozilla,Netscape,"5.0 (Windows NT 10.0; Win64; x64) AppleWebKit/537.36 (KHTML, like Gecko) Chrome/118.0.0.0 Safari/537.36",xpyriment,legacy,legacy,0,uniform,,,,0,0,0,0,7,0,0,7,0,0,19,19,19,7,0,0,0,7,0,0,31,31,31,31,31,0,31,31,0,0,0,25-09-23,25-09-23,11:03:52,Wed Oct 25 2023 11:03:52 GMT+0200 (közép-európai nyári idő),The main experiment item,yes,,0,0,C:\Users\zymotik\Documents\!research\GNET,0,0,0,prototype4.png,no,mono,no,18,no,black,no,no,768,2240,3.5.8,legacy,xpyriment,m55dj9,osweb,1.4.0,2348,1,0,right,enter,k,right,l,652,810,15228,652,28687,2,0,legacy,900,1600,24,900,24,0,0,1600,1698224662963,1024,2,48000,-16,experiment,p2sarr1.png,1,odd,Win32,179,179,147,5794,179,111028,108013,6615,5794,6617,179,283061,285428,286945,282407,112547,283063,282407,179,6616,GNET_4stim_recallt_idinput_artn_-_STUDY,0,54692,40,yes,1366
0,0,1356,1356,white,no,Mozilla,Netscape,"5.0 (Windows NT 10.0; Win64; x64) AppleWebKit/537.36 (KHTML, like Gecko) Chrome/118.0.0.0 Safari/537.36",xpyriment,legacy,legacy,0,uniform,,,,0,0,0,0,7,0,0,7,0,0,19,19,19,7,0,0,0,7,0,0,32,32,32,32,32,0,32,32,0,0,0,25-09-23,25-09-23,11:03:52,Wed Oct 25 2023 11:03:52 GMT+0200 (közép-európai nyári idő),The main experiment item,yes,,0,0,C:\Users\zymotik\Documents\!research\GNET,0,0,0,prototype4.png,no,mono,no,18,no,black,no,no,768,2240,3.5.8,legacy,xpyriment,m55dj9,osweb,1.4.0,2114,1,0,right,enter,k,right,l,886,810,15228,886,28687,2,0,legacy,900,1600,24,900,24,0,0,1600,1698224662963,1024,2,48000,-16,experiment,p6sarr1.png,1,odd,Win32,179,179,147,5794,179,111028,108013,6615,5794,6617,179,287878,289995,291512,286976,112547,287880,286976,179,6616,GNET_4stim_recallt_idinput_artn_-_STUDY,0,55578,41,yes,1366
0,0,1360,1360,white,no,Mozilla,Netscape,"5.0 (Windows NT 10.0; Win64; x64) AppleWebKit/537.36 (KHTML, like Gecko) Chrome/118.0.0.0 Safari/537.36",xpyriment,legacy,legacy,0,uniform,,,,0,0,0,0,7,0,0,7,0,0,19,19,19,7,0,0,0,7,0,0,33,33,33,33,33,0,33,33,0,0,0,25-09-23,25-09-23,11:03:52,Wed Oct 25 2023 11:03:52 GMT+0200 (közép-európai nyári idő),The main experiment item,yes,,0,0,C:\Users\zymotik\Documents\!research\GNET,0,0,0,prototype4.png,no,mono,no,18,no,black,no,no,768,2240,3.5.8,legacy,xpyriment,m55dj9,osweb,1.4.0,1477,1,0,left,enter,k,left,l,1523,810,15228,1523,28687,2,0,legacy,900,1600,24,900,24,0,0,1600,1698224662963,1024,2,48000,-16,experiment,prototype4.png,1,odd,Win32,179,179,147,5794,179,111028,108013,6615,5794,6617,179,293046,294529,296046,291522,112547,293048,291522,179,6616,GNET_4stim_recallt_idinput_artn_-_STUDY,0,57101,42,yes,1366
0,0,1364,1364,white,no,Mozilla,Netscape,"5.0 (Windows NT 10.0; Win64; x64) AppleWebKit/537.36 (KHTML, like Gecko) Chrome/118.0.0.0 Safari/537.36",xpyriment,legacy,legacy,0,uniform,,,,0,0,0,0,7,0,0,7,0,0,19,19,19,7,0,0,0,7,0,0,34,34,34,34,34,0,34,34,0,0,0,25-09-23,25-09-23,11:03:52,Wed Oct 25 2023 11:03:52 GMT+0200 (közép-európai nyári idő),The main experiment item,yes,,0,0,C:\Users\zymotik\Documents\!research\GNET,0,0,0,prototype4.png,no,mono,no,18,no,black,no,no,768,2240,3.5.8,legacy,xpyriment,m55dj9,osweb,1.4.0,1456,1,0,right,enter,k,right,l,1544,810,15228,1544,28687,2,0,legacy,900,1600,24,900,24,0,0,1600,1698224662963,1024,2,48000,-16,experiment,p3sarrcol1.png,1,odd,Win32,179,179,147,5794,179,111028,108013,6615,5794,6617,179,297613,299080,300596,296061,112547,297615,296061,179,6616,GNET_4stim_recallt_idinput_artn_-_STUDY,0,58645,43,yes,1366
0,0,1394,1394,white,no,Mozilla,Netscape,"5.0 (Windows NT 10.0; Win64; x64) AppleWebKit/537.36 (KHTML, like Gecko) Chrome/118.0.0.0 Safari/537.36",xpyriment,legacy,legacy,0,uniform,,,,0,0,0,0,7,0,0,7,0,0,19,19,19,7,0,0,0,7,0,0,35,35,35,35,35,0,35,35,0,0,0,25-09-23,25-09-23,11:03:52,Wed Oct 25 2023 11:03:52 GMT+0200 (közép-európai nyári idő),The main experiment item,yes,,0,0,C:\Users\zymotik\Documents\!research\GNET,0,0,0,prototype4.png,no,mono,no,18,no,black,no,no,768,2240,3.5.8,legacy,xpyriment,m55dj9,osweb,1.4.0,309,1,0,right,enter,k,right,l,2691,810,15228,2691,28687,2,0,legacy,900,1600,24,900,24,0,0,1600,1698224662963,1024,2,48000,-16,experiment,p1sarrsha1.png,1,odd,Win32,179,179,147,5794,179,111028,108013,6615,5794,6617,179,303313,303630,305146,300613,112547,303315,300613,179,6616,GNET_4stim_recallt_idinput_artn_-_STUDY,0,61336,44,yes,1366
0,0,1430,1430,white,no,Mozilla,Netscape,"5.0 (Windows NT 10.0; Win64; x64) AppleWebKit/537.36 (KHTML, like Gecko) Chrome/118.0.0.0 Safari/537.36",xpyriment,legacy,legacy,0,uniform,,,,0,0,0,0,7,0,0,7,0,0,19,19,19,7,0,0,0,7,0,0,36,36,36,36,36,0,36,36,0,0,0,25-09-23,25-09-23,11:03:52,Wed Oct 25 2023 11:03:52 GMT+0200 (közép-európai nyári idő),The main experiment item,yes,,0,0,C:\Users\zymotik\Documents\!research\GNET,0,0,0,prototype4.png,no,mono,no,18,no,black,no,no,768,2240,3.5.8,legacy,xpyriment,m55dj9,osweb,1.4.0,0,1,0,None,enter,k,None,l,3002,810,15228,3002,28687,2,0,legacy,900,1600,24,900,24,0,0,1600,1698224662963,1024,2,48000,-16,experiment,prototype1.png,1,odd,Win32,179,179,147,5794,179,111028,108013,6615,5794,6617,179,308165,308168,309680,305161,112547,308167,305161,179,6616,GNET_4stim_recallt_idinput_artn_-_STUDY,0,64338,45,yes,1366
0,0,1426,1426,white,no,Mozilla,Netscape,"5.0 (Windows NT 10.0; Win64; x64) AppleWebKit/537.36 (KHTML, like Gecko) Chrome/118.0.0.0 Safari/537.36",xpyriment,legacy,legacy,0,uniform,,,,0,0,0,0,7,0,0,7,0,0,19,19,19,7,0,0,0,7,0,0,37,37,37,37,37,0,37,37,0,0,0,25-09-23,25-09-23,11:03:52,Wed Oct 25 2023 11:03:52 GMT+0200 (közép-európai nyári idő),The main experiment item,yes,,0,0,C:\Users\zymotik\Documents\!research\GNET,0,0,0,prototype4.png,no,mono,no,18,no,black,no,no,768,2240,3.5.8,legacy,xpyriment,m55dj9,osweb,1.4.0,1724,1,0,right,enter,k,right,l,1276,810,15228,1276,28687,2,0,legacy,900,1600,24,900,24,0,0,1600,1698224662963,1024,2,48000,-16,experiment,p1sarrshacol2.png,1,odd,Win32,179,179,147,5794,179,111028,108013,6615,5794,6617,179,310980,312714,314231,309695,112547,310983,309695,179,6616,GNET_4stim_recallt_idinput_artn_-_STUDY,0,65614,46,yes,1366
0,0,1420,1420,white,no,Mozilla,Netscape,"5.0 (Windows NT 10.0; Win64; x64) AppleWebKit/537.36 (KHTML, like Gecko) Chrome/118.0.0.0 Safari/537.36",xpyriment,legacy,legacy,0,uniform,,,,0,0,0,0,7,0,0,7,0,0,19,19,19,7,0,0,0,7,0,0,38,38,38,38,38,0,38,38,0,0,0,25-09-23,25-09-23,11:03:52,Wed Oct 25 2023 11:03:52 GMT+0200 (közép-európai nyári idő),The main experiment item,yes,,0,0,C:\Users\zymotik\Documents\!research\GNET,0,0,0,prototype4.png,no,mono,no,18,no,black,no,no,768,2240,3.5.8,legacy,xpyriment,m55dj9,osweb,1.4.0,1885,1,0,right,enter,k,right,l,1115,810,15228,1115,28687,2,0,legacy,900,1600,24,900,24,0,0,1600,1698224662963,1024,2,48000,-16,experiment,p4sarrcol2.png,1,odd,Win32,179,179,147,5794,179,111028,108013,6615,5794,6617,179,315365,317265,318781,314247,112547,315367,314247,179,6616,GNET_4stim_recallt_idinput_artn_-_STUDY,0,66729,47,yes,1366
0,0,1415,1415,white,no,Mozilla,Netscape,"5.0 (Windows NT 10.0; Win64; x64) AppleWebKit/537.36 (KHTML, like Gecko) Chrome/118.0.0.0 Safari/537.36",xpyriment,legacy,legacy,0,uniform,,,,0,0,0,0,7,0,0,7,0,0,19,19,19,7,0,0,0,7,0,0,39,39,39,39,39,0,39,39,0,0,0,25-09-23,25-09-23,11:03:52,Wed Oct 25 2023 11:03:52 GMT+0200 (közép-európai nyári idő),The main experiment item,yes,,0,0,C:\Users\zymotik\Documents\!research\GNET,0,0,0,prototype4.png,no,mono,no,18,no,black,no,no,768,2240,3.5.8,legacy,xpyriment,m55dj9,osweb,1.4.0,1833,1,0,right,enter,k,right,l,1167,810,15228,1167,28687,2,0,legacy,900,1600,24,900,24,0,0,1600,1698224662963,1024,2,48000,-16,experiment,prototype3.png,1,odd,Win32,179,179,147,5794,179,111028,108013,6615,5794,6617,179,319965,321815,323332,318796,112547,319967,318796,179,6616,GNET_4stim_recallt_idinput_artn_-_STUDY,0,67896,48,yes,1366
0,0,1413,1413,white,no,Mozilla,Netscape,"5.0 (Windows NT 10.0; Win64; x64) AppleWebKit/537.36 (KHTML, like Gecko) Chrome/118.0.0.0 Safari/537.36",xpyriment,legacy,legacy,0,uniform,,,,0,0,0,0,7,0,0,7,0,0,19,19,19,7,0,0,0,7,0,0,40,40,40,40,40,0,40,40,0,0,0,25-09-23,25-09-23,11:03:52,Wed Oct 25 2023 11:03:52 GMT+0200 (közép-európai nyári idő),The main experiment item,yes,,0,0,C:\Users\zymotik\Documents\!research\GNET,0,0,0,prototype4.png,no,mono,no,18,no,black,no,no,768,2240,3.5.8,legacy,xpyriment,m55dj9,osweb,1.4.0,1646,1,0,left,enter,k,left,l,1354,810,15228,1354,28687,2,0,legacy,900,1600,24,900,24,0,0,1600,1698224662963,1024,2,48000,-16,experiment,prototype4.png,1,odd,Win32,179,179,147,5794,179,111028,108013,6615,5794,6617,179,324732,326382,327899,323362,112547,324734,323361,179,6616,GNET_4stim_recallt_idinput_artn_-_STUDY,0,69250,49,yes,1366
0,0,1416,1416,white,no,Mozilla,Netscape,"5.0 (Windows NT 10.0; Win64; x64) AppleWebKit/537.36 (KHTML, like Gecko) Chrome/118.0.0.0 Safari/537.36",xpyriment,legacy,legacy,0,uniform,,,,0,0,0,0,7,0,0,7,0,0,19,19,19,7,0,0,0,7,0,0,41,41,41,41,41,0,41,41,0,0,0,25-09-23,25-09-23,11:03:52,Wed Oct 25 2023 11:03:52 GMT+0200 (közép-európai nyári idő),The main experiment item,yes,,0,0,C:\Users\zymotik\Documents\!research\GNET,0,0,0,prototype4.png,no,mono,no,18,no,black,no,no,768,2240,3.5.8,legacy,xpyriment,m55dj9,osweb,1.4.0,1448,1,0,right,enter,k,right,l,1552,810,15228,1552,28687,2,0,legacy,900,1600,24,900,24,0,0,1600,1698224662963,1024,2,48000,-16,experiment,prototype1.png,1,odd,Win32,179,179,147,5794,179,111028,108013,6615,5794,6617,179,329466,330933,332449,327909,112547,329468,327909,179,6616,GNET_4stim_recallt_idinput_artn_-_STUDY,0,70802,50,yes,1366
0,0,1414,1414,white,no,Mozilla,Netscape,"5.0 (Windows NT 10.0; Win64; x64) AppleWebKit/537.36 (KHTML, like Gecko) Chrome/118.0.0.0 Safari/537.36",xpyriment,legacy,legacy,0,uniform,,,,0,0,0,0,7,0,0,7,0,0,19,19,19,7,0,0,0,7,0,0,42,42,42,42,42,0,42,42,0,0,0,25-09-23,25-09-23,11:03:52,Wed Oct 25 2023 11:03:52 GMT+0200 (közép-európai nyári idő),The main experiment item,yes,,0,0,C:\Users\zymotik\Documents\!research\GNET,0,0,0,prototype4.png,no,mono,no,18,no,black,no,no,768,2240,3.5.8,legacy,xpyriment,m55dj9,osweb,1.4.0,1708,1,0,right,enter,k,right,l,1292,810,15228,1292,28687,2,0,legacy,900,1600,24,900,24,0,0,1600,1698224662963,1024,2,48000,-16,experiment,p9sarr1.png,1,odd,Win32,179,179,147,5794,179,111028,108013,6615,5794,6617,179,333767,335483,337000,332464,112547,333769,332464,179,6616,GNET_4stim_recallt_idinput_artn_-_STUDY,0,72094,51,yes,1366
0,0,1405,1405,white,no,Mozilla,Netscape,"5.0 (Windows NT 10.0; Win64; x64) AppleWebKit/537.36 (KHTML, like Gecko) Chrome/118.0.0.0 Safari/537.36",xpyriment,legacy,legacy,0,uniform,,,,0,0,0,0,7,0,0,7,0,0,19,19,19,7,0,0,0,7,0,0,43,43,43,43,43,0,43,43,0,0,0,25-09-23,25-09-23,11:03:52,Wed Oct 25 2023 11:03:52 GMT+0200 (közép-európai nyári idő),The main experiment item,yes,,0,0,C:\Users\zymotik\Documents\!research\GNET,0,0,0,prototype4.png,no,mono,no,18,no,black,no,no,768,2240,3.5.8,legacy,xpyriment,m55dj9,osweb,1.4.0,2032,1,0,right,enter,k,right,l,968,810,15228,968,28687,2,0,legacy,900,1600,24,900,24,0,0,1600,1698224662963,1024,2,48000,-16,experiment,p4sarrshacol2.png,1,odd,Win32,179,179,147,5794,179,111028,108013,6615,5794,6617,179,337984,340034,341550,337015,112547,337985,337015,179,6616,GNET_4stim_recallt_idinput_artn_-_STUDY,0,73062,52,yes,1366
0,0,1403,1403,white,no,Mozilla,Netscape,"5.0 (Windows NT 10.0; Win64; x64) AppleWebKit/537.36 (KHTML, like Gecko) Chrome/118.0.0.0 Safari/537.36",xpyriment,legacy,legacy,0,uniform,,,,0,0,0,0,7,0,0,7,0,0,19,19,19,7,0,0,0,7,0,0,44,44,44,44,44,0,44,44,0,0,0,25-09-23,25-09-23,11:03:52,Wed Oct 25 2023 11:03:52 GMT+0200 (közép-európai nyári idő),The main experiment item,yes,,0,0,C:\Users\zymotik\Documents\!research\GNET,0,0,0,prototype4.png,no,mono,no,18,no,black,no,no,768,2240,3.5.8,legacy,xpyriment,m55dj9,osweb,1.4.0,1679,1,0,left,enter,k,left,l,1321,810,15228,1321,28687,2,0,legacy,900,1600,24,900,24,0,0,1600,1698224662963,1024,2,48000,-16,experiment,prototype3.png,1,odd,Win32,179,179,147,5794,179,111028,108013,6615,5794,6617,179,342884,344568,346084,341560,112547,342886,341560,179,6616,GNET_4stim_recallt_idinput_artn_-_STUDY,0,74383,53,yes,1366
0,0,1398,1398,white,no,Mozilla,Netscape,"5.0 (Windows NT 10.0; Win64; x64) AppleWebKit/537.36 (KHTML, like Gecko) Chrome/118.0.0.0 Safari/537.36",xpyriment,legacy,legacy,0,uniform,,,,0,0,0,0,7,0,0,7,0,0,19,19,19,7,0,0,0,7,0,0,45,45,45,45,45,0,45,45,0,0,0,25-09-23,25-09-23,11:03:52,Wed Oct 25 2023 11:03:52 GMT+0200 (közép-európai nyári idő),The main experiment item,yes,,0,0,C:\Users\zymotik\Documents\!research\GNET,0,0,0,prototype4.png,no,mono,no,18,no,black,no,no,768,2240,3.5.8,legacy,xpyriment,m55dj9,osweb,1.4.0,1870,1,0,right,enter,k,right,l,1130,810,15228,1130,28687,2,0,legacy,900,1600,24,900,24,0,0,1600,1698224662963,1024,2,48000,-16,experiment,p2sarr2.png,1,odd,Win32,179,179,147,5794,179,111028,108013,6615,5794,6617,179,347251,349135,350651,346119,112547,347253,346119,179,6616,GNET_4stim_recallt_idinput_artn_-_STUDY,0,75513,54,yes,1366
0,0,1398,1398,white,no,Mozilla,Netscape,"5.0 (Windows NT 10.0; Win64; x64) AppleWebKit/537.36 (KHTML, like Gecko) Chrome/118.0.0.0 Safari/537.36",xpyriment,legacy,legacy,0,uniform,,,,0,0,0,0,7,0,0,7,0,0,19,19,19,7,0,0,0,7,0,0,46,46,46,46,46,0,46,46,0,0,0,25-09-23,25-09-23,11:03:52,Wed Oct 25 2023 11:03:52 GMT+0200 (közép-európai nyári idő),The main experiment item,yes,,0,0,C:\Users\zymotik\Documents\!research\GNET,0,0,0,prototype4.png,no,mono,no,18,no,black,no,no,768,2240,3.5.8,legacy,xpyriment,m55dj9,osweb,1.4.0,1630,1,0,right,enter,k,right,l,1370,810,15228,1370,28687,2,0,legacy,900,1600,24,900,24,0,0,1600,1698224662963,1024,2,48000,-16,experiment,p8sarr2.png,1,odd,Win32,179,179,147,5794,179,111028,108013,6615,5794,6617,179,352051,353685,355202,350666,112547,352053,350666,179,6616,GNET_4stim_recallt_idinput_artn_-_STUDY,0,76883,55,yes,1366
0,0,1427,1427,white,no,Mozilla,Netscape,"5.0 (Windows NT 10.0; Win64; x64) AppleWebKit/537.36 (KHTML, like Gecko) Chrome/118.0.0.0 Safari/537.36",xpyriment,legacy,legacy,0,uniform,,,,0,0,0,0,7,0,0,7,0,0,19,19,19,7,0,0,0,7,0,0,47,47,47,47,47,0,47,47,0,0,0,25-09-23,25-09-23,11:03:52,Wed Oct 25 2023 11:03:52 GMT+0200 (közép-európai nyári idő),The main experiment item,yes,,0,0,C:\Users\zymotik\Documents\!research\GNET,0,0,0,prototype4.png,no,mono,no,18,no,black,no,no,768,2240,3.5.8,legacy,xpyriment,m55dj9,osweb,1.4.0,0,1,0,None,enter,k,None,l,3007,810,15228,3007,28687,2,0,legacy,900,1600,24,900,24,0,0,1600,1698224662963,1024,2,48000,-16,experiment,prototype4.png,1,odd,Win32,179,179,147,5794,179,111028,108013,6615,5794,6617,179,358219,358221,359736,355212,112547,358221,355212,179,6616,GNET_4stim_recallt_idinput_artn_-_STUDY,0,79890,56,yes,1366
0,0,1436,1436,white,no,Mozilla,Netscape,"5.0 (Windows NT 10.0; Win64; x64) AppleWebKit/537.36 (KHTML, like Gecko) Chrome/118.0.0.0 Safari/537.36",xpyriment,legacy,legacy,0,uniform,,,,0,0,0,0,7,0,0,7,0,0,19,19,19,7,0,0,0,7,0,0,48,48,48,48,48,0,48,48,0,0,0,25-09-23,25-09-23,11:03:52,Wed Oct 25 2023 11:03:52 GMT+0200 (közép-európai nyári idő),The main experiment item,yes,,0,0,C:\Users\zymotik\Documents\!research\GNET,0,0,0,prototype4.png,no,mono,no,18,no,black,no,no,768,2240,3.5.8,legacy,xpyriment,m55dj9,osweb,1.4.0,1051,1,0,right,enter,k,right,l,1949,810,15228,1949,28687,2,0,legacy,900,1600,24,900,24,0,0,1600,1698224662963,1024,2,48000,-16,experiment,p3sarrshacol1.png,1,odd,Win32,179,179,147,5794,179,111028,108013,6615,5794,6617,179,361719,362786,364303,359769,112547,361721,359769,179,6616,GNET_4stim_recallt_idinput_artn_-_STUDY,0,81839,57,yes,1366
0,0,1443,1443,white,no,Mozilla,Netscape,"5.0 (Windows NT 10.0; Win64; x64) AppleWebKit/537.36 (KHTML, like Gecko) Chrome/118.0.0.0 Safari/537.36",xpyriment,legacy,legacy,0,uniform,,,,0,0,0,0,7,0,0,7,0,0,19,19,19,7,0,0,0,7,0,0,49,49,49,49,49,0,49,49,0,0,0,25-09-23,25-09-23,11:03:52,Wed Oct 25 2023 11:03:52 GMT+0200 (közép-európai nyári idő),The main experiment item,yes,,0,0,C:\Users\zymotik\Documents\!research\GNET,0,0,0,prototype4.png,no,mono,no,18,no,black,no,no,768,2240,3.5.8,legacy,xpyriment,m55dj9,osweb,1.4.0,1168,1,0,right,enter,k,right,l,1832,810,15228,1832,28687,2,0,legacy,900,1600,24,900,24,0,0,1600,1698224662963,1024,2,48000,-16,experiment,p4sarr1.png,1,odd,Win32,179,179,147,5794,179,111028,108013,6615,5794,6617,179,366153,367337,368853,364317,112547,366156,364317,179,6616,GNET_4stim_recallt_idinput_artn_-_STUDY,0,83671,58,yes,1366
0,0,1438,1438,white,no,Mozilla,Netscape,"5.0 (Windows NT 10.0; Win64; x64) AppleWebKit/537.36 (KHTML, like Gecko) Chrome/118.0.0.0 Safari/537.36",xpyriment,legacy,legacy,0,uniform,,,,0,0,0,0,7,0,0,7,0,0,19,19,19,7,0,0,0,7,0,0,50,50,50,50,50,0,50,50,0,0,0,25-09-23,25-09-23,11:03:52,Wed Oct 25 2023 11:03:52 GMT+0200 (közép-európai nyári idő),The main experiment item,yes,,0,0,C:\Users\zymotik\Documents\!research\GNET,0,0,0,prototype4.png,no,mono,no,18,no,black,no,no,768,2240,3.5.8,legacy,xpyriment,m55dj9,osweb,1.4.0,1834,1,0,left,enter,k,left,l,1166,810,15228,1166,28687,2,0,legacy,900,1600,24,900,24,0,0,1600,1698224662963,1024,2,48000,-16,experiment,prototype4.png,1,odd,Win32,179,179,147,5794,179,111028,108013,6615,5794,6617,179,370037,371887,373404,368864,112547,370039,368863,179,6616,GNET_4stim_recallt_idinput_artn_-_STUDY,0,84837,59,yes,1366
0,0,1435,1435,white,no,Mozilla,Netscape,"5.0 (Windows NT 10.0; Win64; x64) AppleWebKit/537.36 (KHTML, like Gecko) Chrome/118.0.0.0 Safari/537.36",xpyriment,legacy,legacy,0,uniform,,,,0,0,0,0,7,0,0,7,0,0,19,19,19,7,0,0,0,7,0,0,51,51,51,51,51,0,51,51,0,0,0,25-09-23,25-09-23,11:03:52,Wed Oct 25 2023 11:03:52 GMT+0200 (közép-európai nyári idő),The main experiment item,yes,,0,0,C:\Users\zymotik\Documents\!research\GNET,0,0,0,prototype4.png,no,mono,no,18,no,black,no,no,768,2240,3.5.8,legacy,xpyriment,m55dj9,osweb,1.4.0,1721,1,0,left,enter,k,left,l,1279,810,15228,1279,28687,2,0,legacy,900,1600,24,900,24,0,0,1600,1698224662963,1024,2,48000,-16,experiment,prototype1.png,1,odd,Win32,179,179,147,5794,179,111028,108013,6615,5794,6617,179,374704,376437,377954,373414,112547,374706,373414,179,6616,GNET_4stim_recallt_idinput_artn_-_STUDY,0,86116,60,yes,1366
0,0,1435,1435,white,no,Mozilla,Netscape,"5.0 (Windows NT 10.0; Win64; x64) AppleWebKit/537.36 (KHTML, like Gecko) Chrome/118.0.0.0 Safari/537.36",xpyriment,legacy,legacy,0,uniform,,,,0,0,0,0,7,0,0,7,0,0,19,19,19,7,0,0,0,7,0,0,52,52,52,52,52,0,52,52,0,0,0,25-09-23,25-09-23,11:03:52,Wed Oct 25 2023 11:03:52 GMT+0200 (közép-európai nyári idő),The main experiment item,yes,,0,0,C:\Users\zymotik\Documents\!research\GNET,0,0,0,prototype4.png,no,mono,no,18,no,black,no,no,768,2240,3.5.8,legacy,xpyriment,m55dj9,osweb,1.4.0,1603,1,0,right,enter,k,right,l,1397,810,15228,1397,28687,2,0,legacy,900,1600,24,900,24,0,0,1600,1698224662963,1024,2,48000,-16,experiment,p4sarrsha1.png,1,odd,Win32,179,179,147,5794,179,111028,108013,6615,5794,6617,179,379371,380988,382504,377968,112547,379373,377968,179,6616,GNET_4stim_recallt_idinput_artn_-_STUDY,0,87513,61,yes,1366
0,0,1450,1450,white,no,Mozilla,Netscape,"5.0 (Windows NT 10.0; Win64; x64) AppleWebKit/537.36 (KHTML, like Gecko) Chrome/118.0.0.0 Safari/537.36",xpyriment,legacy,legacy,0,uniform,,,,0,0,0,0,7,0,0,7,0,0,19,19,19,7,0,0,0,7,0,0,53,53,53,53,53,0,53,53,0,0,0,25-09-23,25-09-23,11:03:52,Wed Oct 25 2023 11:03:52 GMT+0200 (közép-európai nyári idő),The main experiment item,yes,,0,0,C:\Users\zymotik\Documents\!research\GNET,0,0,0,prototype4.png,no,mono,no,18,no,black,no,no,768,2240,3.5.8,legacy,xpyriment,m55dj9,osweb,1.4.0,589,1,0,right,enter,k,right,l,2411,810,15228,2411,28687,2,0,legacy,900,1600,24,900,24,0,0,1600,1698224662963,1024,2,48000,-16,experiment,p2sarrsha2.png,1,odd,Win32,179,179,147,5794,179,111028,108013,6615,5794,6617,179,384938,385539,387055,382522,112547,384940,382522,179,6616,GNET_4stim_recallt_idinput_artn_-_STUDY,0,89924,62,yes,1366
0,0,1457,1457,white,no,Mozilla,Netscape,"5.0 (Windows NT 10.0; Win64; x64) AppleWebKit/537.36 (KHTML, like Gecko) Chrome/118.0.0.0 Safari/537.36",xpyriment,legacy,legacy,0,uniform,,,,0,0,0,0,7,0,0,7,0,0,19,19,19,7,0,0,0,7,0,0,54,54,54,54,54,0,54,54,0,0,0,25-09-23,25-09-23,11:03:52,Wed Oct 25 2023 11:03:52 GMT+0200 (közép-európai nyári idő),The main experiment item,yes,,0,0,C:\Users\zymotik\Documents\!research\GNET,0,0,0,prototype4.png,no,mono,no,18,no,black,no,no,768,2240,3.5.8,legacy,xpyriment,m55dj9,osweb,1.4.0,1122,1,0,left,enter,k,left,l,1878,810,15228,1878,28687,2,0,legacy,900,1600,24,900,24,0,0,1600,1698224662963,1024,2,48000,-16,experiment,prototype2.png,1,odd,Win32,179,179,147,5794,179,111028,108013,6615,5794,6617,179,388956,390089,391605,387069,112547,388958,387069,179,6616,GNET_4stim_recallt_idinput_artn_-_STUDY,0,91802,63,yes,1366
0,0,1455,1455,white,no,Mozilla,Netscape,"5.0 (Windows NT 10.0; Win64; x64) AppleWebKit/537.36 (KHTML, like Gecko) Chrome/118.0.0.0 Safari/537.36",xpyriment,legacy,legacy,0,uniform,,,,0,0,0,0,7,0,0,7,0,0,19,19,19,7,0,0,0,7,0,0,55,55,55,55,55,0,55,55,0,0,0,25-09-23,25-09-23,11:03:52,Wed Oct 25 2023 11:03:52 GMT+0200 (közép-európai nyári idő),The main experiment item,yes,,0,0,C:\Users\zymotik\Documents\!research\GNET,0,0,0,prototype4.png,no,mono,no,18,no,black,no,no,768,2240,3.5.8,legacy,xpyriment,m55dj9,osweb,1.4.0,1655,1,0,left,enter,k,left,l,1345,810,15228,1345,28687,2,0,legacy,900,1600,24,900,24,0,0,1600,1698224662963,1024,2,48000,-16,experiment,prototype2.png,1,odd,Win32,179,179,147,5794,179,111028,108013,6615,5794,6617,179,392972,394640,396156,391615,112547,392974,391615,179,6616,GNET_4stim_recallt_idinput_artn_-_STUDY,0,93147,64,yes,1366
0,0,1457,1457,white,no,Mozilla,Netscape,"5.0 (Windows NT 10.0; Win64; x64) AppleWebKit/537.36 (KHTML, like Gecko) Chrome/118.0.0.0 Safari/537.36",xpyriment,legacy,legacy,0,uniform,,,,0,0,0,0,7,0,0,7,0,0,19,19,19,7,0,0,0,7,0,0,56,56,56,56,56,0,56,56,0,0,0,25-09-23,25-09-23,11:03:52,Wed Oct 25 2023 11:03:52 GMT+0200 (közép-európai nyári idő),The main experiment item,yes,,0,0,C:\Users\zymotik\Documents\!research\GNET,0,0,0,prototype4.png,no,mono,no,18,no,black,no,no,768,2240,3.5.8,legacy,xpyriment,m55dj9,osweb,1.4.0,1460,1,0,right,enter,k,right,l,1540,810,15228,1540,28687,2,0,legacy,900,1600,24,900,24,0,0,1600,1698224662963,1024,2,48000,-16,experiment,p1sarrcol1.png,1,odd,Win32,179,179,147,5794,179,111028,108013,6615,5794,6617,179,397706,399173,400690,396165,112547,397708,396165,179,6616,GNET_4stim_recallt_idinput_artn_-_STUDY,0,94687,65,yes,1366
0,0,1446,1446,white,no,Mozilla,Netscape,"5.0 (Windows NT 10.0; Win64; x64) AppleWebKit/537.36 (KHTML, like Gecko) Chrome/118.0.0.0 Safari/537.36",xpyriment,legacy,legacy,0,uniform,,,,0,0,0,0,7,0,0,7,0,0,19,19,19,7,0,0,0,7,0,0,57,57,57,57,57,0,57,57,0,0,0,25-09-23,25-09-23,11:03:52,Wed Oct 25 2023 11:03:52 GMT+0200 (közép-európai nyári idő),The main experiment item,yes,,0,0,C:\Users\zymotik\Documents\!research\GNET,0,0,0,prototype4.png,no,mono,no,18,no,black,no,no,768,2240,3.5.8,legacy,xpyriment,m55dj9,osweb,1.4.0,2241,1,0,right,enter,k,right,l,759,810,15228,759,28687,2,0,legacy,900,1600,24,900,24,0,0,1600,1698224662963,1024,2,48000,-16,experiment,p3sarr1.png,1,odd,Win32,179,179,147,5794,179,111028,108013,6615,5794,6617,179,401473,403724,405240,400704,112547,401476,400704,179,6616,GNET_4stim_recallt_idinput_artn_-_STUDY,0,95446,66,yes,1366
0,0,1449,1449,white,no,Mozilla,Netscape,"5.0 (Windows NT 10.0; Win64; x64) AppleWebKit/537.36 (KHTML, like Gecko) Chrome/118.0.0.0 Safari/537.36",xpyriment,legacy,legacy,0,uniform,,,,0,0,0,0,7,0,0,7,0,0,19,19,19,7,0,0,0,7,0,0,58,58,58,58,58,0,58,58,0,0,0,25-09-23,25-09-23,11:03:52,Wed Oct 25 2023 11:03:52 GMT+0200 (közép-európai nyári idő),The main experiment item,yes,,0,0,C:\Users\zymotik\Documents\!research\GNET,0,0,0,prototype4.png,no,mono,no,18,no,black,no,no,768,2240,3.5.8,legacy,xpyriment,m55dj9,osweb,1.4.0,1341,1,0,left,enter,k,left,l,1659,810,15228,1659,28687,2,0,legacy,900,1600,24,900,24,0,0,1600,1698224662963,1024,2,48000,-16,experiment,prototype2.png,1,odd,Win32,179,179,147,5794,179,111028,108013,6615,5794,6617,179,406924,408274,409791,405250,112547,406926,405250,179,6616,GNET_4stim_recallt_idinput_artn_-_STUDY,0,97105,67,yes,1366
0,0,1455,1455,white,no,Mozilla,Netscape,"5.0 (Windows NT 10.0; Win64; x64) AppleWebKit/537.36 (KHTML, like Gecko) Chrome/118.0.0.0 Safari/537.36",xpyriment,legacy,legacy,0,uniform,,,,0,0,0,0,7,0,0,7,0,0,19,19,19,7,0,0,0,7,0,0,59,59,59,59,59,0,59,59,0,0,0,25-09-23,25-09-23,11:03:52,Wed Oct 25 2023 11:03:52 GMT+0200 (közép-európai nyári idő),The main experiment item,yes,,0,0,C:\Users\zymotik\Documents\!research\GNET,0,0,0,prototype4.png,no,mono,no,18,no,black,no,no,768,2240,3.5.8,legacy,xpyriment,m55dj9,osweb,1.4.0,1148,1,0,left,enter,k,left,l,1852,810,15228,1852,28687,2,0,legacy,900,1600,24,900,24,0,0,1600,1698224662963,1024,2,48000,-16,experiment,prototype3.png,1,odd,Win32,179,179,147,5794,179,111028,108013,6615,5794,6617,179,411658,412825,414341,409804,112547,411660,409804,179,6616,GNET_4stim_recallt_idinput_artn_-_STUDY,0,98957,68,yes,1366
,,,,,,Mozilla,Netscape,"5.0 (Windows NT 10.0; Win64; x64) AppleWebKit/537.36 (KHTML, like Gecko) Chrome/118.0.0.0 Safari/537.36",,,,,,,,,,,,,,,,,,,,,,,,,,,,,,,,,,,,,,,,20-09-23,20-09-23,17:08:28,,,,,0,0,,0,0,0,,,,,,,,,,,2220,3.5.8,,,lmlq6ohome,,,,,,,,,,,,,,,,,,,816,1536,24,864,24,0,0,1536,,,,,,,,,,Win32,,,,,,,,,,,,,,,,,,,,,,,,,,
,,,,,,Mozilla,Netscape,"5.0 (Windows NT 10.0; Win64; x64) AppleWebKit/537.36 (KHTML, like Gecko) Chrome/117.0.0.0 Safari/537.36",,,,,,,,,,,,,,,,,,,,,,,,,,,,,,,,,,,,,,,,19-09-23,19-09-23,12:00:57,,,,,0,0,,0,0,0,,,,,,,,,,,2208,3.5.8,,,m9hljr,,,,,,,,,,,,,,,,,,,672,1280,24,720,24,0,0,1280,,,,,,,,,,Win32,,,,,,,,,,,,,,,,,,,,,,,,,,
0,0,1156,1156,white,no,Mozilla,Netscape,"5.0 (Windows NT 10.0; Win64; x64) AppleWebKit/537.36 (KHTML, like Gecko) Chrome/117.0.0.0 Safari/537.36",xpyriment,legacy,legacy,0,uniform,,,,0,0,0,0,18,0,0,18,0,0,19,19,19,18,0,0,0,18,0,0,0,0,0,0,0,0,0,0,0,0,0,19-09-23,19-09-23,12:00:57,Thu Oct 19 2023 12:00:57 GMT+0200 (közép-európai nyári idő),The main experiment item,yes,,0,0,C:\Users\zymotik\Documents\!research\GNET,0,0,0,prototype4.png,no,mono,no,18,no,black,no,no,768,2208,3.5.8,legacy,xpyriment,m9hljr,osweb,1.4.0,0,1,0,None,enter,enter,None,right,3010,2529,12525,3010,23463,2,0,legacy,672,1280,24,720,24,0,0,1280,1697709742024,1024,2,48000,-16,experiment,p1sarrcol1.png,1,odd,Win32,237,238,180,18184,238,122305,119303,20725,18184,20727,238,150352,150355,151870,147341,123825,150354,147341,238,20726,GNET_4stim_recallt_idinput_artn_-_STUDY,0,23120,20,yes,1366
0,0,1190,1190,white,no,Mozilla,Netscape,"5.0 (Windows NT 10.0; Win64; x64) AppleWebKit/537.36 (KHTML, like Gecko) Chrome/117.0.0.0 Safari/537.36",xpyriment,legacy,legacy,0,uniform,,,,0,0,0,0,18,0,0,18,0,0,19,19,19,18,0,0,0,18,0,0,1,1,1,1,1,0,1,1,0,0,0,19-09-23,19-09-23,12:00:57,Thu Oct 19 2023 12:00:57 GMT+0200 (közép-európai nyári idő),The main experiment item,yes,,0,0,C:\Users\zymotik\Documents\!research\GNET,0,0,0,prototype4.png,no,mono,no,18,no,black,no,no,768,2208,3.5.8,legacy,xpyriment,m9hljr,osweb,1.4.0,1121,1,0,left,enter,enter,left,right,1879,2529,12525,1879,23463,2,0,legacy,672,1280,24,720,24,0,0,1280,1697709742024,1024,2,48000,-16,experiment,prototype4.png,1,odd,Win32,237,238,180,18184,238,122305,119303,20725,18184,20727,238,153772,154907,156408,151886,123825,153774,151886,238,20726,GNET_4stim_recallt_idinput_artn_-_STUDY,0,24999,21,yes,1366
0,0,1209,1209,white,no,Mozilla,Netscape,"5.0 (Windows NT 10.0; Win64; x64) AppleWebKit/537.36 (KHTML, like Gecko) Chrome/117.0.0.0 Safari/537.36",xpyriment,legacy,legacy,0,uniform,,,,0,0,0,0,18,0,0,18,0,0,19,19,19,18,0,0,0,18,0,0,2,2,2,2,2,0,2,2,0,0,0,19-09-23,19-09-23,12:00:57,Thu Oct 19 2023 12:00:57 GMT+0200 (közép-európai nyári idő),The main experiment item,yes,,0,0,C:\Users\zymotik\Documents\!research\GNET,0,0,0,prototype4.png,no,mono,no,18,no,black,no,no,768,2208,3.5.8,legacy,xpyriment,m9hljr,osweb,1.4.0,1397,1,0,right,enter,enter,right,right,1603,2529,12525,1603,23463,2,0,legacy,672,1280,24,720,24,0,0,1280,1697709742024,1024,2,48000,-16,experiment,p3sarrsha1.png,1,odd,Win32,237,238,180,18184,238,122305,119303,20725,18184,20727,238,158026,159429,160946,156422,123825,158028,156422,238,20726,GNET_4stim_recallt_idinput_artn_-_STUDY,0,26602,22,yes,1366
0,0,1266,1266,white,no,Mozilla,Netscape,"5.0 (Windows NT 10.0; Win64; x64) AppleWebKit/537.36 (KHTML, like Gecko) Chrome/117.0.0.0 Safari/537.36",xpyriment,legacy,legacy,0,uniform,,,,0,0,0,0,18,0,0,18,0,0,19,19,19,18,0,0,0,18,0,0,3,3,3,3,3,0,3,3,0,0,0,19-09-23,19-09-23,12:00:57,Thu Oct 19 2023 12:00:57 GMT+0200 (közép-európai nyári idő),The main experiment item,yes,,0,0,C:\Users\zymotik\Documents\!research\GNET,0,0,0,prototype4.png,no,mono,no,18,no,black,no,no,768,2208,3.5.8,legacy,xpyriment,m9hljr,osweb,1.4.0,491,1,0,right,enter,enter,right,right,2509,2529,12525,2509,23463,2,0,legacy,672,1280,24,720,24,0,0,1280,1697709742024,1024,2,48000,-16,experiment,p4sarr2.png,1,odd,Win32,237,238,180,18184,238,122305,119303,20725,18184,20727,238,163482,163983,165485,160961,123825,163485,160961,238,20726,GNET_4stim_recallt_idinput_artn_-_STUDY,0,29111,23,yes,1366
0,0,1285,1285,white,no,Mozilla,Netscape,"5.0 (Windows NT 10.0; Win64; x64) AppleWebKit/537.36 (KHTML, like Gecko) Chrome/117.0.0.0 Safari/537.36",xpyriment,legacy,legacy,0,uniform,,,,0,0,0,0,18,0,0,18,0,0,19,19,19,18,0,0,0,18,0,0,4,4,4,4,4,0,4,4,0,0,0,19-09-23,19-09-23,12:00:57,Thu Oct 19 2023 12:00:57 GMT+0200 (közép-európai nyári idő),The main experiment item,yes,,0,0,C:\Users\zymotik\Documents\!research\GNET,0,0,0,prototype4.png,no,mono,no,18,no,black,no,no,768,2208,3.5.8,legacy,xpyriment,m9hljr,osweb,1.4.0,1266,1,0,right,enter,enter,right,right,1734,2529,12525,1734,23463,2,0,legacy,672,1280,24,720,24,0,0,1280,1697709742024,1024,2,48000,-16,experiment,p3sarrshacol2.png,1,odd,Win32,237,238,180,18184,238,122305,119303,20725,18184,20727,238,167236,168522,170023,165501,123825,167239,165501,238,20726,GNET_4stim_recallt_idinput_artn_-_STUDY,0,30845,24,yes,1366
0,0,1327,1327,white,no,Mozilla,Netscape,"5.0 (Windows NT 10.0; Win64; x64) AppleWebKit/537.36 (KHTML, like Gecko) Chrome/117.0.0.0 Safari/537.36",xpyriment,legacy,legacy,0,uniform,,,,0,0,0,0,18,0,0,18,0,0,19,19,19,18,0,0,0,18,0,0,5,5,5,5,5,0,5,5,0,0,0,19-09-23,19-09-23,12:00:57,Thu Oct 19 2023 12:00:57 GMT+0200 (közép-európai nyári idő),The main experiment item,yes,,0,0,C:\Users\zymotik\Documents\!research\GNET,0,0,0,prototype4.png,no,mono,no,18,no,black,no,no,768,2208,3.5.8,legacy,xpyriment,m9hljr,osweb,1.4.0,672,1,0,left,enter,enter,left,right,2328,2529,12525,2328,23463,2,0,legacy,672,1280,24,720,24,0,0,1280,1697709742024,1024,2,48000,-16,experiment,p3sarrcol2.png,1,odd,Win32,237,238,180,18184,238,122305,119303,20725,18184,20727,238,172376,173061,174578,170037,123825,172378,170037,238,20726,GNET_4stim_recallt_idinput_artn_-_STUDY,0,33173,25,yes,1366
0,0,1392,1392,white,no,Mozilla,Netscape,"5.0 (Windows NT 10.0; Win64; x64) AppleWebKit/537.36 (KHTML, like Gecko) Chrome/117.0.0.0 Safari/537.36",xpyriment,legacy,legacy,0,uniform,,,,0,0,0,0,18,0,0,18,0,0,19,19,19,18,0,0,0,18,0,0,6,6,6,6,6,0,6,6,0,0,0,19-09-23,19-09-23,12:00:57,Thu Oct 19 2023 12:00:57 GMT+0200 (közép-európai nyári idő),The main experiment item,yes,,0,0,C:\Users\zymotik\Documents\!research\GNET,0,0,0,prototype4.png,no,mono,no,18,no,black,no,no,768,2208,3.5.8,legacy,xpyriment,m9hljr,osweb,1.4.0,0,1,0,None,enter,enter,None,right,3006,2529,12525,3006,23463,2,0,legacy,672,1280,24,720,24,0,0,1280,1697709742024,1024,2,48000,-16,experiment,prototype3.png,1,odd,Win32,237,238,180,18184,238,122305,119303,20725,18184,20727,238,177600,177603,179117,174592,123825,177603,174592,238,20726,GNET_4stim_recallt_idinput_artn_-_STUDY,0,36179,26,yes,1366
0,0,1418,1418,white,no,Mozilla,Netscape,"5.0 (Windows NT 10.0; Win64; x64) AppleWebKit/537.36 (KHTML, like Gecko) Chrome/117.0.0.0 Safari/537.36",xpyriment,legacy,legacy,0,uniform,,,,0,0,0,0,18,0,0,18,0,0,19,19,19,18,0,0,0,18,0,0,7,7,7,7,7,0,7,7,0,0,0,19-09-23,19-09-23,12:00:57,Thu Oct 19 2023 12:00:57 GMT+0200 (közép-európai nyári idő),The main experiment item,yes,,0,0,C:\Users\zymotik\Documents\!research\GNET,0,0,0,prototype4.png,no,mono,no,18,no,black,no,no,768,2208,3.5.8,legacy,xpyriment,m9hljr,osweb,1.4.0,902,1,0,right,enter,enter,right,right,2098,2529,12525,2098,23463,2,0,legacy,672,1280,24,720,24,0,0,1280,1697709742024,1024,2,48000,-16,experiment,p1sarr1.png,1,odd,Win32,237,238,180,18184,238,122305,119303,20725,18184,20727,238,181235,182154,183655,179133,123825,181238,179132,238,20726,GNET_4stim_recallt_idinput_artn_-_STUDY,0,38277,27,yes,1366
0,0,1474,1474,white,no,Mozilla,Netscape,"5.0 (Windows NT 10.0; Win64; x64) AppleWebKit/537.36 (KHTML, like Gecko) Chrome/117.0.0.0 Safari/537.36",xpyriment,legacy,legacy,0,uniform,,,,0,0,0,0,18,0,0,18,0,0,19,19,19,18,0,0,0,18,0,0,8,8,8,8,8,0,8,8,0,0,0,19-09-23,19-09-23,12:00:57,Thu Oct 19 2023 12:00:57 GMT+0200 (közép-európai nyári idő),The main experiment item,yes,,0,0,C:\Users\zymotik\Documents\!research\GNET,0,0,0,prototype4.png,no,mono,no,18,no,black,no,no,768,2208,3.5.8,legacy,xpyriment,m9hljr,osweb,1.4.0,0,1,0,None,enter,enter,None,right,3006,2529,12525,3006,23463,2,0,legacy,672,1280,24,720,24,0,0,1280,1697709742024,1024,2,48000,-16,experiment,p3sarrshacol1.png,1,odd,Win32,237,238,180,18184,238,122305,119303,20725,18184,20727,238,186675,186678,188193,183669,123825,186678,183669,238,20726,GNET_4stim_recallt_idinput_artn_-_STUDY,0,41283,28,yes,1366
0,0,1496,1496,white,no,Mozilla,Netscape,"5.0 (Windows NT 10.0; Win64; x64) AppleWebKit/537.36 (KHTML, like Gecko) Chrome/117.0.0.0 Safari/537.36",xpyriment,legacy,legacy,0,uniform,,,,0,0,0,0,18,0,0,18,0,0,19,19,19,18,0,0,0,18,0,0,9,9,9,9,9,0,9,9,0,0,0,19-09-23,19-09-23,12:00:57,Thu Oct 19 2023 12:00:57 GMT+0200 (közép-európai nyári idő),The main experiment item,yes,,0,0,C:\Users\zymotik\Documents\!research\GNET,0,0,0,prototype4.png,no,mono,no,18,no,black,no,no,768,2208,3.5.8,legacy,xpyriment,m9hljr,osweb,1.4.0,901,1,0,left,enter,enter,left,right,2099,2529,12525,2099,23463,2,0,legacy,672,1280,24,720,24,0,0,1280,1697709742024,1024,2,48000,-16,experiment,p4sarr1.png,1,odd,Win32,237,238,180,18184,238,122305,119303,20725,18184,20727,238,190313,191230,192732,188207,123825,190316,188207,238,20726,GNET_4stim_recallt_idinput_artn_-_STUDY,0,43382,29,yes,1366
0,0,1531,1531,white,no,Mozilla,Netscape,"5.0 (Windows NT 10.0; Win64; x64) AppleWebKit/537.36 (KHTML, like Gecko) Chrome/117.0.0.0 Safari/537.36",xpyriment,legacy,legacy,0,uniform,,,,0,0,0,0,18,0,0,18,0,0,19,19,19,18,0,0,0,18,0,0,10,10,10,10,10,0,10,10,0,0,0,19-09-23,19-09-23,12:00:57,Thu Oct 19 2023 12:00:57 GMT+0200 (közép-európai nyári idő),The main experiment item,yes,,0,0,C:\Users\zymotik\Documents\!research\GNET,0,0,0,prototype4.png,no,mono,no,18,no,black,no,no,768,2208,3.5.8,legacy,xpyriment,m9hljr,osweb,1.4.0,446,1,0,right,enter,enter,right,right,2554,2529,12525,2554,23463,2,0,legacy,672,1280,24,720,24,0,0,1280,1697709742024,1024,2,48000,-16,experiment,p7sarr2.png,1,odd,Win32,237,238,180,18184,238,122305,119303,20725,18184,20727,238,195301,195753,197270,192746,123825,195304,192746,238,20726,GNET_4stim_recallt_idinput_artn_-_STUDY,0,45936,30,yes,1366
0,0,1545,1545,white,no,Mozilla,Netscape,"5.0 (Windows NT 10.0; Win64; x64) AppleWebKit/537.36 (KHTML, like Gecko) Chrome/117.0.0.0 Safari/537.36",xpyriment,legacy,legacy,0,uniform,,,,0,0,0,0,18,0,0,18,0,0,19,19,19,18,0,0,0,18,0,0,11,11,11,11,11,0,11,11,0,0,0,19-09-23,19-09-23,12:00:57,Thu Oct 19 2023 12:00:57 GMT+0200 (közép-európai nyári idő),The main experiment item,yes,,0,0,C:\Users\zymotik\Documents\!research\GNET,0,0,0,prototype4.png,no,mono,no,18,no,black,no,no,768,2208,3.5.8,legacy,xpyriment,m9hljr,osweb,1.4.0,1038,1,0,left,enter,enter,left,right,1962,2529,12525,1962,23463,2,0,legacy,672,1280,24,720,24,0,0,1280,1697709742024,1024,2,48000,-16,experiment,prototype1.png,1,odd,Win32,237,238,180,18184,238,122305,119303,20725,18184,20727,238,199255,200307,201808,197283,123825,199258,197283,238,20726,GNET_4stim_recallt_idinput_artn_-_STUDY,0,47898,31,yes,1366
0,0,1587,1587,white,no,Mozilla,Netscape,"5.0 (Windows NT 10.0; Win64; x64) AppleWebKit/537.36 (KHTML, like Gecko) Chrome/117.0.0.0 Safari/537.36",xpyriment,legacy,legacy,0,uniform,,,,0,0,0,0,18,0,0,18,0,0,19,19,19,18,0,0,0,18,0,0,12,12,12,12,12,0,12,12,0,0,0,19-09-23,19-09-23,12:00:57,Thu Oct 19 2023 12:00:57 GMT+0200 (közép-európai nyári idő),The main experiment item,yes,,0,0,C:\Users\zymotik\Documents\!research\GNET,0,0,0,prototype4.png,no,mono,no,18,no,black,no,no,768,2208,3.5.8,legacy,xpyriment,m9hljr,osweb,1.4.0,128,1,0,left,enter,enter,left,right,2872,2529,12525,2872,23463,2,0,legacy,672,1280,24,720,24,0,0,1280,1697709742024,1024,2,48000,-16,experiment,prototype4.png,1,odd,Win32,237,238,180,18184,238,122305,119303,20725,18184,20727,238,204694,204829,206347,201819,123825,204697,201819,238,20726,GNET_4stim_recallt_idinput_artn_-_STUDY,0,50770,32,yes,1366
0,0,1572,1572,white,no,Mozilla,Netscape,"5.0 (Windows NT 10.0; Win64; x64) AppleWebKit/537.36 (KHTML, like Gecko) Chrome/117.0.0.0 Safari/537.36",xpyriment,legacy,legacy,0,uniform,,,,0,0,0,0,18,0,0,18,0,0,19,19,19,18,0,0,0,18,0,0,13,13,13,13,13,0,13,13,0,0,0,19-09-23,19-09-23,12:00:57,Thu Oct 19 2023 12:00:57 GMT+0200 (közép-európai nyári idő),The main experiment item,yes,,0,0,C:\Users\zymotik\Documents\!research\GNET,0,0,0,prototype4.png,no,mono,no,18,no,black,no,no,768,2208,3.5.8,legacy,xpyriment,m9hljr,osweb,1.4.0,1895,1,0,right,enter,enter,right,right,1105,2529,12525,1105,23463,2,0,legacy,672,1280,24,720,24,0,0,1280,1697709742024,1024,2,48000,-16,experiment,p3sarr2.png,1,odd,Win32,237,238,180,18184,238,122305,119303,20725,18184,20727,238,207481,209384,210901,206361,123825,207483,206361,238,20726,GNET_4stim_recallt_idinput_artn_-_STUDY,0,51875,33,yes,1366
0,0,1569,1569,white,no,Mozilla,Netscape,"5.0 (Windows NT 10.0; Win64; x64) AppleWebKit/537.36 (KHTML, like Gecko) Chrome/117.0.0.0 Safari/537.36",xpyriment,legacy,legacy,0,uniform,,,,0,0,0,0,18,0,0,18,0,0,19,19,19,18,0,0,0,18,0,0,14,14,14,14,14,0,14,14,0,0,0,19-09-23,19-09-23,12:00:57,Thu Oct 19 2023 12:00:57 GMT+0200 (közép-európai nyári idő),The main experiment item,yes,,0,0,C:\Users\zymotik\Documents\!research\GNET,0,0,0,prototype4.png,no,mono,no,18,no,black,no,no,768,2208,3.5.8,legacy,xpyriment,m9hljr,osweb,1.4.0,1518,1,0,right,enter,enter,right,right,1482,2529,12525,1482,23463,2,0,legacy,672,1280,24,720,24,0,0,1280,1697709742024,1024,2,48000,-16,experiment,p4sarrcol2.png,1,odd,Win32,237,238,180,18184,238,122305,119303,20725,18184,20727,238,212403,213939,215440,210919,123825,212405,210919,238,20726,GNET_4stim_recallt_idinput_artn_-_STUDY,0,53357,34,yes,1366
0,0,1569,1569,white,no,Mozilla,Netscape,"5.0 (Windows NT 10.0; Win64; x64) AppleWebKit/537.36 (KHTML, like Gecko) Chrome/117.0.0.0 Safari/537.36",xpyriment,legacy,legacy,0,uniform,,,,0,0,0,0,18,0,0,18,0,0,19,19,19,18,0,0,0,18,0,0,15,15,15,15,15,0,15,15,0,0,0,19-09-23,19-09-23,12:00:57,Thu Oct 19 2023 12:00:57 GMT+0200 (közép-európai nyári idő),The main experiment item,yes,,0,0,C:\Users\zymotik\Documents\!research\GNET,0,0,0,prototype4.png,no,mono,no,18,no,black,no,no,768,2208,3.5.8,legacy,xpyriment,m9hljr,osweb,1.4.0,1430,1,0,left,enter,enter,left,right,1570,2529,12525,1570,23463,2,0,legacy,672,1280,24,720,24,0,0,1280,1697709742024,1024,2,48000,-16,experiment,prototype1.png,1,odd,Win32,237,238,180,18184,238,122305,119303,20725,18184,20727,238,217025,218460,219961,215450,123825,217027,215450,238,20726,GNET_4stim_recallt_idinput_artn_-_STUDY,0,54927,35,yes,1366
0,0,1561,1561,white,no,Mozilla,Netscape,"5.0 (Windows NT 10.0; Win64; x64) AppleWebKit/537.36 (KHTML, like Gecko) Chrome/117.0.0.0 Safari/537.36",xpyriment,legacy,legacy,0,uniform,,,,0,0,0,0,18,0,0,18,0,0,19,19,19,18,0,0,0,18,0,0,16,16,16,16,16,0,16,16,0,0,0,19-09-23,19-09-23,12:00:57,Thu Oct 19 2023 12:00:57 GMT+0200 (közép-európai nyári idő),The main experiment item,yes,,0,0,C:\Users\zymotik\Documents\!research\GNET,0,0,0,prototype4.png,no,mono,no,18,no,black,no,no,768,2208,3.5.8,legacy,xpyriment,m9hljr,osweb,1.4.0,1727,1,0,right,enter,enter,right,right,1273,2529,12525,1273,23463,2,0,legacy,672,1280,24,720,24,0,0,1280,1697709742024,1024,2,48000,-16,experiment,p1sarrcol2.png,1,odd,Win32,237,238,180,18184,238,122305,119303,20725,18184,20727,238,221263,222999,224500,219978,123825,221265,219978,238,20726,GNET_4stim_recallt_idinput_artn_-_STUDY,0,56200,36,yes,1366
0,0,1600,1600,white,no,Mozilla,Netscape,"5.0 (Windows NT 10.0; Win64; x64) AppleWebKit/537.36 (KHTML, like Gecko) Chrome/117.0.0.0 Safari/537.36",xpyriment,legacy,legacy,0,uniform,,,,0,0,0,0,18,0,0,18,0,0,19,19,19,18,0,0,0,18,0,0,17,17,17,17,17,0,17,17,0,0,0,19-09-23,19-09-23,12:00:57,Thu Oct 19 2023 12:00:57 GMT+0200 (közép-európai nyári idő),The main experiment item,yes,,0,0,C:\Users\zymotik\Documents\!research\GNET,0,0,0,prototype4.png,no,mono,no,18,no,black,no,no,768,2208,3.5.8,legacy,xpyriment,m9hljr,osweb,1.4.0,0,1,0,None,enter,enter,None,right,3005,2529,12525,3005,23463,2,0,legacy,672,1280,24,720,24,0,0,1280,1697709742024,1024,2,48000,-16,experiment,prototype3.png,1,odd,Win32,237,238,180,18184,238,122305,119303,20725,18184,20727,238,227522,227524,229037,224514,123825,227524,224514,238,20726,GNET_4stim_recallt_idinput_artn_-_STUDY,0,59205,37,yes,1366
0,0,1585,1585,white,no,Mozilla,Netscape,"5.0 (Windows NT 10.0; Win64; x64) AppleWebKit/537.36 (KHTML, like Gecko) Chrome/117.0.0.0 Safari/537.36",xpyriment,legacy,legacy,0,uniform,,,,0,0,0,0,18,0,0,18,0,0,19,19,19,18,0,0,0,18,0,0,18,18,18,18,18,0,18,18,0,0,0,19-09-23,19-09-23,12:00:57,Thu Oct 19 2023 12:00:57 GMT+0200 (közép-európai nyári idő),The main experiment item,yes,,0,0,C:\Users\zymotik\Documents\!research\GNET,0,0,0,prototype4.png,no,mono,no,18,no,black,no,no,768,2208,3.5.8,legacy,xpyriment,m9hljr,osweb,1.4.0,1967,1,0,right,enter,enter,right,right,1033,2529,12525,1033,23463,2,0,legacy,672,1280,24,720,24,0,0,1280,1697709742024,1024,2,48000,-16,experiment,p1sarr2.png,1,odd,Win32,237,238,180,18184,238,122305,119303,20725,18184,20727,238,230090,232076,233593,229053,123825,230092,229053,238,20726,GNET_4stim_recallt_idinput_artn_-_STUDY,0,60238,38,yes,1366
0,0,1575,1575,white,no,Mozilla,Netscape,"5.0 (Windows NT 10.0; Win64; x64) AppleWebKit/537.36 (KHTML, like Gecko) Chrome/117.0.0.0 Safari/537.36",xpyriment,legacy,legacy,0,uniform,,,,0,0,0,0,18,0,0,18,0,0,19,19,19,18,0,0,0,18,0,0,19,19,19,19,19,0,19,19,0,0,0,19-09-23,19-09-23,12:00:57,Thu Oct 19 2023 12:00:57 GMT+0200 (közép-európai nyári idő),The main experiment item,yes,,0,0,C:\Users\zymotik\Documents\!research\GNET,0,0,0,prototype4.png,no,mono,no,18,no,black,no,no,768,2208,3.5.8,legacy,xpyriment,m9hljr,osweb,1.4.0,1827,1,0,right,enter,enter,right,right,1173,2529,12525,1173,23463,2,0,legacy,672,1280,24,720,24,0,0,1280,1697709742024,1024,2,48000,-16,experiment,p8sarr2.png,1,odd,Win32,237,238,180,18184,238,122305,119303,20725,18184,20727,238,234794,236630,238132,233608,123825,234797,233607,238,20726,GNET_4stim_recallt_idinput_artn_-_STUDY,0,61411,39,yes,1366
0,0,1573,1573,white,no,Mozilla,Netscape,"5.0 (Windows NT 10.0; Win64; x64) AppleWebKit/537.36 (KHTML, like Gecko) Chrome/117.0.0.0 Safari/537.36",xpyriment,legacy,legacy,0,uniform,,,,0,0,0,0,18,0,0,18,0,0,19,19,19,18,0,0,0,18,0,0,20,20,20,20,20,0,20,20,0,0,0,19-09-23,19-09-23,12:00:57,Thu Oct 19 2023 12:00:57 GMT+0200 (közép-európai nyári idő),The main experiment item,yes,,0,0,C:\Users\zymotik\Documents\!research\GNET,0,0,0,prototype4.png,no,mono,no,18,no,black,no,no,768,2208,3.5.8,legacy,xpyriment,m9hljr,osweb,1.4.0,1489,1,0,right,enter,enter,right,right,1511,2529,12525,1511,23463,2,0,legacy,672,1280,24,720,24,0,0,1280,1697709742024,1024,2,48000,-16,experiment,p2sarr1.png,1,odd,Win32,237,238,180,18184,238,122305,119303,20725,18184,20727,238,239667,241169,242670,238146,123825,239669,238146,238,20726,GNET_4stim_recallt_idinput_artn_-_STUDY,0,62922,40,yes,1366
0,0,1569,1569,white,no,Mozilla,Netscape,"5.0 (Windows NT 10.0; Win64; x64) AppleWebKit/537.36 (KHTML, like Gecko) Chrome/117.0.0.0 Safari/537.36",xpyriment,legacy,legacy,0,uniform,,,,0,0,0,0,18,0,0,18,0,0,19,19,19,18,0,0,0,18,0,0,21,21,21,21,21,0,21,21,0,0,0,19-09-23,19-09-23,12:00:57,Thu Oct 19 2023 12:00:57 GMT+0200 (közép-európai nyári idő),The main experiment item,yes,,0,0,C:\Users\zymotik\Documents\!research\GNET,0,0,0,prototype4.png,no,mono,no,18,no,black,no,no,768,2208,3.5.8,legacy,xpyriment,m9hljr,osweb,1.4.0,1603,1,0,right,enter,enter,right,right,1397,2529,12525,1397,23463,2,0,legacy,672,1280,24,720,24,0,0,1280,1697709742024,1024,2,48000,-16,experiment,p2sarr2.png,1,odd,Win32,237,238,180,18184,238,122305,119303,20725,18184,20727,238,244088,245707,247208,242684,123825,244090,242684,238,20726,GNET_4stim_recallt_idinput_artn_-_STUDY,0,64319,41,yes,1366
0,0,1570,1570,white,no,Mozilla,Netscape,"5.0 (Windows NT 10.0; Win64; x64) AppleWebKit/537.36 (KHTML, like Gecko) Chrome/117.0.0.0 Safari/537.36",xpyriment,legacy,legacy,0,uniform,,,,0,0,0,0,18,0,0,18,0,0,19,19,19,18,0,0,0,18,0,0,22,22,22,22,22,0,22,22,0,0,0,19-09-23,19-09-23,12:00:57,Thu Oct 19 2023 12:00:57 GMT+0200 (közép-európai nyári idő),The main experiment item,yes,,0,0,C:\Users\zymotik\Documents\!research\GNET,0,0,0,prototype4.png,no,mono,no,18,no,black,no,no,768,2208,3.5.8,legacy,xpyriment,m9hljr,osweb,1.4.0,1385,1,0,left,enter,enter,left,right,1615,2529,12525,1615,23463,2,0,legacy,672,1280,24,720,24,0,0,1280,1697709742024,1024,2,48000,-16,experiment,prototype4.png,1,odd,Win32,237,238,180,18184,238,122305,119303,20725,18184,20727,238,248843,250245,251746,247222,123825,248846,247221,238,20726,GNET_4stim_recallt_idinput_artn_-_STUDY,0,65934,42,yes,1366
0,0,1567,1567,white,no,Mozilla,Netscape,"5.0 (Windows NT 10.0; Win64; x64) AppleWebKit/537.36 (KHTML, like Gecko) Chrome/117.0.0.0 Safari/537.36",xpyriment,legacy,legacy,0,uniform,,,,0,0,0,0,18,0,0,18,0,0,19,19,19,18,0,0,0,18,0,0,23,23,23,23,23,0,23,23,0,0,0,19-09-23,19-09-23,12:00:57,Thu Oct 19 2023 12:00:57 GMT+0200 (közép-európai nyári idő),The main experiment item,yes,,0,0,C:\Users\zymotik\Documents\!research\GNET,0,0,0,prototype4.png,no,mono,no,18,no,black,no,no,768,2208,3.5.8,legacy,xpyriment,m9hljr,osweb,1.4.0,1573,1,0,right,enter,enter,right,right,1427,2529,12525,1427,23463,2,0,legacy,672,1280,24,720,24,0,0,1280,1697709742024,1024,2,48000,-16,experiment,p3sarr1.png,1,odd,Win32,237,238,180,18184,238,122305,119303,20725,18184,20727,238,253198,254783,256284,251760,123825,253201,251759,238,20726,GNET_4stim_recallt_idinput_artn_-_STUDY,0,67361,43,yes,1366
0,0,1599,1599,white,no,Mozilla,Netscape,"5.0 (Windows NT 10.0; Win64; x64) AppleWebKit/537.36 (KHTML, like Gecko) Chrome/117.0.0.0 Safari/537.36",xpyriment,legacy,legacy,0,uniform,,,,0,0,0,0,18,0,0,18,0,0,19,19,19,18,0,0,0,18,0,0,24,24,24,24,24,0,24,24,0,0,0,19-09-23,19-09-23,12:00:57,Thu Oct 19 2023 12:00:57 GMT+0200 (közép-európai nyári idő),The main experiment item,yes,,0,0,C:\Users\zymotik\Documents\!research\GNET,0,0,0,prototype4.png,no,mono,no,18,no,black,no,no,768,2208,3.5.8,legacy,xpyriment,m9hljr,osweb,1.4.0,0,1,0,None,enter,enter,None,right,3010,2529,12525,3010,23463,2,0,legacy,672,1280,24,720,24,0,0,1280,1697709742024,1024,2,48000,-16,experiment,prototype3.png,1,odd,Win32,237,238,180,18184,238,122305,119303,20725,18184,20727,238,259307,259310,260823,256295,123825,259310,256295,238,20726,GNET_4stim_recallt_idinput_artn_-_STUDY,0,70371,44,yes,1366
0,0,1588,1588,white,no,Mozilla,Netscape,"5.0 (Windows NT 10.0; Win64; x64) AppleWebKit/537.36 (KHTML, like Gecko) Chrome/117.0.0.0 Safari/537.36",xpyriment,legacy,legacy,0,uniform,,,,0,0,0,0,18,0,0,18,0,0,19,19,19,18,0,0,0,18,0,0,25,25,25,25,25,0,25,25,0,0,0,19-09-23,19-09-23,12:00:57,Thu Oct 19 2023 12:00:57 GMT+0200 (közép-európai nyári idő),The main experiment item,yes,,0,0,C:\Users\zymotik\Documents\!research\GNET,0,0,0,prototype4.png,no,mono,no,18,no,black,no,no,768,2208,3.5.8,legacy,xpyriment,m9hljr,osweb,1.4.0,1906,1,0,right,enter,enter,right,right,1094,2529,12525,1094,23463,2,0,legacy,672,1280,24,720,24,0,0,1280,1697709742024,1024,2,48000,-16,experiment,p3sarrsha2.png,1,odd,Win32,237,238,180,18184,238,122305,119303,20725,18184,20727,238,261941,263860,265362,260838,123825,261943,260838,238,20726,GNET_4stim_recallt_idinput_artn_-_STUDY,0,71465,45,yes,1366
0,0,1594,1594,white,no,Mozilla,Netscape,"5.0 (Windows NT 10.0; Win64; x64) AppleWebKit/537.36 (KHTML, like Gecko) Chrome/117.0.0.0 Safari/537.36",xpyriment,legacy,legacy,0,uniform,,,,0,0,0,0,18,0,0,18,0,0,19,19,19,18,0,0,0,18,0,0,26,26,26,26,26,0,26,26,0,0,0,19-09-23,19-09-23,12:00:57,Thu Oct 19 2023 12:00:57 GMT+0200 (közép-európai nyári idő),The main experiment item,yes,,0,0,C:\Users\zymotik\Documents\!research\GNET,0,0,0,prototype4.png,no,mono,no,18,no,black,no,no,768,2208,3.5.8,legacy,xpyriment,m9hljr,osweb,1.4.0,1121,1,0,left,enter,enter,left,right,1879,2529,12525,1879,23463,2,0,legacy,672,1280,24,720,24,0,0,1280,1697709742024,1024,2,48000,-16,experiment,prototype2.png,1,odd,Win32,237,238,180,18184,238,122305,119303,20725,18184,20727,238,267264,268399,269900,265378,123825,267267,265377,238,20726,GNET_4stim_recallt_idinput_artn_-_STUDY,0,73344,46,yes,1366
0,0,1588,1588,white,no,Mozilla,Netscape,"5.0 (Windows NT 10.0; Win64; x64) AppleWebKit/537.36 (KHTML, like Gecko) Chrome/117.0.0.0 Safari/537.36",xpyriment,legacy,legacy,0,uniform,,,,0,0,0,0,18,0,0,18,0,0,19,19,19,18,0,0,0,18,0,0,27,27,27,27,27,0,27,27,0,0,0,19-09-23,19-09-23,12:00:57,Thu Oct 19 2023 12:00:57 GMT+0200 (közép-európai nyári idő),The main experiment item,yes,,0,0,C:\Users\zymotik\Documents\!research\GNET,0,0,0,prototype4.png,no,mono,no,18,no,black,no,no,768,2208,3.5.8,legacy,xpyriment,m9hljr,osweb,1.4.0,1724,1,0,right,enter,enter,right,right,1276,2529,12525,1276,23463,2,0,legacy,672,1280,24,720,24,0,0,1280,1697709742024,1024,2,48000,-16,experiment,p2sarrshacol2.png,1,odd,Win32,237,238,180,18184,238,122305,119303,20725,18184,20727,238,271201,272936,274438,269913,123825,271203,269913,238,20726,GNET_4stim_recallt_idinput_artn_-_STUDY,0,74620,47,yes,1366
0,0,1578,1578,white,no,Mozilla,Netscape,"5.0 (Windows NT 10.0; Win64; x64) AppleWebKit/537.36 (KHTML, like Gecko) Chrome/117.0.0.0 Safari/537.36",xpyriment,legacy,legacy,0,uniform,,,,0,0,0,0,18,0,0,18,0,0,19,19,19,18,0,0,0,18,0,0,28,28,28,28,28,0,28,28,0,0,0,19-09-23,19-09-23,12:00:57,Thu Oct 19 2023 12:00:57 GMT+0200 (közép-európai nyári idő),The main experiment item,yes,,0,0,C:\Users\zymotik\Documents\!research\GNET,0,0,0,prototype4.png,no,mono,no,18,no,black,no,no,768,2208,3.5.8,legacy,xpyriment,m9hljr,osweb,1.4.0,1869,1,0,right,enter,enter,right,right,1131,2529,12525,1131,23463,2,0,legacy,672,1280,24,720,24,0,0,1280,1697709742024,1024,2,48000,-16,experiment,p3sarrcol1.png,1,odd,Win32,237,238,180,18184,238,122305,119303,20725,18184,20727,238,275590,277475,278977,274452,123825,275592,274452,238,20726,GNET_4stim_recallt_idinput_artn_-_STUDY,0,75751,48,yes,1366
0,0,1572,1572,white,no,Mozilla,Netscape,"5.0 (Windows NT 10.0; Win64; x64) AppleWebKit/537.36 (KHTML, like Gecko) Chrome/117.0.0.0 Safari/537.36",xpyriment,legacy,legacy,0,uniform,,,,0,0,0,0,18,0,0,18,0,0,19,19,19,18,0,0,0,18,0,0,29,29,29,29,29,0,29,29,0,0,0,19-09-23,19-09-23,12:00:57,Thu Oct 19 2023 12:00:57 GMT+0200 (közép-európai nyári idő),The main experiment item,yes,,0,0,C:\Users\zymotik\Documents\!research\GNET,0,0,0,prototype4.png,no,mono,no,18,no,black,no,no,768,2208,3.5.8,legacy,xpyriment,m9hljr,osweb,1.4.0,1742,1,0,right,enter,enter,right,right,1258,2529,12525,1258,23463,2,0,legacy,672,1280,24,720,24,0,0,1280,1697709742024,1024,2,48000,-16,experiment,prototype3.png,1,odd,Win32,237,238,180,18184,238,122305,119303,20725,18184,20727,238,280261,282014,283515,278989,123825,280264,278989,238,20726,GNET_4stim_recallt_idinput_artn_-_STUDY,0,77009,49,yes,1366
0,0,1556,1556,white,no,Mozilla,Netscape,"5.0 (Windows NT 10.0; Win64; x64) AppleWebKit/537.36 (KHTML, like Gecko) Chrome/117.0.0.0 Safari/537.36",xpyriment,legacy,legacy,0,uniform,,,,0,0,0,0,18,0,0,18,0,0,19,19,19,18,0,0,0,18,0,0,30,30,30,30,30,0,30,30,0,0,0,19-09-23,19-09-23,12:00:57,Thu Oct 19 2023 12:00:57 GMT+0200 (közép-európai nyári idő),The main experiment item,yes,,0,0,C:\Users\zymotik\Documents\!research\GNET,0,0,0,prototype4.png,no,mono,no,18,no,black,no,no,768,2208,3.5.8,legacy,xpyriment,m9hljr,osweb,1.4.0,2202,1,0,left,enter,enter,left,right,798,2529,12525,798,23463,2,0,legacy,672,1280,24,720,24,0,0,1280,1697709742024,1024,2,48000,-16,experiment,p1sarrshacol2.png,1,odd,Win32,237,238,180,18184,238,122305,119303,20725,18184,20727,238,284333,286552,288053,283529,123825,284335,283529,238,20726,GNET_4stim_recallt_idinput_artn_-_STUDY,0,77807,50,yes,1366
0,0,1564,1564,white,no,Mozilla,Netscape,"5.0 (Windows NT 10.0; Win64; x64) AppleWebKit/537.36 (KHTML, like Gecko) Chrome/117.0.0.0 Safari/537.36",xpyriment,legacy,legacy,0,uniform,,,,0,0,0,0,18,0,0,18,0,0,19,19,19,18,0,0,0,18,0,0,31,31,31,31,31,0,31,31,0,0,0,19-09-23,19-09-23,12:00:57,Thu Oct 19 2023 12:00:57 GMT+0200 (közép-európai nyári idő),The main experiment item,yes,,0,0,C:\Users\zymotik\Documents\!research\GNET,0,0,0,prototype4.png,no,mono,no,18,no,black,no,no,768,2208,3.5.8,legacy,xpyriment,m9hljr,osweb,1.4.0,1067,1,0,left,enter,enter,left,right,1933,2529,12525,1933,23463,2,0,legacy,672,1280,24,720,24,0,0,1280,1697709742024,1024,2,48000,-16,experiment,prototype2.png,1,odd,Win32,237,238,180,18184,238,122305,119303,20725,18184,20727,238,290005,291090,292592,288064,123825,290008,288064,238,20726,GNET_4stim_recallt_idinput_artn_-_STUDY,0,79740,51,yes,1366
0,0,1579,1579,white,no,Mozilla,Netscape,"5.0 (Windows NT 10.0; Win64; x64) AppleWebKit/537.36 (KHTML, like Gecko) Chrome/117.0.0.0 Safari/537.36",xpyriment,legacy,legacy,0,uniform,,,,0,0,0,0,18,0,0,18,0,0,19,19,19,18,0,0,0,18,0,0,32,32,32,32,32,0,32,32,0,0,0,19-09-23,19-09-23,12:00:57,Thu Oct 19 2023 12:00:57 GMT+0200 (közép-európai nyári idő),The main experiment item,yes,,0,0,C:\Users\zymotik\Documents\!research\GNET,0,0,0,prototype4.png,no,mono,no,18,no,black,no,no,768,2208,3.5.8,legacy,xpyriment,m9hljr,osweb,1.4.0,629,1,0,right,enter,enter,right,right,2371,2529,12525,2371,23463,2,0,legacy,672,1280,24,720,24,0,0,1280,1697709742024,1024,2,48000,-16,experiment,prototype4.png,1,odd,Win32,237,238,180,18184,238,122305,119303,20725,18184,20727,238,294978,295612,297113,292606,123825,294980,292606,238,20726,GNET_4stim_recallt_idinput_artn_-_STUDY,0,82111,52,yes,1366
0,0,1574,1574,white,no,Mozilla,Netscape,"5.0 (Windows NT 10.0; Win64; x64) AppleWebKit/537.36 (KHTML, like Gecko) Chrome/117.0.0.0 Safari/537.36",xpyriment,legacy,legacy,0,uniform,,,,0,0,0,0,18,0,0,18,0,0,19,19,19,18,0,0,0,18,0,0,33,33,33,33,33,0,33,33,0,0,0,19-09-23,19-09-23,12:00:57,Thu Oct 19 2023 12:00:57 GMT+0200 (közép-európai nyári idő),The main experiment item,yes,,0,0,C:\Users\zymotik\Documents\!research\GNET,0,0,0,prototype4.png,no,mono,no,18,no,black,no,no,768,2208,3.5.8,legacy,xpyriment,m9hljr,osweb,1.4.0,1664,1,0,right,enter,enter,right,right,1336,2529,12525,1336,23463,2,0,legacy,672,1280,24,720,24,0,0,1280,1697709742024,1024,2,48000,-16,experiment,prototype4.png,1,odd,Win32,237,238,180,18184,238,122305,119303,20725,18184,20727,238,298465,300134,301635,297122,123825,298467,297122,238,20726,GNET_4stim_recallt_idinput_artn_-_STUDY,0,83447,53,yes,1366
0,0,1566,1566,white,no,Mozilla,Netscape,"5.0 (Windows NT 10.0; Win64; x64) AppleWebKit/537.36 (KHTML, like Gecko) Chrome/117.0.0.0 Safari/537.36",xpyriment,legacy,legacy,0,uniform,,,,0,0,0,0,18,0,0,18,0,0,19,19,19,18,0,0,0,18,0,0,34,34,34,34,34,0,34,34,0,0,0,19-09-23,19-09-23,12:00:57,Thu Oct 19 2023 12:00:57 GMT+0200 (közép-európai nyári idő),The main experiment item,yes,,0,0,C:\Users\zymotik\Documents\!research\GNET,0,0,0,prototype4.png,no,mono,no,18,no,black,no,no,768,2208,3.5.8,legacy,xpyriment,m9hljr,osweb,1.4.0,1904,1,0,right,enter,enter,right,right,1096,2529,12525,1096,23463,2,0,legacy,672,1280,24,720,24,0,0,1280,1697709742024,1024,2,48000,-16,experiment,p8sarr1.png,1,odd,Win32,237,238,180,18184,238,122305,119303,20725,18184,20727,238,302753,304671,306173,301651,123825,302755,301651,238,20726,GNET_4stim_recallt_idinput_artn_-_STUDY,0,84543,54,yes,1366
0,0,1583,1583,white,no,Mozilla,Netscape,"5.0 (Windows NT 10.0; Win64; x64) AppleWebKit/537.36 (KHTML, like Gecko) Chrome/117.0.0.0 Safari/537.36",xpyriment,legacy,legacy,0,uniform,,,,0,0,0,0,18,0,0,18,0,0,19,19,19,18,0,0,0,18,0,0,35,35,35,35,35,0,35,35,0,0,0,19-09-23,19-09-23,12:00:57,Thu Oct 19 2023 12:00:57 GMT+0200 (közép-európai nyári idő),The main experiment item,yes,,0,0,C:\Users\zymotik\Documents\!research\GNET,0,0,0,prototype4.png,no,mono,no,18,no,black,no,no,768,2208,3.5.8,legacy,xpyriment,m9hljr,osweb,1.4.0,498,1,0,right,enter,enter,right,right,2502,2529,12525,2502,23463,2,0,legacy,672,1280,24,720,24,0,0,1280,1697709742024,1024,2,48000,-16,experiment,p2sarrcol1.png,1,odd,Win32,237,238,180,18184,238,122305,119303,20725,18184,20727,238,308693,309210,310712,306187,123825,308695,306187,238,20726,GNET_4stim_recallt_idinput_artn_-_STUDY,0,87045,55,yes,1366
0,0,1581,1581,white,no,Mozilla,Netscape,"5.0 (Windows NT 10.0; Win64; x64) AppleWebKit/537.36 (KHTML, like Gecko) Chrome/117.0.0.0 Safari/537.36",xpyriment,legacy,legacy,0,uniform,,,,0,0,0,0,18,0,0,18,0,0,19,19,19,18,0,0,0,18,0,0,36,36,36,36,36,0,36,36,0,0,0,19-09-23,19-09-23,12:00:57,Thu Oct 19 2023 12:00:57 GMT+0200 (közép-európai nyári idő),The main experiment item,yes,,0,0,C:\Users\zymotik\Documents\!research\GNET,0,0,0,prototype4.png,no,mono,no,18,no,black,no,no,768,2208,3.5.8,legacy,xpyriment,m9hljr,osweb,1.4.0,1529,1,0,right,enter,enter,right,right,1471,2529,12525,1471,23463,2,0,legacy,672,1280,24,720,24,0,0,1280,1697709742024,1024,2,48000,-16,experiment,p1sarrsha1.png,1,odd,Win32,237,238,180,18184,238,122305,119303,20725,18184,20727,238,312213,313748,315250,310726,123825,312215,310726,238,20726,GNET_4stim_recallt_idinput_artn_-_STUDY,0,88516,56,yes,1366
0,0,1573,1573,white,no,Mozilla,Netscape,"5.0 (Windows NT 10.0; Win64; x64) AppleWebKit/537.36 (KHTML, like Gecko) Chrome/117.0.0.0 Safari/537.36",xpyriment,legacy,legacy,0,uniform,,,,0,0,0,0,18,0,0,18,0,0,19,19,19,18,0,0,0,18,0,0,37,37,37,37,37,0,37,37,0,0,0,19-09-23,19-09-23,12:00:57,Thu Oct 19 2023 12:00:57 GMT+0200 (közép-európai nyári idő),The main experiment item,yes,,0,0,C:\Users\zymotik\Documents\!research\GNET,0,0,0,prototype4.png,no,mono,no,18,no,black,no,no,768,2208,3.5.8,legacy,xpyriment,m9hljr,osweb,1.4.0,1882,1,0,right,enter,enter,right,right,1118,2529,12525,1118,23463,2,0,legacy,672,1280,24,720,24,0,0,1280,1697709742024,1024,2,48000,-16,experiment,p9sarr2.png,1,odd,Win32,237,238,180,18184,238,122305,119303,20725,18184,20727,238,316385,318287,319788,315265,123825,316388,315265,238,20726,GNET_4stim_recallt_idinput_artn_-_STUDY,0,89634,57,yes,1366
0,0,1579,1579,white,no,Mozilla,Netscape,"5.0 (Windows NT 10.0; Win64; x64) AppleWebKit/537.36 (KHTML, like Gecko) Chrome/117.0.0.0 Safari/537.36",xpyriment,legacy,legacy,0,uniform,,,,0,0,0,0,18,0,0,18,0,0,19,19,19,18,0,0,0,18,0,0,38,38,38,38,38,0,38,38,0,0,0,19-09-23,19-09-23,12:00:57,Thu Oct 19 2023 12:00:57 GMT+0200 (közép-európai nyári idő),The main experiment item,yes,,0,0,C:\Users\zymotik\Documents\!research\GNET,0,0,0,prototype4.png,no,mono,no,18,no,black,no,no,768,2208,3.5.8,legacy,xpyriment,m9hljr,osweb,1.4.0,1034,1,0,right,enter,enter,right,right,1966,2529,12525,1966,23463,2,0,legacy,672,1280,24,720,24,0,0,1280,1697709742024,1024,2,48000,-16,experiment,p4sarrsha1.png,1,odd,Win32,237,238,180,18184,238,122305,119303,20725,18184,20727,238,321774,322825,324326,319802,123825,321776,319802,238,20726,GNET_4stim_recallt_idinput_artn_-_STUDY,0,91600,58,yes,1366
0,0,1567,1567,white,no,Mozilla,Netscape,"5.0 (Windows NT 10.0; Win64; x64) AppleWebKit/537.36 (KHTML, like Gecko) Chrome/117.0.0.0 Safari/537.36",xpyriment,legacy,legacy,0,uniform,,,,0,0,0,0,18,0,0,18,0,0,19,19,19,18,0,0,0,18,0,0,39,39,39,39,39,0,39,39,0,0,0,19-09-23,19-09-23,12:00:57,Thu Oct 19 2023 12:00:57 GMT+0200 (közép-európai nyári idő),The main experiment item,yes,,0,0,C:\Users\zymotik\Documents\!research\GNET,0,0,0,prototype4.png,no,mono,no,18,no,black,no,no,768,2208,3.5.8,legacy,xpyriment,m9hljr,osweb,1.4.0,2149,1,0,right,enter,enter,right,right,851,2529,12525,851,23463,2,0,legacy,672,1280,24,720,24,0,0,1280,1697709742024,1024,2,48000,-16,experiment,prototype2.png,1,odd,Win32,237,238,180,18184,238,122305,119303,20725,18184,20727,238,325194,327363,328865,324337,123825,325197,324337,238,20726,GNET_4stim_recallt_idinput_artn_-_STUDY,0,92451,59,yes,1366
0,0,1555,1555,white,no,Mozilla,Netscape,"5.0 (Windows NT 10.0; Win64; x64) AppleWebKit/537.36 (KHTML, like Gecko) Chrome/117.0.0.0 Safari/537.36",xpyriment,legacy,legacy,0,uniform,,,,0,0,0,0,18,0,0,18,0,0,19,19,19,18,0,0,0,18,0,0,40,40,40,40,40,0,40,40,0,0,0,19-09-23,19-09-23,12:00:57,Thu Oct 19 2023 12:00:57 GMT+0200 (közép-európai nyári idő),The main experiment item,yes,,0,0,C:\Users\zymotik\Documents\!research\GNET,0,0,0,prototype4.png,no,mono,no,18,no,black,no,no,768,2208,3.5.8,legacy,xpyriment,m9hljr,osweb,1.4.0,2161,1,0,right,enter,enter,right,right,839,2529,12525,839,23463,2,0,legacy,672,1280,24,720,24,0,0,1280,1697709742024,1024,2,48000,-16,experiment,p4sarrshacol2.png,1,odd,Win32,237,238,180,18184,238,122305,119303,20725,18184,20727,238,329732,331902,333403,328879,123825,329735,328879,238,20726,GNET_4stim_recallt_idinput_artn_-_STUDY,0,93290,60,yes,1366
0,0,1545,1545,white,no,Mozilla,Netscape,"5.0 (Windows NT 10.0; Win64; x64) AppleWebKit/537.36 (KHTML, like Gecko) Chrome/117.0.0.0 Safari/537.36",xpyriment,legacy,legacy,0,uniform,,,,0,0,0,0,18,0,0,18,0,0,19,19,19,18,0,0,0,18,0,0,41,41,41,41,41,0,41,41,0,0,0,19-09-23,19-09-23,12:00:57,Thu Oct 19 2023 12:00:57 GMT+0200 (közép-európai nyári idő),The main experiment item,yes,,0,0,C:\Users\zymotik\Documents\!research\GNET,0,0,0,prototype4.png,no,mono,no,18,no,black,no,no,768,2208,3.5.8,legacy,xpyriment,m9hljr,osweb,1.4.0,2037,1,0,right,enter,enter,right,right,963,2529,12525,963,23463,2,0,legacy,672,1280,24,720,24,0,0,1280,1697709742024,1024,2,48000,-16,experiment,p9sarr1.png,1,odd,Win32,237,238,180,18184,238,122305,119303,20725,18184,20727,238,334388,336440,337941,333416,123825,334391,333416,238,20726,GNET_4stim_recallt_idinput_artn_-_STUDY,0,94253,61,yes,1366
0,0,1545,1545,white,no,Mozilla,Netscape,"5.0 (Windows NT 10.0; Win64; x64) AppleWebKit/537.36 (KHTML, like Gecko) Chrome/117.0.0.0 Safari/537.36",xpyriment,legacy,legacy,0,uniform,,,,0,0,0,0,18,0,0,18,0,0,19,19,19,18,0,0,0,18,0,0,42,42,42,42,42,0,42,42,0,0,0,19-09-23,19-09-23,12:00:57,Thu Oct 19 2023 12:00:57 GMT+0200 (közép-európai nyári idő),The main experiment item,yes,,0,0,C:\Users\zymotik\Documents\!research\GNET,0,0,0,prototype4.png,no,mono,no,18,no,black,no,no,768,2208,3.5.8,legacy,xpyriment,m9hljr,osweb,1.4.0,1456,1,0,right,enter,enter,right,right,1544,2529,12525,1544,23463,2,0,legacy,672,1280,24,720,24,0,0,1280,1697709742024,1024,2,48000,-16,experiment,prototype1.png,1,odd,Win32,237,238,180,18184,238,122305,119303,20725,18184,20727,238,339510,340979,342480,337955,123825,339512,337955,238,20726,GNET_4stim_recallt_idinput_artn_-_STUDY,0,95797,62,yes,1366
0,0,1536,1536,white,no,Mozilla,Netscape,"5.0 (Windows NT 10.0; Win64; x64) AppleWebKit/537.36 (KHTML, like Gecko) Chrome/117.0.0.0 Safari/537.36",xpyriment,legacy,legacy,0,uniform,,,,0,0,0,0,18,0,0,18,0,0,19,19,19,18,0,0,0,18,0,0,43,43,43,43,43,0,43,43,0,0,0,19-09-23,19-09-23,12:00:57,Thu Oct 19 2023 12:00:57 GMT+0200 (közép-európai nyári idő),The main experiment item,yes,,0,0,C:\Users\zymotik\Documents\!research\GNET,0,0,0,prototype4.png,no,mono,no,18,no,black,no,no,768,2208,3.5.8,legacy,xpyriment,m9hljr,osweb,1.4.0,2017,1,0,right,enter,enter,right,right,983,2529,12525,983,23463,2,0,legacy,672,1280,24,720,24,0,0,1280,1697709742024,1024,2,48000,-16,experiment,prototype2.png,1,odd,Win32,237,238,180,18184,238,122305,119303,20725,18184,20727,238,343481,345517,347018,342490,123825,343483,342490,238,20726,GNET_4stim_recallt_idinput_artn_-_STUDY,0,96780,63,yes,1366
0,0,1529,1529,white,no,Mozilla,Netscape,"5.0 (Windows NT 10.0; Win64; x64) AppleWebKit/537.36 (KHTML, like Gecko) Chrome/117.0.0.0 Safari/537.36",xpyriment,legacy,legacy,0,uniform,,,,0,0,0,0,18,0,0,18,0,0,19,19,19,18,0,0,0,18,0,0,44,44,44,44,44,0,44,44,0,0,0,19-09-23,19-09-23,12:00:57,Thu Oct 19 2023 12:00:57 GMT+0200 (közép-európai nyári idő),The main experiment item,yes,,0,0,C:\Users\zymotik\Documents\!research\GNET,0,0,0,prototype4.png,no,mono,no,18,no,black,no,no,768,2208,3.5.8,legacy,xpyriment,m9hljr,osweb,1.4.0,1908,1,0,right,enter,enter,right,right,1092,2529,12525,1092,23463,2,0,legacy,672,1280,24,720,24,0,0,1280,1697709742024,1024,2,48000,-16,experiment,p1sarrsha2.png,1,odd,Win32,237,238,180,18184,238,122305,119303,20725,18184,20727,238,348136,350055,351557,347032,123825,348139,347032,238,20726,GNET_4stim_recallt_idinput_artn_-_STUDY,0,97872,64,yes,1366
0,0,1520,1520,white,no,Mozilla,Netscape,"5.0 (Windows NT 10.0; Win64; x64) AppleWebKit/537.36 (KHTML, like Gecko) Chrome/117.0.0.0 Safari/537.36",xpyriment,legacy,legacy,0,uniform,,,,0,0,0,0,18,0,0,18,0,0,19,19,19,18,0,0,0,18,0,0,45,45,45,45,45,0,45,45,0,0,0,19-09-23,19-09-23,12:00:57,Thu Oct 19 2023 12:00:57 GMT+0200 (közép-európai nyári idő),The main experiment item,yes,,0,0,C:\Users\zymotik\Documents\!research\GNET,0,0,0,prototype4.png,no,mono,no,18,no,black,no,no,768,2208,3.5.8,legacy,xpyriment,m9hljr,osweb,1.4.0,2067,1,0,right,enter,enter,right,right,933,2529,12525,933,23463,2,0,legacy,672,1280,24,720,24,0,0,1280,1697709742024,1024,2,48000,-16,experiment,p7sarr1.png,1,odd,Win32,237,238,180,18184,238,122305,119303,20725,18184,20727,238,352508,354594,356096,351570,123825,352510,351570,238,20726,GNET_4stim_recallt_idinput_artn_-_STUDY,0,98805,65,yes,1366
0,0,1521,1521,white,no,Mozilla,Netscape,"5.0 (Windows NT 10.0; Win64; x64) AppleWebKit/537.36 (KHTML, like Gecko) Chrome/117.0.0.0 Safari/537.36",xpyriment,legacy,legacy,0,uniform,,,,0,0,0,0,18,0,0,18,0,0,19,19,19,18,0,0,0,18,0,0,46,46,46,46,46,0,46,46,0,0,0,19-09-23,19-09-23,12:00:57,Thu Oct 19 2023 12:00:57 GMT+0200 (közép-európai nyári idő),The main experiment item,yes,,0,0,C:\Users\zymotik\Documents\!research\GNET,0,0,0,prototype4.png,no,mono,no,18,no,black,no,no,768,2208,3.5.8,legacy,xpyriment,m9hljr,osweb,1.4.0,1446,1,0,right,enter,enter,right,right,1554,2529,12525,1554,23463,2,0,legacy,672,1280,24,720,24,0,0,1280,1697709742024,1024,2,48000,-16,experiment,p6sarr1.png,1,odd,Win32,237,238,180,18184,238,122305,119303,20725,18184,20727,238,357664,359115,360616,356109,123825,357666,356109,238,20726,GNET_4stim_recallt_idinput_artn_-_STUDY,0,100359,66,yes,1366
0,0,1538,1538,white,no,Mozilla,Netscape,"5.0 (Windows NT 10.0; Win64; x64) AppleWebKit/537.36 (KHTML, like Gecko) Chrome/117.0.0.0 Safari/537.36",xpyriment,legacy,legacy,0,uniform,,,,0,0,0,0,18,0,0,18,0,0,19,19,19,18,0,0,0,18,0,0,47,47,47,47,47,0,47,47,0,0,0,19-09-23,19-09-23,12:00:57,Thu Oct 19 2023 12:00:57 GMT+0200 (közép-európai nyári idő),The main experiment item,yes,,0,0,C:\Users\zymotik\Documents\!research\GNET,0,0,0,prototype4.png,no,mono,no,18,no,black,no,no,768,2208,3.5.8,legacy,xpyriment,m9hljr,osweb,1.4.0,311,1,0,left,enter,enter,left,right,2689,2529,12525,2689,23463,2,0,legacy,672,1280,24,720,24,0,0,1280,1697709742024,1024,2,48000,-16,experiment,prototype1.png,1,odd,Win32,237,238,180,18184,238,122305,119303,20725,18184,20727,238,363319,363636,365138,360628,123825,363321,360628,238,20726,GNET_4stim_recallt_idinput_artn_-_STUDY,0,103048,67,yes,1366
0,0,1537,1537,white,no,Mozilla,Netscape,"5.0 (Windows NT 10.0; Win64; x64) AppleWebKit/537.36 (KHTML, like Gecko) Chrome/117.0.0.0 Safari/537.36",xpyriment,legacy,legacy,0,uniform,,,,0,0,0,0,18,0,0,18,0,0,19,19,19,18,0,0,0,18,0,0,48,48,48,48,48,0,48,48,0,0,0,19-09-23,19-09-23,12:00:57,Thu Oct 19 2023 12:00:57 GMT+0200 (közép-európai nyári idő),The main experiment item,yes,,0,0,C:\Users\zymotik\Documents\!research\GNET,0,0,0,prototype4.png,no,mono,no,18,no,black,no,no,768,2208,3.5.8,legacy,xpyriment,m9hljr,osweb,1.4.0,1516,1,0,left,enter,enter,left,right,1484,2529,12525,1484,23463,2,0,legacy,672,1280,24,720,24,0,0,1280,1697709742024,1024,2,48000,-16,experiment,prototype2.png,1,odd,Win32,237,238,180,18184,238,122305,119303,20725,18184,20727,238,366640,368175,369676,365149,123825,366642,365149,238,20726,GNET_4stim_recallt_idinput_artn_-_STUDY,0,104532,68,yes,1366
0,0,1526,1526,white,no,Mozilla,Netscape,"5.0 (Windows NT 10.0; Win64; x64) AppleWebKit/537.36 (KHTML, like Gecko) Chrome/117.0.0.0 Safari/537.36",xpyriment,legacy,legacy,0,uniform,,,,0,0,0,0,18,0,0,18,0,0,19,19,19,18,0,0,0,18,0,0,49,49,49,49,49,0,49,49,0,0,0,19-09-23,19-09-23,12:00:57,Thu Oct 19 2023 12:00:57 GMT+0200 (közép-európai nyári idő),The main experiment item,yes,,0,0,C:\Users\zymotik\Documents\!research\GNET,0,0,0,prototype4.png,no,mono,no,18,no,black,no,no,768,2208,3.5.8,legacy,xpyriment,m9hljr,osweb,1.4.0,2218,1,0,right,enter,enter,right,right,782,2529,12525,782,23463,2,0,legacy,672,1280,24,720,24,0,0,1280,1697709742024,1024,2,48000,-16,experiment,p6sarr2.png,1,odd,Win32,237,238,180,18184,238,122305,119303,20725,18184,20727,238,370477,372714,374217,369691,123825,370479,369691,238,20726,GNET_4stim_recallt_idinput_artn_-_STUDY,0,105314,69,yes,1366
0,0,1537,1537,white,no,Mozilla,Netscape,"5.0 (Windows NT 10.0; Win64; x64) AppleWebKit/537.36 (KHTML, like Gecko) Chrome/117.0.0.0 Safari/537.36",xpyriment,legacy,legacy,0,uniform,,,,0,0,0,0,18,0,0,18,0,0,19,19,19,18,0,0,0,18,0,0,50,50,50,50,50,0,50,50,0,0,0,19-09-23,19-09-23,12:00:57,Thu Oct 19 2023 12:00:57 GMT+0200 (közép-európai nyári idő),The main experiment item,yes,,0,0,C:\Users\zymotik\Documents\!research\GNET,0,0,0,prototype4.png,no,mono,no,18,no,black,no,no,768,2208,3.5.8,legacy,xpyriment,m9hljr,osweb,1.4.0,714,1,0,right,enter,enter,right,right,2286,2529,12525,2286,23463,2,0,legacy,672,1280,24,720,24,0,0,1280,1697709742024,1024,2,48000,-16,experiment,p2sarrsha2.png,1,odd,Win32,237,238,180,18184,238,122305,119303,20725,18184,20727,238,376519,377251,378753,374232,123825,376521,374232,238,20726,GNET_4stim_recallt_idinput_artn_-_STUDY,0,107600,70,yes,1366
0,0,1540,1540,white,no,Mozilla,Netscape,"5.0 (Windows NT 10.0; Win64; x64) AppleWebKit/537.36 (KHTML, like Gecko) Chrome/117.0.0.0 Safari/537.36",xpyriment,legacy,legacy,0,uniform,,,,0,0,0,0,18,0,0,18,0,0,19,19,19,18,0,0,0,18,0,0,51,51,51,51,51,0,51,51,0,0,0,19-09-23,19-09-23,12:00:57,Thu Oct 19 2023 12:00:57 GMT+0200 (közép-európai nyári idő),The main experiment item,yes,,0,0,C:\Users\zymotik\Documents\!research\GNET,0,0,0,prototype4.png,no,mono,no,18,no,black,no,no,768,2208,3.5.8,legacy,xpyriment,m9hljr,osweb,1.4.0,1295,1,0,left,enter,enter,left,right,1705,2529,12525,1705,23463,2,0,legacy,672,1280,24,720,24,0,0,1280,1697709742024,1024,2,48000,-16,experiment,p2sarrsha1.png,1,odd,Win32,237,238,180,18184,238,122305,119303,20725,18184,20727,238,380488,381790,383291,378773,123825,380491,378772,238,20726,GNET_4stim_recallt_idinput_artn_-_STUDY,0,109305,71,yes,1366
