acc,accuracy,allplaced,average_response_time,avg_rt,background,bidi,browser_codename,browser_name,browser_version,canvas_backend,cell1,cell2,cell3,cell4,cell5,cell6,cell7,cell8,cell9,clock_backend,color_backend,compensation,coordinates,correct,correct_new_mouse_response,correct_number_input_1,correct_test_response,count_end,count_experiment,count_famrec_seq,count_famrecall,count_get_input_loop,count_get_input_loop_1,count_get_input_sequence,count_get_input_sequence_1,count_init,count_init_1,count_neptun_textinput,count_new_mouse_response,count_number_input_1,count_osweb,count_prestudy,count_process_input,count_process_input_1,count_recall,count_recallcounter,count_recalltest_start,count_show_input,count_show_input_1,count_start,count_study,count_study_start,count_test,count_test_getresptime,count_test_isi,count_test_logger,count_test_response,count_test_sequence,count_test_start,count_test_stimp2,count_test_stimpres,count_textinp,count_textinp_1,cursor_x,cursor_y,date_startdate,date_startdateUTC,date_starttime,datetime,description,disable_garbage_collection,done,dragging,empty_column,experiment_debug,experiment_parameters,experiment_path,experiment_pilot,experiment_taskname,experiment_taskversion,font_bold,font_family,font_italic,font_size,font_underline,foreground,form_clicks,fullscreen,height,jatosStudyResultId,jatosVersion,keyboard_backend,mouse_backend,multichar_knowresp,multichar_response,opensesame_codename,opensesame_version,p2dur,penwidth,placed,plc1,plc1c,plc1s,plc1sh,plc1x,plc1y,plc2,plc2c,plc2s,plc2sh,plc2x,plc2y,plc3,plc3c,plc3s,plc3sh,plc3x,plc3y,plc4,plc4c,plc4s,plc4sh,plc4x,plc4y,plc5,plc5c,plc5s,plc5sh,plc5x,plc5y,plcundefined,plcundefineds,plcundefinedsh,plcundefinedx,plcundefinedy,repeat_cycle,response,response_new_mouse_response,response_number_input_1,response_recalltest_start,response_test_response,response_test_start,response_time,response_time_new_mouse_response,response_time_number_input_1,response_time_recalltest_start,response_time_test_response,response_time_test_start,round_decimals,rtnr,sampler_backend,screen_availableHeight,screen_availableWidth,screen_colorDepth,screen_height,screen_pixelDepth,screen_screenX,screen_screenY,screen_width,selected,sessionid,sound_buf_size,sound_channels,sound_freq,sound_sample_size,start,stim,subject_nr,subject_parity,system_os,tem2,temp,time_famrecall,time_get_input_loop,time_get_input_loop_1,time_init,time_init_1,time_new_mouse_response,time_number_input_1,time_prestudy,time_process_input,time_process_input_1,time_recallcounter,time_recalltest_start,time_show_input,time_show_input_1,time_study,time_test,time_test_getresptime,time_test_isi,time_test_logger,time_test_response,time_test_start,time_test_stimp2,time_test_stimpres,time_textinp,time_textinp_1,title,total_correct,total_response_time,total_responses,uniform_coordinates,which,width
,,,,,,,Mozilla,Netscape,"5.0 (Windows NT 10.0; Win64; x64) AppleWebKit/537.36 (KHTML, like Gecko) Chrome/118.0.0.0 Safari/537.36 OPR/104.0.0.0",,,,,,,,,,,,,,,,,,,,,,,,,,,,,,,,,,,,,,,,,,,,,,,,,,,,,,,,,13-10-23,13-10-23,19:37:15,,,,,,,0,0,,0,0,0,,,,,,,,,,2293,3.5.8,,,d8bq7g,,,,,,,,,,,,,,,,,,,,,,,,,,,,,,,,,,,,,,,,,,,,,,,,,,,,,,,,,,1040,1920,24,1080,24,0,0,1920,,,,,,,,,,,Win32,,,,,,,,,,,,,,,,,,,,,,,,,,,,,,,,,,
undefined,undefined,,undefined,undefined,white,no,Mozilla,Netscape,"5.0 (Windows NT 10.0; Win64; x64) AppleWebKit/537.36 (KHTML, like Gecko) Chrome/118.0.0.0 Safari/537.36 OPR/104.0.0.0",xpyriment,,,,,,,,,,legacy,legacy,0,uniform,,,,,0,0,,0,,0,,6,,0,0,,6,0,0,,6,0,0,0,,6,0,0,0,0,0,0,0,0,0,0,0,0,,0,,,13-10-23,13-10-23,19:37:15,Mon Nov 13 2023 19:37:15 GMT+0100 (közép-európai téli idő),The main experiment item,yes,,,,0,0,C:\Users\zymotik\Documents\!research\GNET,0,0,0,no,mono,no,18,no,black,no,no,768,2293,3.5.8,legacy,xpyriment,d8bq7g,,osweb,1.4.0,937,1,,,,,,,,,,,,,,,,,,,,,,,,,,,,,,,,,,,,,0,right,,enter,,right,space,2063,,398,,2063,6975,2,0,legacy,1040,1920,24,1080,24,0,0,1920,,1699900693890,1024,2,48000,-16,experiment,p2sarrshacol1.png,0,even,Win32,,,93,,93,,77,,15825,93,,16239,,,,15825,93,93,25306,26256,27773,23232,16240,25307,23232,,16239,GNET_4stim_recallt_idinput_-_TEST,0,0,0,yes,,1366
undefined,undefined,,undefined,undefined,white,no,Mozilla,Netscape,"5.0 (Windows NT 10.0; Win64; x64) AppleWebKit/537.36 (KHTML, like Gecko) Chrome/118.0.0.0 Safari/537.36 OPR/104.0.0.0",xpyriment,,,,,,,,,,legacy,legacy,0,uniform,,,,,0,0,,0,,0,,6,,0,0,,6,0,0,,6,0,0,0,,6,0,0,0,0,1,1,1,1,1,0,1,1,,0,,,13-10-23,13-10-23,19:37:15,Mon Nov 13 2023 19:37:15 GMT+0100 (közép-európai téli idő),The main experiment item,yes,,,,0,0,C:\Users\zymotik\Documents\!research\GNET,0,0,0,no,mono,no,18,no,black,no,no,768,2293,3.5.8,legacy,xpyriment,d8bq7g,,osweb,1.4.0,1162,1,,,,,,,,,,,,,,,,,,,,,,,,,,,,,,,,,,,,,0,right,,enter,,right,space,1838,,398,,1838,6975,2,0,legacy,1040,1920,24,1080,24,0,0,1920,,1699900693890,1024,2,48000,-16,experiment,p4sarr4.png,0,even,Win32,,,93,,93,,77,,15825,93,,16239,,,,15825,93,93,29623,30790,32306,27777,16240,29623,27777,,16239,GNET_4stim_recallt_idinput_-_TEST,0,0,0,yes,,1366
undefined,undefined,,undefined,undefined,white,no,Mozilla,Netscape,"5.0 (Windows NT 10.0; Win64; x64) AppleWebKit/537.36 (KHTML, like Gecko) Chrome/118.0.0.0 Safari/537.36 OPR/104.0.0.0",xpyriment,,,,,,,,,,legacy,legacy,0,uniform,,,,,0,0,,0,,0,,6,,0,0,,6,0,0,,6,0,0,0,,6,0,0,0,0,2,2,2,2,2,0,2,2,,0,,,13-10-23,13-10-23,19:37:15,Mon Nov 13 2023 19:37:15 GMT+0100 (közép-európai téli idő),The main experiment item,yes,,,,0,0,C:\Users\zymotik\Documents\!research\GNET,0,0,0,no,mono,no,18,no,black,no,no,768,2293,3.5.8,legacy,xpyriment,d8bq7g,,osweb,1.4.0,1719,1,,,,,,,,,,,,,,,,,,,,,,,,,,,,,,,,,,,,,0,down,,enter,,down,space,1281,,398,,1281,6975,2,0,legacy,1040,1920,24,1080,24,0,0,1920,,1699900693890,1024,2,48000,-16,experiment,p7sarr2.png,0,even,Win32,,,93,,93,,77,,15825,93,,16239,,,,15825,93,93,33606,35340,36857,32310,16240,33607,32310,,16239,GNET_4stim_recallt_idinput_-_TEST,0,0,0,yes,,1366
undefined,undefined,,undefined,undefined,white,no,Mozilla,Netscape,"5.0 (Windows NT 10.0; Win64; x64) AppleWebKit/537.36 (KHTML, like Gecko) Chrome/118.0.0.0 Safari/537.36 OPR/104.0.0.0",xpyriment,,,,,,,,,,legacy,legacy,0,uniform,,,,,0,0,,0,,0,,6,,0,0,,6,0,0,,6,0,0,0,,6,0,0,0,0,3,3,3,3,3,0,3,3,,0,,,13-10-23,13-10-23,19:37:15,Mon Nov 13 2023 19:37:15 GMT+0100 (közép-európai téli idő),The main experiment item,yes,,,,0,0,C:\Users\zymotik\Documents\!research\GNET,0,0,0,no,mono,no,18,no,black,no,no,768,2293,3.5.8,legacy,xpyriment,d8bq7g,,osweb,1.4.0,1438,1,,,,,,,,,,,,,,,,,,,,,,,,,,,,,,,,,,,,,0,right,,enter,,right,space,1562,,398,,1562,6975,2,0,legacy,1040,1920,24,1080,24,0,0,1920,,1699900693890,1024,2,48000,-16,experiment,p1sarrsha4.png,0,even,Win32,,,93,,93,,77,,15825,93,,16239,,,,15825,93,93,38423,39874,41390,36861,16240,38424,36861,,16239,GNET_4stim_recallt_idinput_-_TEST,0,0,0,yes,,1366
undefined,undefined,,undefined,undefined,white,no,Mozilla,Netscape,"5.0 (Windows NT 10.0; Win64; x64) AppleWebKit/537.36 (KHTML, like Gecko) Chrome/118.0.0.0 Safari/537.36 OPR/104.0.0.0",xpyriment,,,,,,,,,,legacy,legacy,0,uniform,,,,,0,0,,0,,0,,6,,0,0,,6,0,0,,6,0,0,0,,6,0,0,0,0,4,4,4,4,4,0,4,4,,0,,,13-10-23,13-10-23,19:37:15,Mon Nov 13 2023 19:37:15 GMT+0100 (közép-európai téli idő),The main experiment item,yes,,,,0,0,C:\Users\zymotik\Documents\!research\GNET,0,0,0,no,mono,no,18,no,black,no,no,768,2293,3.5.8,legacy,xpyriment,d8bq7g,,osweb,1.4.0,787,1,,,,,,,,,,,,,,,,,,,,,,,,,,,,,,,,,,,,,0,left,,enter,,left,space,2213,,398,,2213,6975,2,0,legacy,1040,1920,24,1080,24,0,0,1920,,1699900693890,1024,2,48000,-16,experiment,p3sarrcol2.png,0,even,Win32,,,93,,93,,77,,15825,93,,16239,,,,15825,93,93,43624,44424,45940,41394,16240,43624,41394,,16239,GNET_4stim_recallt_idinput_-_TEST,0,0,0,yes,,1366
undefined,undefined,,undefined,undefined,white,no,Mozilla,Netscape,"5.0 (Windows NT 10.0; Win64; x64) AppleWebKit/537.36 (KHTML, like Gecko) Chrome/118.0.0.0 Safari/537.36 OPR/104.0.0.0",xpyriment,,,,,,,,,,legacy,legacy,0,uniform,,,,,0,0,,0,,0,,6,,0,0,,6,0,0,,6,0,0,0,,6,0,0,0,0,5,5,5,5,5,0,5,5,,0,,,13-10-23,13-10-23,19:37:15,Mon Nov 13 2023 19:37:15 GMT+0100 (közép-európai téli idő),The main experiment item,yes,,,,0,0,C:\Users\zymotik\Documents\!research\GNET,0,0,0,no,mono,no,18,no,black,no,no,768,2293,3.5.8,legacy,xpyriment,d8bq7g,,osweb,1.4.0,858,1,,,,,,,,,,,,,,,,,,,,,,,,,,,,,,,,,,,,,0,right,,enter,,right,space,2142,,398,,2142,6975,2,0,legacy,1040,1920,24,1080,24,0,0,1920,,1699900693890,1024,2,48000,-16,experiment,p3sarrcol3.png,0,even,Win32,,,93,,93,,77,,15825,93,,16239,,,,15825,93,93,48090,48957,50474,45945,16240,48091,45945,,16239,GNET_4stim_recallt_idinput_-_TEST,0,0,0,yes,,1366
undefined,undefined,,undefined,undefined,white,no,Mozilla,Netscape,"5.0 (Windows NT 10.0; Win64; x64) AppleWebKit/537.36 (KHTML, like Gecko) Chrome/118.0.0.0 Safari/537.36 OPR/104.0.0.0",xpyriment,,,,,,,,,,legacy,legacy,0,uniform,,,,,0,0,,0,,0,,6,,0,0,,6,0,0,,6,0,0,0,,6,0,0,0,0,6,6,6,6,6,0,6,6,,0,,,13-10-23,13-10-23,19:37:15,Mon Nov 13 2023 19:37:15 GMT+0100 (közép-európai téli idő),The main experiment item,yes,,,,0,0,C:\Users\zymotik\Documents\!research\GNET,0,0,0,no,mono,no,18,no,black,no,no,768,2293,3.5.8,legacy,xpyriment,d8bq7g,,osweb,1.4.0,1951,1,,,,,,,,,,,,,,,,,,,,,,,,,,,,,,,,,,,,,0,left,,enter,,left,space,1049,,398,,1049,6975,2,0,legacy,1040,1920,24,1080,24,0,0,1920,,1699900693890,1024,2,48000,-16,experiment,p1sarrsha1.png,0,even,Win32,,,93,,93,,77,,15825,93,,16239,,,,15825,93,93,51541,53507,55024,50478,16240,51541,50478,,16239,GNET_4stim_recallt_idinput_-_TEST,0,0,0,yes,,1366
undefined,undefined,,undefined,undefined,white,no,Mozilla,Netscape,"5.0 (Windows NT 10.0; Win64; x64) AppleWebKit/537.36 (KHTML, like Gecko) Chrome/118.0.0.0 Safari/537.36 OPR/104.0.0.0",xpyriment,,,,,,,,,,legacy,legacy,0,uniform,,,,,0,0,,0,,0,,6,,0,0,,6,0,0,,6,0,0,0,,6,0,0,0,0,7,7,7,7,7,0,7,7,,0,,,13-10-23,13-10-23,19:37:15,Mon Nov 13 2023 19:37:15 GMT+0100 (közép-európai téli idő),The main experiment item,yes,,,,0,0,C:\Users\zymotik\Documents\!research\GNET,0,0,0,no,mono,no,18,no,black,no,no,768,2293,3.5.8,legacy,xpyriment,d8bq7g,,osweb,1.4.0,1029,1,,,,,,,,,,,,,,,,,,,,,,,,,,,,,,,,,,,,,0,down,,enter,,down,space,1971,,398,,1971,6975,2,0,legacy,1040,1920,24,1080,24,0,0,1920,,1699900693890,1024,2,48000,-16,experiment,p4sarr1.png,0,even,Win32,,,93,,93,,77,,15825,93,,16239,,,,15825,93,93,57007,58041,59558,55028,16240,57009,55028,,16239,GNET_4stim_recallt_idinput_-_TEST,0,0,0,yes,,1366
undefined,undefined,,undefined,undefined,white,no,Mozilla,Netscape,"5.0 (Windows NT 10.0; Win64; x64) AppleWebKit/537.36 (KHTML, like Gecko) Chrome/118.0.0.0 Safari/537.36 OPR/104.0.0.0",xpyriment,,,,,,,,,,legacy,legacy,0,uniform,,,,,0,0,,0,,0,,6,,0,0,,6,0,0,,6,0,0,0,,6,0,0,0,0,8,8,8,8,8,0,8,8,,0,,,13-10-23,13-10-23,19:37:15,Mon Nov 13 2023 19:37:15 GMT+0100 (közép-európai téli idő),The main experiment item,yes,,,,0,0,C:\Users\zymotik\Documents\!research\GNET,0,0,0,no,mono,no,18,no,black,no,no,768,2293,3.5.8,legacy,xpyriment,d8bq7g,,osweb,1.4.0,723,1,,,,,,,,,,,,,,,,,,,,,,,,,,,,,,,,,,,,,0,right,,enter,,right,space,2277,,398,,2277,6975,2,0,legacy,1040,1920,24,1080,24,0,0,1920,,1699900693890,1024,2,48000,-16,experiment,p9sarr2.png,0,even,Win32,,,93,,93,,77,,15825,93,,16239,,,,15825,93,93,61841,62574,64091,59562,16240,61841,59562,,16239,GNET_4stim_recallt_idinput_-_TEST,0,0,0,yes,,1366
undefined,undefined,,undefined,undefined,white,no,Mozilla,Netscape,"5.0 (Windows NT 10.0; Win64; x64) AppleWebKit/537.36 (KHTML, like Gecko) Chrome/118.0.0.0 Safari/537.36 OPR/104.0.0.0",xpyriment,,,,,,,,,,legacy,legacy,0,uniform,,,,,0,0,,0,,0,,6,,0,0,,6,0,0,,6,0,0,0,,6,0,0,0,0,9,9,9,9,9,0,9,9,,0,,,13-10-23,13-10-23,19:37:15,Mon Nov 13 2023 19:37:15 GMT+0100 (közép-európai téli idő),The main experiment item,yes,,,,0,0,C:\Users\zymotik\Documents\!research\GNET,0,0,0,no,mono,no,18,no,black,no,no,768,2293,3.5.8,legacy,xpyriment,d8bq7g,,osweb,1.4.0,1325,1,,,,,,,,,,,,,,,,,,,,,,,,,,,,,,,,,,,,,0,right,,enter,,right,space,1675,,398,,1675,6975,2,0,legacy,1040,1920,24,1080,24,0,0,1920,,1699900693890,1024,2,48000,-16,experiment,p1sarr2.png,0,even,Win32,,,93,,93,,77,,15825,93,,16239,,,,15825,93,93,65791,67125,68641,64100,16240,65792,64100,,16239,GNET_4stim_recallt_idinput_-_TEST,0,0,0,yes,,1366
undefined,undefined,,undefined,undefined,white,no,Mozilla,Netscape,"5.0 (Windows NT 10.0; Win64; x64) AppleWebKit/537.36 (KHTML, like Gecko) Chrome/118.0.0.0 Safari/537.36 OPR/104.0.0.0",xpyriment,,,,,,,,,,legacy,legacy,0,uniform,,,,,0,0,,0,,0,,6,,0,0,,6,0,0,,6,0,0,0,,6,0,0,0,0,10,10,10,10,10,0,10,10,,0,,,13-10-23,13-10-23,19:37:15,Mon Nov 13 2023 19:37:15 GMT+0100 (közép-európai téli idő),The main experiment item,yes,,,,0,0,C:\Users\zymotik\Documents\!research\GNET,0,0,0,no,mono,no,18,no,black,no,no,768,2293,3.5.8,legacy,xpyriment,d8bq7g,,osweb,1.4.0,1454,1,,,,,,,,,,,,,,,,,,,,,,,,,,,,,,,,,,,,,0,down,,enter,,down,space,1546,,398,,1546,6975,2,0,legacy,1040,1920,24,1080,24,0,0,1920,,1699900693890,1024,2,48000,-16,experiment,p3sarrcol4.png,0,even,Win32,,,93,,93,,77,,15825,93,,16239,,,,15825,93,93,70191,71658,73175,68645,16240,70192,68645,,16239,GNET_4stim_recallt_idinput_-_TEST,0,0,0,yes,,1366
undefined,undefined,,undefined,undefined,white,no,Mozilla,Netscape,"5.0 (Windows NT 10.0; Win64; x64) AppleWebKit/537.36 (KHTML, like Gecko) Chrome/118.0.0.0 Safari/537.36 OPR/104.0.0.0",xpyriment,,,,,,,,,,legacy,legacy,0,uniform,,,,,0,0,,0,,0,,6,,0,0,,6,0,0,,6,0,0,0,,6,0,0,0,0,11,11,11,11,11,0,11,11,,0,,,13-10-23,13-10-23,19:37:15,Mon Nov 13 2023 19:37:15 GMT+0100 (közép-európai téli idő),The main experiment item,yes,,,,0,0,C:\Users\zymotik\Documents\!research\GNET,0,0,0,no,mono,no,18,no,black,no,no,768,2293,3.5.8,legacy,xpyriment,d8bq7g,,osweb,1.4.0,852,1,,,,,,,,,,,,,,,,,,,,,,,,,,,,,,,,,,,,,0,left,,enter,,left,space,2148,,398,,2148,6975,2,0,legacy,1040,1920,24,1080,24,0,0,1920,,1699900693890,1024,2,48000,-16,experiment,p2sarrshacol2.png,0,even,Win32,,,93,,93,,77,,15825,93,,16239,,,,15825,93,93,75341,76208,77725,73179,16240,75342,73179,,16239,GNET_4stim_recallt_idinput_-_TEST,0,0,0,yes,,1366
undefined,undefined,,undefined,undefined,white,no,Mozilla,Netscape,"5.0 (Windows NT 10.0; Win64; x64) AppleWebKit/537.36 (KHTML, like Gecko) Chrome/118.0.0.0 Safari/537.36 OPR/104.0.0.0",xpyriment,,,,,,,,,,legacy,legacy,0,uniform,,,,,0,0,,0,,0,,6,,0,0,,6,0,0,,6,0,0,0,,6,0,0,0,0,12,12,12,12,12,0,12,12,,0,,,13-10-23,13-10-23,19:37:15,Mon Nov 13 2023 19:37:15 GMT+0100 (közép-európai téli idő),The main experiment item,yes,,,,0,0,C:\Users\zymotik\Documents\!research\GNET,0,0,0,no,mono,no,18,no,black,no,no,768,2293,3.5.8,legacy,xpyriment,d8bq7g,,osweb,1.4.0,2002,1,,,,,,,,,,,,,,,,,,,,,,,,,,,,,,,,,,,,,0,right,,enter,,right,space,998,,398,,998,6975,2,0,legacy,1040,1920,24,1080,24,0,0,1920,,1699900693890,1024,2,48000,-16,experiment,p6sarr1.png,0,even,Win32,,,93,,93,,77,,15825,93,,16239,,,,15825,93,93,78742,80758,82275,77729,16240,78742,77729,,16239,GNET_4stim_recallt_idinput_-_TEST,0,0,0,yes,,1366
undefined,undefined,,undefined,undefined,white,no,Mozilla,Netscape,"5.0 (Windows NT 10.0; Win64; x64) AppleWebKit/537.36 (KHTML, like Gecko) Chrome/118.0.0.0 Safari/537.36 OPR/104.0.0.0",xpyriment,,,,,,,,,,legacy,legacy,0,uniform,,,,,0,0,,0,,0,,6,,0,0,,6,0,0,,6,0,0,0,,6,0,0,0,0,13,13,13,13,13,0,13,13,,0,,,13-10-23,13-10-23,19:37:15,Mon Nov 13 2023 19:37:15 GMT+0100 (közép-európai téli idő),The main experiment item,yes,,,,0,0,C:\Users\zymotik\Documents\!research\GNET,0,0,0,no,mono,no,18,no,black,no,no,768,2293,3.5.8,legacy,xpyriment,d8bq7g,,osweb,1.4.0,1784,1,,,,,,,,,,,,,,,,,,,,,,,,,,,,,,,,,,,,,0,left,,enter,,left,space,1216,,398,,1216,6975,2,0,legacy,1040,1920,24,1080,24,0,0,1920,,1699900693890,1024,2,48000,-16,experiment,p4sarrshacol3.png,0,even,Win32,,,93,,93,,77,,15825,93,,16239,,,,15825,93,93,83509,85309,86825,82279,16240,83509,82279,,16239,GNET_4stim_recallt_idinput_-_TEST,0,0,0,yes,,1366
undefined,undefined,,undefined,undefined,white,no,Mozilla,Netscape,"5.0 (Windows NT 10.0; Win64; x64) AppleWebKit/537.36 (KHTML, like Gecko) Chrome/118.0.0.0 Safari/537.36 OPR/104.0.0.0",xpyriment,,,,,,,,,,legacy,legacy,0,uniform,,,,,0,0,,0,,0,,6,,0,0,,6,0,0,,6,0,0,0,,6,0,0,0,0,14,14,14,14,14,0,14,14,,0,,,13-10-23,13-10-23,19:37:15,Mon Nov 13 2023 19:37:15 GMT+0100 (közép-európai téli idő),The main experiment item,yes,,,,0,0,C:\Users\zymotik\Documents\!research\GNET,0,0,0,no,mono,no,18,no,black,no,no,768,2293,3.5.8,legacy,xpyriment,d8bq7g,,osweb,1.4.0,0,1,,,,,,,,,,,,,,,,,,,,,,,,,,,,,,,,,,,,,0,None,,enter,,None,space,3013,,398,,3013,6975,2,0,legacy,1040,1920,24,1080,24,0,0,1920,,1699900693890,1024,2,48000,-16,experiment,p4sarrshacol4.png,0,even,Win32,,,93,,93,,77,,15825,93,,16239,,,,15825,93,93,89843,89843,91359,86829,16240,89843,86829,,16239,GNET_4stim_recallt_idinput_-_TEST,0,0,0,yes,,1366
undefined,undefined,,undefined,undefined,white,no,Mozilla,Netscape,"5.0 (Windows NT 10.0; Win64; x64) AppleWebKit/537.36 (KHTML, like Gecko) Chrome/118.0.0.0 Safari/537.36 OPR/104.0.0.0",xpyriment,,,,,,,,,,legacy,legacy,0,uniform,,,,,0,0,,0,,0,,6,,0,0,,6,0,0,,6,0,0,0,,6,0,0,0,0,15,15,15,15,15,0,15,15,,0,,,13-10-23,13-10-23,19:37:15,Mon Nov 13 2023 19:37:15 GMT+0100 (közép-európai téli idő),The main experiment item,yes,,,,0,0,C:\Users\zymotik\Documents\!research\GNET,0,0,0,no,mono,no,18,no,black,no,no,768,2293,3.5.8,legacy,xpyriment,d8bq7g,,osweb,1.4.0,2116,1,,,,,,,,,,,,,,,,,,,,,,,,,,,,,,,,,,,,,0,right,,enter,,right,space,884,,398,,884,6975,2,0,legacy,1040,1920,24,1080,24,0,0,1920,,1699900693890,1024,2,48000,-16,experiment,p2sarrcol1.png,0,even,Win32,,,93,,93,,77,,15825,93,,16239,,,,15825,93,93,92259,94376,95892,91363,16240,92259,91363,,16239,GNET_4stim_recallt_idinput_-_TEST,0,0,0,yes,,1366
undefined,undefined,,undefined,undefined,white,no,Mozilla,Netscape,"5.0 (Windows NT 10.0; Win64; x64) AppleWebKit/537.36 (KHTML, like Gecko) Chrome/118.0.0.0 Safari/537.36 OPR/104.0.0.0",xpyriment,,,,,,,,,,legacy,legacy,0,uniform,,,,,0,0,,0,,0,,6,,0,0,,6,0,0,,6,0,0,0,,6,0,0,0,0,16,16,16,16,16,0,16,16,,0,,,13-10-23,13-10-23,19:37:15,Mon Nov 13 2023 19:37:15 GMT+0100 (közép-európai téli idő),The main experiment item,yes,,,,0,0,C:\Users\zymotik\Documents\!research\GNET,0,0,0,no,mono,no,18,no,black,no,no,768,2293,3.5.8,legacy,xpyriment,d8bq7g,,osweb,1.4.0,1984,1,,,,,,,,,,,,,,,,,,,,,,,,,,,,,,,,,,,,,0,right,,enter,,right,space,1016,,398,,1016,6975,2,0,legacy,1040,1920,24,1080,24,0,0,1920,,1699900693890,1024,2,48000,-16,experiment,p1sarr4.png,0,even,Win32,,,93,,93,,77,,15825,93,,16239,,,,15825,93,93,96926,98926,100443,95896,16240,96926,95896,,16239,GNET_4stim_recallt_idinput_-_TEST,0,0,0,yes,,1366
undefined,undefined,,undefined,undefined,white,no,Mozilla,Netscape,"5.0 (Windows NT 10.0; Win64; x64) AppleWebKit/537.36 (KHTML, like Gecko) Chrome/118.0.0.0 Safari/537.36 OPR/104.0.0.0",xpyriment,,,,,,,,,,legacy,legacy,0,uniform,,,,,0,0,,0,,0,,6,,0,0,,6,0,0,,6,0,0,0,,6,0,0,0,0,17,17,17,17,17,0,17,17,,0,,,13-10-23,13-10-23,19:37:15,Mon Nov 13 2023 19:37:15 GMT+0100 (közép-európai téli idő),The main experiment item,yes,,,,0,0,C:\Users\zymotik\Documents\!research\GNET,0,0,0,no,mono,no,18,no,black,no,no,768,2293,3.5.8,legacy,xpyriment,d8bq7g,,osweb,1.4.0,2120,1,,,,,,,,,,,,,,,,,,,,,,,,,,,,,,,,,,,,,0,right,,enter,,right,space,880,,398,,880,6975,2,0,legacy,1040,1920,24,1080,24,0,0,1920,,1699900693890,1024,2,48000,-16,experiment,p8sarr3.png,0,even,Win32,,,93,,93,,77,,15825,93,,16239,,,,15825,93,93,101343,103476,104993,100447,16240,101343,100446,,16239,GNET_4stim_recallt_idinput_-_TEST,0,0,0,yes,,1366
undefined,undefined,,undefined,undefined,white,no,Mozilla,Netscape,"5.0 (Windows NT 10.0; Win64; x64) AppleWebKit/537.36 (KHTML, like Gecko) Chrome/118.0.0.0 Safari/537.36 OPR/104.0.0.0",xpyriment,,,,,,,,,,legacy,legacy,0,uniform,,,,,0,0,,0,,0,,6,,0,0,,6,0,0,,6,0,0,0,,6,0,0,0,0,18,18,18,18,18,0,18,18,,0,,,13-10-23,13-10-23,19:37:15,Mon Nov 13 2023 19:37:15 GMT+0100 (közép-európai téli idő),The main experiment item,yes,,,,0,0,C:\Users\zymotik\Documents\!research\GNET,0,0,0,no,mono,no,18,no,black,no,no,768,2293,3.5.8,legacy,xpyriment,d8bq7g,,osweb,1.4.0,2206,1,,,,,,,,,,,,,,,,,,,,,,,,,,,,,,,,,,,,,0,right,,enter,,right,space,794,,398,,794,6975,2,0,legacy,1040,1920,24,1080,24,0,0,1920,,1699900693890,1024,2,48000,-16,experiment,p9sarr4.png,0,even,Win32,,,93,,93,,77,,15825,93,,16239,,,,15825,93,93,105793,108010,109526,104997,16240,105793,104997,,16239,GNET_4stim_recallt_idinput_-_TEST,0,0,0,yes,,1366
undefined,undefined,,undefined,undefined,white,no,Mozilla,Netscape,"5.0 (Windows NT 10.0; Win64; x64) AppleWebKit/537.36 (KHTML, like Gecko) Chrome/118.0.0.0 Safari/537.36 OPR/104.0.0.0",xpyriment,,,,,,,,,,legacy,legacy,0,uniform,,,,,0,0,,0,,0,,6,,0,0,,6,0,0,,6,0,0,0,,6,0,0,0,0,19,19,19,19,19,0,19,19,,0,,,13-10-23,13-10-23,19:37:15,Mon Nov 13 2023 19:37:15 GMT+0100 (közép-európai téli idő),The main experiment item,yes,,,,0,0,C:\Users\zymotik\Documents\!research\GNET,0,0,0,no,mono,no,18,no,black,no,no,768,2293,3.5.8,legacy,xpyriment,d8bq7g,,osweb,1.4.0,1131,1,,,,,,,,,,,,,,,,,,,,,,,,,,,,,,,,,,,,,0,down,,enter,,down,space,1869,,398,,1869,6975,2,0,legacy,1040,1920,24,1080,24,0,0,1920,,1699900693890,1024,2,48000,-16,experiment,p7sarr4.png,0,even,Win32,,,93,,93,,77,,15825,93,,16239,,,,15825,93,93,111410,112543,114060,109530,16240,111410,109530,,16239,GNET_4stim_recallt_idinput_-_TEST,0,0,0,yes,,1366
undefined,undefined,,undefined,undefined,white,no,Mozilla,Netscape,"5.0 (Windows NT 10.0; Win64; x64) AppleWebKit/537.36 (KHTML, like Gecko) Chrome/118.0.0.0 Safari/537.36 OPR/104.0.0.0",xpyriment,,,,,,,,,,legacy,legacy,0,uniform,,,,,0,0,,0,,0,,6,,0,0,,6,0,0,,6,0,0,0,,6,0,0,0,0,20,20,20,20,20,0,20,20,,0,,,13-10-23,13-10-23,19:37:15,Mon Nov 13 2023 19:37:15 GMT+0100 (közép-európai téli idő),The main experiment item,yes,,,,0,0,C:\Users\zymotik\Documents\!research\GNET,0,0,0,no,mono,no,18,no,black,no,no,768,2293,3.5.8,legacy,xpyriment,d8bq7g,,osweb,1.4.0,2009,1,,,,,,,,,,,,,,,,,,,,,,,,,,,,,,,,,,,,,0,left,,enter,,left,space,991,,398,,991,6975,2,0,legacy,1040,1920,24,1080,24,0,0,1920,,1699900693890,1024,2,48000,-16,experiment,p3sarrsha3.png,0,even,Win32,,,93,,93,,77,,15825,93,,16239,,,,15825,93,93,115060,117077,118593,114064,16240,115060,114064,,16239,GNET_4stim_recallt_idinput_-_TEST,0,0,0,yes,,1366
undefined,undefined,,undefined,undefined,white,no,Mozilla,Netscape,"5.0 (Windows NT 10.0; Win64; x64) AppleWebKit/537.36 (KHTML, like Gecko) Chrome/118.0.0.0 Safari/537.36 OPR/104.0.0.0",xpyriment,,,,,,,,,,legacy,legacy,0,uniform,,,,,0,0,,0,,0,,6,,0,0,,6,0,0,,6,0,0,0,,6,0,0,0,0,21,21,21,21,21,0,21,21,,0,,,13-10-23,13-10-23,19:37:15,Mon Nov 13 2023 19:37:15 GMT+0100 (közép-európai téli idő),The main experiment item,yes,,,,0,0,C:\Users\zymotik\Documents\!research\GNET,0,0,0,no,mono,no,18,no,black,no,no,768,2293,3.5.8,legacy,xpyriment,d8bq7g,,osweb,1.4.0,0,1,,,,,,,,,,,,,,,,,,,,,,,,,,,,,,,,,,,,,0,None,,enter,,None,space,3013,,398,,3013,6975,2,0,legacy,1040,1920,24,1080,24,0,0,1920,,1699900693890,1024,2,48000,-16,experiment,p8sarr4.png,0,even,Win32,,,93,,93,,77,,15825,93,,16239,,,,15825,93,93,121610,121611,123127,118597,16240,121611,118597,,16239,GNET_4stim_recallt_idinput_-_TEST,0,0,0,yes,,1366
undefined,undefined,,undefined,undefined,white,no,Mozilla,Netscape,"5.0 (Windows NT 10.0; Win64; x64) AppleWebKit/537.36 (KHTML, like Gecko) Chrome/118.0.0.0 Safari/537.36 OPR/104.0.0.0",xpyriment,,,,,,,,,,legacy,legacy,0,uniform,,,,,0,0,,0,,0,,6,,0,0,,6,0,0,,6,0,0,0,,6,0,0,0,0,22,22,22,22,22,0,22,22,,0,,,13-10-23,13-10-23,19:37:15,Mon Nov 13 2023 19:37:15 GMT+0100 (közép-európai téli idő),The main experiment item,yes,,,,0,0,C:\Users\zymotik\Documents\!research\GNET,0,0,0,no,mono,no,18,no,black,no,no,768,2293,3.5.8,legacy,xpyriment,d8bq7g,,osweb,1.4.0,1508,1,,,,,,,,,,,,,,,,,,,,,,,,,,,,,,,,,,,,,0,down,,enter,,down,space,1492,,398,,1492,6975,2,0,legacy,1040,1920,24,1080,24,0,0,1920,,1699900693890,1024,2,48000,-16,experiment,p2sarrshacol4.png,0,even,Win32,,,93,,93,,77,,15825,93,,16239,,,,15825,93,93,124627,126144,127661,123131,16240,124627,123131,,16239,GNET_4stim_recallt_idinput_-_TEST,0,0,0,yes,,1366
undefined,undefined,,undefined,undefined,white,no,Mozilla,Netscape,"5.0 (Windows NT 10.0; Win64; x64) AppleWebKit/537.36 (KHTML, like Gecko) Chrome/118.0.0.0 Safari/537.36 OPR/104.0.0.0",xpyriment,,,,,,,,,,legacy,legacy,0,uniform,,,,,0,0,,0,,0,,6,,0,0,,6,0,0,,6,0,0,0,,6,0,0,0,0,23,23,23,23,23,0,23,23,,0,,,13-10-23,13-10-23,19:37:15,Mon Nov 13 2023 19:37:15 GMT+0100 (közép-európai téli idő),The main experiment item,yes,,,,0,0,C:\Users\zymotik\Documents\!research\GNET,0,0,0,no,mono,no,18,no,black,no,no,768,2293,3.5.8,legacy,xpyriment,d8bq7g,,osweb,1.4.0,730,1,,,,,,,,,,,,,,,,,,,,,,,,,,,,,,,,,,,,,0,left,,enter,,left,space,2270,,398,,2270,6975,2,0,legacy,1040,1920,24,1080,24,0,0,1920,,1699900693890,1024,2,48000,-16,experiment,p4sarrshacol1.png,0,even,Win32,,,93,,93,,77,,15825,93,,16239,,,,15825,93,93,129944,130677,132194,127665,16240,129944,127665,,16239,GNET_4stim_recallt_idinput_-_TEST,0,0,0,yes,,1366
undefined,undefined,,undefined,undefined,white,no,Mozilla,Netscape,"5.0 (Windows NT 10.0; Win64; x64) AppleWebKit/537.36 (KHTML, like Gecko) Chrome/118.0.0.0 Safari/537.36 OPR/104.0.0.0",xpyriment,,,,,,,,,,legacy,legacy,0,uniform,,,,,0,0,,0,,0,,6,,0,0,,6,0,0,,6,0,0,0,,6,0,0,0,0,24,24,24,24,24,0,24,24,,0,,,13-10-23,13-10-23,19:37:15,Mon Nov 13 2023 19:37:15 GMT+0100 (közép-európai téli idő),The main experiment item,yes,,,,0,0,C:\Users\zymotik\Documents\!research\GNET,0,0,0,no,mono,no,18,no,black,no,no,768,2293,3.5.8,legacy,xpyriment,d8bq7g,,osweb,1.4.0,75,1,,,,,,,,,,,,,,,,,,,,,,,,,,,,,,,,,,,,,0,down,,enter,,down,space,2925,,398,,2925,6975,2,0,legacy,1040,1920,24,1080,24,0,0,1920,,1699900693890,1024,2,48000,-16,experiment,p1sarrshacol3.png,0,even,Win32,,,93,,93,,77,,15825,93,,16239,,,,15825,93,93,135127,135211,136727,132202,16240,135128,132202,,16239,GNET_4stim_recallt_idinput_-_TEST,0,0,0,yes,,1366
undefined,undefined,,undefined,undefined,white,no,Mozilla,Netscape,"5.0 (Windows NT 10.0; Win64; x64) AppleWebKit/537.36 (KHTML, like Gecko) Chrome/118.0.0.0 Safari/537.36 OPR/104.0.0.0",xpyriment,,,,,,,,,,legacy,legacy,0,uniform,,,,,0,0,,0,,0,,6,,0,0,,6,0,0,,6,0,0,0,,6,0,0,0,0,25,25,25,25,25,0,25,25,,0,,,13-10-23,13-10-23,19:37:15,Mon Nov 13 2023 19:37:15 GMT+0100 (közép-európai téli idő),The main experiment item,yes,,,,0,0,C:\Users\zymotik\Documents\!research\GNET,0,0,0,no,mono,no,18,no,black,no,no,768,2293,3.5.8,legacy,xpyriment,d8bq7g,,osweb,1.4.0,1300,1,,,,,,,,,,,,,,,,,,,,,,,,,,,,,,,,,,,,,0,right,,enter,,right,space,1700,,398,,1700,6975,2,0,legacy,1040,1920,24,1080,24,0,0,1920,,1699900693890,1024,2,48000,-16,experiment,p2sarrsha1.png,0,even,Win32,,,93,,93,,77,,15825,93,,16239,,,,15825,93,93,138444,139761,141278,136731,16240,138445,136731,,16239,GNET_4stim_recallt_idinput_-_TEST,0,0,0,yes,,1366
undefined,undefined,,undefined,undefined,white,no,Mozilla,Netscape,"5.0 (Windows NT 10.0; Win64; x64) AppleWebKit/537.36 (KHTML, like Gecko) Chrome/118.0.0.0 Safari/537.36 OPR/104.0.0.0",xpyriment,,,,,,,,,,legacy,legacy,0,uniform,,,,,0,0,,0,,0,,6,,0,0,,6,0,0,,6,0,0,0,,6,0,0,0,0,26,26,26,26,26,0,26,26,,0,,,13-10-23,13-10-23,19:37:15,Mon Nov 13 2023 19:37:15 GMT+0100 (közép-európai téli idő),The main experiment item,yes,,,,0,0,C:\Users\zymotik\Documents\!research\GNET,0,0,0,no,mono,no,18,no,black,no,no,768,2293,3.5.8,legacy,xpyriment,d8bq7g,,osweb,1.4.0,1114,1,,,,,,,,,,,,,,,,,,,,,,,,,,,,,,,,,,,,,0,right,,enter,,right,space,1886,,398,,1886,6975,2,0,legacy,1040,1920,24,1080,24,0,0,1920,,1699900693890,1024,2,48000,-16,experiment,p3sarr2.png,0,even,Win32,,,93,,93,,77,,15825,93,,16239,,,,15825,93,93,143178,144295,145811,141281,16240,143178,141281,,16239,GNET_4stim_recallt_idinput_-_TEST,0,0,0,yes,,1366
undefined,undefined,,undefined,undefined,white,no,Mozilla,Netscape,"5.0 (Windows NT 10.0; Win64; x64) AppleWebKit/537.36 (KHTML, like Gecko) Chrome/118.0.0.0 Safari/537.36 OPR/104.0.0.0",xpyriment,,,,,,,,,,legacy,legacy,0,uniform,,,,,0,0,,0,,0,,6,,0,0,,6,0,0,,6,0,0,0,,6,0,0,0,0,27,27,27,27,27,0,27,27,,0,,,13-10-23,13-10-23,19:37:15,Mon Nov 13 2023 19:37:15 GMT+0100 (közép-európai téli idő),The main experiment item,yes,,,,0,0,C:\Users\zymotik\Documents\!research\GNET,0,0,0,no,mono,no,18,no,black,no,no,768,2293,3.5.8,legacy,xpyriment,d8bq7g,,osweb,1.4.0,1584,1,,,,,,,,,,,,,,,,,,,,,,,,,,,,,,,,,,,,,0,left,,enter,,left,space,1416,,398,,1416,6975,2,0,legacy,1040,1920,24,1080,24,0,0,1920,,1699900693890,1024,2,48000,-16,experiment,p3sarrshacol3.png,0,even,Win32,,,93,,93,,77,,15825,93,,16239,,,,15825,93,93,147245,148845,150361,145815,16240,147245,145815,,16239,GNET_4stim_recallt_idinput_-_TEST,0,0,0,yes,,1366
undefined,undefined,,undefined,undefined,white,no,Mozilla,Netscape,"5.0 (Windows NT 10.0; Win64; x64) AppleWebKit/537.36 (KHTML, like Gecko) Chrome/118.0.0.0 Safari/537.36 OPR/104.0.0.0",xpyriment,,,,,,,,,,legacy,legacy,0,uniform,,,,,0,0,,0,,0,,6,,0,0,,6,0,0,,6,0,0,0,,6,0,0,0,0,28,28,28,28,28,0,28,28,,0,,,13-10-23,13-10-23,19:37:15,Mon Nov 13 2023 19:37:15 GMT+0100 (közép-európai téli idő),The main experiment item,yes,,,,0,0,C:\Users\zymotik\Documents\!research\GNET,0,0,0,no,mono,no,18,no,black,no,no,768,2293,3.5.8,legacy,xpyriment,d8bq7g,,osweb,1.4.0,1246,1,,,,,,,,,,,,,,,,,,,,,,,,,,,,,,,,,,,,,0,down,,enter,,down,space,1754,,398,,1754,6975,2,0,legacy,1040,1920,24,1080,24,0,0,1920,,1699900693890,1024,2,48000,-16,experiment,p2sarrcol4.png,0,even,Win32,,,93,,93,,77,,15825,93,,16239,,,,15825,93,93,152128,153378,154895,150365,16240,152129,150365,,16239,GNET_4stim_recallt_idinput_-_TEST,0,0,0,yes,,1366
undefined,undefined,,undefined,undefined,white,no,Mozilla,Netscape,"5.0 (Windows NT 10.0; Win64; x64) AppleWebKit/537.36 (KHTML, like Gecko) Chrome/118.0.0.0 Safari/537.36 OPR/104.0.0.0",xpyriment,,,,,,,,,,legacy,legacy,0,uniform,,,,,0,0,,0,,0,,6,,0,0,,6,0,0,,6,0,0,0,,6,0,0,0,0,29,29,29,29,29,0,29,29,,0,,,13-10-23,13-10-23,19:37:15,Mon Nov 13 2023 19:37:15 GMT+0100 (közép-európai téli idő),The main experiment item,yes,,,,0,0,C:\Users\zymotik\Documents\!research\GNET,0,0,0,no,mono,no,18,no,black,no,no,768,2293,3.5.8,legacy,xpyriment,d8bq7g,,osweb,1.4.0,2292,1,,,,,,,,,,,,,,,,,,,,,,,,,,,,,,,,,,,,,0,right,,enter,,right,space,708,,398,,708,6975,2,0,legacy,1040,1920,24,1080,24,0,0,1920,,1699900693890,1024,2,48000,-16,experiment,p8sarr2.png,0,even,Win32,,,93,,93,,77,,15825,93,,16239,,,,15825,93,93,155612,157912,159428,154899,16240,155612,154899,,16239,GNET_4stim_recallt_idinput_-_TEST,0,0,0,yes,,1366
undefined,undefined,,undefined,undefined,white,no,Mozilla,Netscape,"5.0 (Windows NT 10.0; Win64; x64) AppleWebKit/537.36 (KHTML, like Gecko) Chrome/118.0.0.0 Safari/537.36 OPR/104.0.0.0",xpyriment,,,,,,,,,,legacy,legacy,0,uniform,,,,,0,0,,0,,0,,6,,0,0,,6,0,0,,6,0,0,0,,6,0,0,0,0,30,30,30,30,30,0,30,30,,0,,,13-10-23,13-10-23,19:37:15,Mon Nov 13 2023 19:37:15 GMT+0100 (közép-európai téli idő),The main experiment item,yes,,,,0,0,C:\Users\zymotik\Documents\!research\GNET,0,0,0,no,mono,no,18,no,black,no,no,768,2293,3.5.8,legacy,xpyriment,d8bq7g,,osweb,1.4.0,1474,1,,,,,,,,,,,,,,,,,,,,,,,,,,,,,,,,,,,,,0,left,,enter,,left,space,1526,,398,,1526,6975,2,0,legacy,1040,1920,24,1080,24,0,0,1920,,1699900693890,1024,2,48000,-16,experiment,p7sarr1.png,0,even,Win32,,,93,,93,,77,,15825,93,,16239,,,,15825,93,93,160962,162445,163962,159433,16240,160962,159433,,16239,GNET_4stim_recallt_idinput_-_TEST,0,0,0,yes,,1366
undefined,undefined,,undefined,undefined,white,no,Mozilla,Netscape,"5.0 (Windows NT 10.0; Win64; x64) AppleWebKit/537.36 (KHTML, like Gecko) Chrome/118.0.0.0 Safari/537.36 OPR/104.0.0.0",xpyriment,,,,,,,,,,legacy,legacy,0,uniform,,,,,0,0,,0,,0,,6,,0,0,,6,0,0,,6,0,0,0,,6,0,0,0,0,31,31,31,31,31,0,31,31,,0,,,13-10-23,13-10-23,19:37:15,Mon Nov 13 2023 19:37:15 GMT+0100 (közép-európai téli idő),The main experiment item,yes,,,,0,0,C:\Users\zymotik\Documents\!research\GNET,0,0,0,no,mono,no,18,no,black,no,no,768,2293,3.5.8,legacy,xpyriment,d8bq7g,,osweb,1.4.0,1390,1,,,,,,,,,,,,,,,,,,,,,,,,,,,,,,,,,,,,,0,right,,enter,,right,space,1610,,398,,1610,6975,2,0,legacy,1040,1920,24,1080,24,0,0,1920,,1699900693890,1024,2,48000,-16,experiment,p1sarrcol4.png,0,even,Win32,,,93,,93,,77,,15825,93,,16239,,,,15825,93,93,165579,166979,168495,163965,16240,165579,163965,,16239,GNET_4stim_recallt_idinput_-_TEST,0,0,0,yes,,1366
undefined,undefined,,undefined,undefined,white,no,Mozilla,Netscape,"5.0 (Windows NT 10.0; Win64; x64) AppleWebKit/537.36 (KHTML, like Gecko) Chrome/118.0.0.0 Safari/537.36 OPR/104.0.0.0",xpyriment,,,,,,,,,,legacy,legacy,0,uniform,,,,,0,0,,0,,0,,6,,0,0,,6,0,0,,6,0,0,0,,6,0,0,0,0,32,32,32,32,32,0,32,32,,0,,,13-10-23,13-10-23,19:37:15,Mon Nov 13 2023 19:37:15 GMT+0100 (közép-európai téli idő),The main experiment item,yes,,,,0,0,C:\Users\zymotik\Documents\!research\GNET,0,0,0,no,mono,no,18,no,black,no,no,768,2293,3.5.8,legacy,xpyriment,d8bq7g,,osweb,1.4.0,0,1,,,,,,,,,,,,,,,,,,,,,,,,,,,,,,,,,,,,,0,None,,enter,,None,space,3013,,398,,3013,6975,2,0,legacy,1040,1920,24,1080,24,0,0,1920,,1699900693890,1024,2,48000,-16,experiment,p3sarrsha4.png,0,even,Win32,,,93,,93,,77,,15825,93,,16239,,,,15825,93,93,171512,171513,173029,168499,16240,171513,168499,,16239,GNET_4stim_recallt_idinput_-_TEST,0,0,0,yes,,1366
undefined,undefined,,undefined,undefined,white,no,Mozilla,Netscape,"5.0 (Windows NT 10.0; Win64; x64) AppleWebKit/537.36 (KHTML, like Gecko) Chrome/118.0.0.0 Safari/537.36 OPR/104.0.0.0",xpyriment,,,,,,,,,,legacy,legacy,0,uniform,,,,,0,0,,0,,0,,6,,0,0,,6,0,0,,6,0,0,0,,6,0,0,0,0,33,33,33,33,33,0,33,33,,0,,,13-10-23,13-10-23,19:37:15,Mon Nov 13 2023 19:37:15 GMT+0100 (közép-európai téli idő),The main experiment item,yes,,,,0,0,C:\Users\zymotik\Documents\!research\GNET,0,0,0,no,mono,no,18,no,black,no,no,768,2293,3.5.8,legacy,xpyriment,d8bq7g,,osweb,1.4.0,1754,1,,,,,,,,,,,,,,,,,,,,,,,,,,,,,,,,,,,,,0,right,,enter,,right,space,1246,,398,,1246,6975,2,0,legacy,1040,1920,24,1080,24,0,0,1920,,1699900693890,1024,2,48000,-16,experiment,p3sarr1.png,0,even,Win32,,,93,,93,,77,,15825,93,,16239,,,,15825,93,93,174279,176046,177563,173033,16240,174280,173033,,16239,GNET_4stim_recallt_idinput_-_TEST,0,0,0,yes,,1366
undefined,undefined,,undefined,undefined,white,no,Mozilla,Netscape,"5.0 (Windows NT 10.0; Win64; x64) AppleWebKit/537.36 (KHTML, like Gecko) Chrome/118.0.0.0 Safari/537.36 OPR/104.0.0.0",xpyriment,,,,,,,,,,legacy,legacy,0,uniform,,,,,0,0,,0,,0,,6,,0,0,,6,0,0,,6,0,0,0,,6,0,0,0,0,34,34,34,34,34,0,34,34,,0,,,13-10-23,13-10-23,19:37:15,Mon Nov 13 2023 19:37:15 GMT+0100 (közép-európai téli idő),The main experiment item,yes,,,,0,0,C:\Users\zymotik\Documents\!research\GNET,0,0,0,no,mono,no,18,no,black,no,no,768,2293,3.5.8,legacy,xpyriment,d8bq7g,,osweb,1.4.0,1423,1,,,,,,,,,,,,,,,,,,,,,,,,,,,,,,,,,,,,,0,down,,enter,,down,space,1577,,398,,1577,6975,2,0,legacy,1040,1920,24,1080,24,0,0,1920,,1699900693890,1024,2,48000,-16,experiment,p2sarrsha3.png,0,even,Win32,,,93,,93,,77,,15825,93,,16239,,,,15825,93,93,179146,180579,182096,177566,16240,179146,177566,,16239,GNET_4stim_recallt_idinput_-_TEST,0,0,0,yes,,1366
undefined,undefined,,undefined,undefined,white,no,Mozilla,Netscape,"5.0 (Windows NT 10.0; Win64; x64) AppleWebKit/537.36 (KHTML, like Gecko) Chrome/118.0.0.0 Safari/537.36 OPR/104.0.0.0",xpyriment,,,,,,,,,,legacy,legacy,0,uniform,,,,,0,0,,0,,0,,6,,0,0,,6,0,0,,6,0,0,0,,6,0,0,0,0,35,35,35,35,35,0,35,35,,0,,,13-10-23,13-10-23,19:37:15,Mon Nov 13 2023 19:37:15 GMT+0100 (közép-európai téli idő),The main experiment item,yes,,,,0,0,C:\Users\zymotik\Documents\!research\GNET,0,0,0,no,mono,no,18,no,black,no,no,768,2293,3.5.8,legacy,xpyriment,d8bq7g,,osweb,1.4.0,1749,1,,,,,,,,,,,,,,,,,,,,,,,,,,,,,,,,,,,,,0,right,,enter,,right,space,1251,,398,,1251,6975,2,0,legacy,1040,1920,24,1080,24,0,0,1920,,1699900693890,1024,2,48000,-16,experiment,p9sarr3.png,0,even,Win32,,,93,,93,,77,,15825,93,,16239,,,,15825,93,93,183363,185113,186630,182100,16240,183363,182100,,16239,GNET_4stim_recallt_idinput_-_TEST,0,0,0,yes,,1366
undefined,undefined,,undefined,undefined,white,no,Mozilla,Netscape,"5.0 (Windows NT 10.0; Win64; x64) AppleWebKit/537.36 (KHTML, like Gecko) Chrome/118.0.0.0 Safari/537.36 OPR/104.0.0.0",xpyriment,,,,,,,,,,legacy,legacy,0,uniform,,,,,0,0,,0,,0,,6,,0,0,,6,0,0,,6,0,0,0,,6,0,0,0,0,36,36,36,36,36,0,36,36,,0,,,13-10-23,13-10-23,19:37:15,Mon Nov 13 2023 19:37:15 GMT+0100 (közép-európai téli idő),The main experiment item,yes,,,,0,0,C:\Users\zymotik\Documents\!research\GNET,0,0,0,no,mono,no,18,no,black,no,no,768,2293,3.5.8,legacy,xpyriment,d8bq7g,,osweb,1.4.0,1322,1,,,,,,,,,,,,,,,,,,,,,,,,,,,,,,,,,,,,,0,left,,enter,,left,space,1678,,398,,1678,6975,2,0,legacy,1040,1920,24,1080,24,0,0,1920,,1699900693890,1024,2,48000,-16,experiment,p4sarrcol1.png,0,even,Win32,,,93,,93,,77,,15825,93,,16239,,,,15825,93,93,188313,189647,191163,186633,16240,188313,186633,,16239,GNET_4stim_recallt_idinput_-_TEST,0,0,0,yes,,1366
undefined,undefined,,undefined,undefined,white,no,Mozilla,Netscape,"5.0 (Windows NT 10.0; Win64; x64) AppleWebKit/537.36 (KHTML, like Gecko) Chrome/118.0.0.0 Safari/537.36 OPR/104.0.0.0",xpyriment,,,,,,,,,,legacy,legacy,0,uniform,,,,,0,0,,0,,0,,6,,0,0,,6,0,0,,6,0,0,0,,6,0,0,0,0,37,37,37,37,37,0,37,37,,0,,,13-10-23,13-10-23,19:37:15,Mon Nov 13 2023 19:37:15 GMT+0100 (közép-európai téli idő),The main experiment item,yes,,,,0,0,C:\Users\zymotik\Documents\!research\GNET,0,0,0,no,mono,no,18,no,black,no,no,768,2293,3.5.8,legacy,xpyriment,d8bq7g,,osweb,1.4.0,1680,1,,,,,,,,,,,,,,,,,,,,,,,,,,,,,,,,,,,,,0,right,,enter,,right,space,1320,,398,,1320,6975,2,0,legacy,1040,1920,24,1080,24,0,0,1920,,1699900693890,1024,2,48000,-16,experiment,p3sarr3.png,0,even,Win32,,,93,,93,,77,,15825,93,,16239,,,,15825,93,93,192497,194180,195697,191167,16240,192497,191167,,16239,GNET_4stim_recallt_idinput_-_TEST,0,0,0,yes,,1366
undefined,undefined,,undefined,undefined,white,no,Mozilla,Netscape,"5.0 (Windows NT 10.0; Win64; x64) AppleWebKit/537.36 (KHTML, like Gecko) Chrome/118.0.0.0 Safari/537.36 OPR/104.0.0.0",xpyriment,,,,,,,,,,legacy,legacy,0,uniform,,,,,0,0,,0,,0,,6,,0,0,,6,0,0,,6,0,0,0,,6,0,0,0,0,38,38,38,38,38,0,38,38,,0,,,13-10-23,13-10-23,19:37:15,Mon Nov 13 2023 19:37:15 GMT+0100 (közép-európai téli idő),The main experiment item,yes,,,,0,0,C:\Users\zymotik\Documents\!research\GNET,0,0,0,no,mono,no,18,no,black,no,no,768,2293,3.5.8,legacy,xpyriment,d8bq7g,,osweb,1.4.0,1686,1,,,,,,,,,,,,,,,,,,,,,,,,,,,,,,,,,,,,,0,down,,enter,,down,space,1314,,398,,1314,6975,2,0,legacy,1040,1920,24,1080,24,0,0,1920,,1699900693890,1024,2,48000,-16,experiment,p2sarr3.png,0,even,Win32,,,93,,93,,77,,15825,93,,16239,,,,15825,93,93,197030,198730,200247,195701,16240,197030,195701,,16239,GNET_4stim_recallt_idinput_-_TEST,0,0,0,yes,,1366
undefined,undefined,,undefined,undefined,white,no,Mozilla,Netscape,"5.0 (Windows NT 10.0; Win64; x64) AppleWebKit/537.36 (KHTML, like Gecko) Chrome/118.0.0.0 Safari/537.36 OPR/104.0.0.0",xpyriment,,,,,,,,,,legacy,legacy,0,uniform,,,,,0,0,,0,,0,,6,,0,0,,6,0,0,,6,0,0,0,,6,0,0,0,0,39,39,39,39,39,0,39,39,,0,,,13-10-23,13-10-23,19:37:15,Mon Nov 13 2023 19:37:15 GMT+0100 (közép-európai téli idő),The main experiment item,yes,,,,0,0,C:\Users\zymotik\Documents\!research\GNET,0,0,0,no,mono,no,18,no,black,no,no,768,2293,3.5.8,legacy,xpyriment,d8bq7g,,osweb,1.4.0,1385,1,,,,,,,,,,,,,,,,,,,,,,,,,,,,,,,,,,,,,0,right,,enter,,right,space,1615,,398,,1615,6975,2,0,legacy,1040,1920,24,1080,24,0,0,1920,,1699900693890,1024,2,48000,-16,experiment,p4sarr2.png,0,even,Win32,,,93,,93,,77,,15825,93,,16239,,,,15825,93,93,201880,203280,204797,200256,16240,201881,200256,,16239,GNET_4stim_recallt_idinput_-_TEST,0,0,0,yes,,1366
undefined,undefined,,undefined,undefined,white,no,Mozilla,Netscape,"5.0 (Windows NT 10.0; Win64; x64) AppleWebKit/537.36 (KHTML, like Gecko) Chrome/118.0.0.0 Safari/537.36 OPR/104.0.0.0",xpyriment,,,,,,,,,,legacy,legacy,0,uniform,,,,,0,0,,0,,0,,6,,0,0,,6,0,0,,6,0,0,0,,6,0,0,0,0,40,40,40,40,40,0,40,40,,0,,,13-10-23,13-10-23,19:37:15,Mon Nov 13 2023 19:37:15 GMT+0100 (közép-európai téli idő),The main experiment item,yes,,,,0,0,C:\Users\zymotik\Documents\!research\GNET,0,0,0,no,mono,no,18,no,black,no,no,768,2293,3.5.8,legacy,xpyriment,d8bq7g,,osweb,1.4.0,587,1,,,,,,,,,,,,,,,,,,,,,,,,,,,,,,,,,,,,,0,left,,enter,,left,space,2413,,398,,2413,6975,2,0,legacy,1040,1920,24,1080,24,0,0,1920,,1699900693890,1024,2,48000,-16,experiment,p2sarrshacol3.png,0,even,Win32,,,93,,93,,77,,15825,93,,16239,,,,15825,93,93,207230,207831,209347,204801,16240,207231,204801,,16239,GNET_4stim_recallt_idinput_-_TEST,0,0,0,yes,,1366
undefined,undefined,,undefined,undefined,white,no,Mozilla,Netscape,"5.0 (Windows NT 10.0; Win64; x64) AppleWebKit/537.36 (KHTML, like Gecko) Chrome/118.0.0.0 Safari/537.36 OPR/104.0.0.0",xpyriment,,,,,,,,,,legacy,legacy,0,uniform,,,,,0,0,,0,,0,,6,,0,0,,6,0,0,,6,0,0,0,,6,0,0,0,0,41,41,41,41,41,0,41,41,,0,,,13-10-23,13-10-23,19:37:15,Mon Nov 13 2023 19:37:15 GMT+0100 (közép-európai téli idő),The main experiment item,yes,,,,0,0,C:\Users\zymotik\Documents\!research\GNET,0,0,0,no,mono,no,18,no,black,no,no,768,2293,3.5.8,legacy,xpyriment,d8bq7g,,osweb,1.4.0,632,1,,,,,,,,,,,,,,,,,,,,,,,,,,,,,,,,,,,,,0,right,,enter,,right,space,2368,,398,,2368,6975,2,0,legacy,1040,1920,24,1080,24,0,0,1920,,1699900693890,1024,2,48000,-16,experiment,p2sarrcol2.png,0,even,Win32,,,93,,93,,77,,15825,93,,16239,,,,15825,93,93,211731,212364,213881,209351,16240,211731,209351,,16239,GNET_4stim_recallt_idinput_-_TEST,0,0,0,yes,,1366
undefined,undefined,,undefined,undefined,white,no,Mozilla,Netscape,"5.0 (Windows NT 10.0; Win64; x64) AppleWebKit/537.36 (KHTML, like Gecko) Chrome/118.0.0.0 Safari/537.36 OPR/104.0.0.0",xpyriment,,,,,,,,,,legacy,legacy,0,uniform,,,,,0,0,,0,,0,,6,,0,0,,6,0,0,,6,0,0,0,,6,0,0,0,0,42,42,42,42,42,0,42,42,,0,,,13-10-23,13-10-23,19:37:15,Mon Nov 13 2023 19:37:15 GMT+0100 (közép-európai téli idő),The main experiment item,yes,,,,0,0,C:\Users\zymotik\Documents\!research\GNET,0,0,0,no,mono,no,18,no,black,no,no,768,2293,3.5.8,legacy,xpyriment,d8bq7g,,osweb,1.4.0,982,1,,,,,,,,,,,,,,,,,,,,,,,,,,,,,,,,,,,,,0,left,,enter,,left,space,2018,,398,,2018,6975,2,0,legacy,1040,1920,24,1080,24,0,0,1920,,1699900693890,1024,2,48000,-16,experiment,p4sarrsha3.png,0,even,Win32,,,93,,93,,77,,15825,93,,16239,,,,15825,93,93,215914,216914,218431,213885,16240,215915,213885,,16239,GNET_4stim_recallt_idinput_-_TEST,0,0,0,yes,,1366
undefined,undefined,,undefined,undefined,white,no,Mozilla,Netscape,"5.0 (Windows NT 10.0; Win64; x64) AppleWebKit/537.36 (KHTML, like Gecko) Chrome/118.0.0.0 Safari/537.36 OPR/104.0.0.0",xpyriment,,,,,,,,,,legacy,legacy,0,uniform,,,,,0,0,,0,,0,,6,,0,0,,6,0,0,,6,0,0,0,,6,0,0,0,0,43,43,43,43,43,0,43,43,,0,,,13-10-23,13-10-23,19:37:15,Mon Nov 13 2023 19:37:15 GMT+0100 (közép-európai téli idő),The main experiment item,yes,,,,0,0,C:\Users\zymotik\Documents\!research\GNET,0,0,0,no,mono,no,18,no,black,no,no,768,2293,3.5.8,legacy,xpyriment,d8bq7g,,osweb,1.4.0,44,1,,,,,,,,,,,,,,,,,,,,,,,,,,,,,,,,,,,,,0,right,,enter,,right,space,2956,,398,,2956,6975,2,0,legacy,1040,1920,24,1080,24,0,0,1920,,1699900693890,1024,2,48000,-16,experiment,p4sarrsha1.png,0,even,Win32,,,93,,93,,77,,15825,93,,16239,,,,15825,93,93,221398,221448,222964,218435,16240,221398,218435,,16239,GNET_4stim_recallt_idinput_-_TEST,0,0,0,yes,,1366
undefined,undefined,,undefined,undefined,white,no,Mozilla,Netscape,"5.0 (Windows NT 10.0; Win64; x64) AppleWebKit/537.36 (KHTML, like Gecko) Chrome/118.0.0.0 Safari/537.36 OPR/104.0.0.0",xpyriment,,,,,,,,,,legacy,legacy,0,uniform,,,,,0,0,,0,,0,,6,,0,0,,6,0,0,,6,0,0,0,,6,0,0,0,0,44,44,44,44,44,0,44,44,,0,,,13-10-23,13-10-23,19:37:15,Mon Nov 13 2023 19:37:15 GMT+0100 (közép-európai téli idő),The main experiment item,yes,,,,0,0,C:\Users\zymotik\Documents\!research\GNET,0,0,0,no,mono,no,18,no,black,no,no,768,2293,3.5.8,legacy,xpyriment,d8bq7g,,osweb,1.4.0,1457,1,,,,,,,,,,,,,,,,,,,,,,,,,,,,,,,,,,,,,0,right,,enter,,right,space,1543,,398,,1543,6975,2,0,legacy,1040,1920,24,1080,24,0,0,1920,,1699900693890,1024,2,48000,-16,experiment,p1sarrsha3.png,0,even,Win32,,,93,,93,,77,,15825,93,,16239,,,,15825,93,93,224515,225981,227498,222968,16240,224515,222968,,16239,GNET_4stim_recallt_idinput_-_TEST,0,0,0,yes,,1366
undefined,undefined,,undefined,undefined,white,no,Mozilla,Netscape,"5.0 (Windows NT 10.0; Win64; x64) AppleWebKit/537.36 (KHTML, like Gecko) Chrome/118.0.0.0 Safari/537.36 OPR/104.0.0.0",xpyriment,,,,,,,,,,legacy,legacy,0,uniform,,,,,0,0,,0,,0,,6,,0,0,,6,0,0,,6,0,0,0,,6,0,0,0,0,45,45,45,45,45,0,45,45,,0,,,13-10-23,13-10-23,19:37:15,Mon Nov 13 2023 19:37:15 GMT+0100 (közép-európai téli idő),The main experiment item,yes,,,,0,0,C:\Users\zymotik\Documents\!research\GNET,0,0,0,no,mono,no,18,no,black,no,no,768,2293,3.5.8,legacy,xpyriment,d8bq7g,,osweb,1.4.0,1359,1,,,,,,,,,,,,,,,,,,,,,,,,,,,,,,,,,,,,,0,down,,enter,,down,space,1641,,398,,1641,6975,2,0,legacy,1040,1920,24,1080,24,0,0,1920,,1699900693890,1024,2,48000,-16,experiment,p3sarrshacol2.png,0,even,Win32,,,93,,93,,77,,15825,93,,16239,,,,15825,93,93,229148,230515,232031,227502,16240,229148,227502,,16239,GNET_4stim_recallt_idinput_-_TEST,0,0,0,yes,,1366
undefined,undefined,,undefined,undefined,white,no,Mozilla,Netscape,"5.0 (Windows NT 10.0; Win64; x64) AppleWebKit/537.36 (KHTML, like Gecko) Chrome/118.0.0.0 Safari/537.36 OPR/104.0.0.0",xpyriment,,,,,,,,,,legacy,legacy,0,uniform,,,,,0,0,,0,,0,,6,,0,0,,6,0,0,,6,0,0,0,,6,0,0,0,0,46,46,46,46,46,0,46,46,,0,,,13-10-23,13-10-23,19:37:15,Mon Nov 13 2023 19:37:15 GMT+0100 (közép-európai téli idő),The main experiment item,yes,,,,0,0,C:\Users\zymotik\Documents\!research\GNET,0,0,0,no,mono,no,18,no,black,no,no,768,2293,3.5.8,legacy,xpyriment,d8bq7g,,osweb,1.4.0,76,1,,,,,,,,,,,,,,,,,,,,,,,,,,,,,,,,,,,,,0,left,,enter,,left,space,2924,,398,,2924,6975,2,0,legacy,1040,1920,24,1080,24,0,0,1920,,1699900693890,1024,2,48000,-16,experiment,p3sarrsha1.png,0,even,Win32,,,93,,93,,77,,15825,93,,16239,,,,15825,93,93,234965,235048,236565,232035,16240,234965,232035,,16239,GNET_4stim_recallt_idinput_-_TEST,0,0,0,yes,,1366
undefined,undefined,,undefined,undefined,white,no,Mozilla,Netscape,"5.0 (Windows NT 10.0; Win64; x64) AppleWebKit/537.36 (KHTML, like Gecko) Chrome/118.0.0.0 Safari/537.36 OPR/104.0.0.0",xpyriment,,,,,,,,,,legacy,legacy,0,uniform,,,,,0,0,,0,,0,,6,,0,0,,6,0,0,,6,0,0,0,,6,0,0,0,0,47,47,47,47,47,0,47,47,,0,,,13-10-23,13-10-23,19:37:15,Mon Nov 13 2023 19:37:15 GMT+0100 (közép-európai téli idő),The main experiment item,yes,,,,0,0,C:\Users\zymotik\Documents\!research\GNET,0,0,0,no,mono,no,18,no,black,no,no,768,2293,3.5.8,legacy,xpyriment,d8bq7g,,osweb,1.4.0,792,1,,,,,,,,,,,,,,,,,,,,,,,,,,,,,,,,,,,,,0,left,,enter,,left,space,2208,,398,,2208,6975,2,0,legacy,1040,1920,24,1080,24,0,0,1920,,1699900693890,1024,2,48000,-16,experiment,p1sarrcol2.png,0,even,Win32,,,93,,93,,77,,15825,93,,16239,,,,15825,93,93,238798,239599,241115,236574,16240,238799,236574,,16239,GNET_4stim_recallt_idinput_-_TEST,0,0,0,yes,,1366
undefined,undefined,,undefined,undefined,white,no,Mozilla,Netscape,"5.0 (Windows NT 10.0; Win64; x64) AppleWebKit/537.36 (KHTML, like Gecko) Chrome/118.0.0.0 Safari/537.36 OPR/104.0.0.0",xpyriment,,,,,,,,,,legacy,legacy,0,uniform,,,,,0,0,,0,,0,,6,,0,0,,6,0,0,,6,0,0,0,,6,0,0,0,0,48,48,48,48,48,0,48,48,,0,,,13-10-23,13-10-23,19:37:15,Mon Nov 13 2023 19:37:15 GMT+0100 (közép-európai téli idő),The main experiment item,yes,,,,0,0,C:\Users\zymotik\Documents\!research\GNET,0,0,0,no,mono,no,18,no,black,no,no,768,2293,3.5.8,legacy,xpyriment,d8bq7g,,osweb,1.4.0,912,1,,,,,,,,,,,,,,,,,,,,,,,,,,,,,,,,,,,,,0,down,,enter,,down,space,2088,,398,,2088,6975,2,0,legacy,1040,1920,24,1080,24,0,0,1920,,1699900693890,1024,2,48000,-16,experiment,p6sarr4.png,0,even,Win32,,,93,,93,,77,,15825,93,,16239,,,,15825,93,93,243215,244132,245649,241119,16240,243216,241119,,16239,GNET_4stim_recallt_idinput_-_TEST,0,0,0,yes,,1366
undefined,undefined,,undefined,undefined,white,no,Mozilla,Netscape,"5.0 (Windows NT 10.0; Win64; x64) AppleWebKit/537.36 (KHTML, like Gecko) Chrome/118.0.0.0 Safari/537.36 OPR/104.0.0.0",xpyriment,,,,,,,,,,legacy,legacy,0,uniform,,,,,0,0,,0,,0,,6,,0,0,,6,0,0,,6,0,0,0,,6,0,0,0,0,49,49,49,49,49,0,49,49,,0,,,13-10-23,13-10-23,19:37:15,Mon Nov 13 2023 19:37:15 GMT+0100 (közép-európai téli idő),The main experiment item,yes,,,,0,0,C:\Users\zymotik\Documents\!research\GNET,0,0,0,no,mono,no,18,no,black,no,no,768,2293,3.5.8,legacy,xpyriment,d8bq7g,,osweb,1.4.0,1301,1,,,,,,,,,,,,,,,,,,,,,,,,,,,,,,,,,,,,,0,right,,enter,,right,space,1699,,398,,1699,6975,2,0,legacy,1040,1920,24,1080,24,0,0,1920,,1699900693890,1024,2,48000,-16,experiment,p6sarr3.png,0,even,Win32,,,93,,93,,77,,15825,93,,16239,,,,15825,93,93,247366,248682,250199,245652,16240,247366,245652,,16239,GNET_4stim_recallt_idinput_-_TEST,0,0,0,yes,,1366
undefined,undefined,,undefined,undefined,white,no,Mozilla,Netscape,"5.0 (Windows NT 10.0; Win64; x64) AppleWebKit/537.36 (KHTML, like Gecko) Chrome/118.0.0.0 Safari/537.36 OPR/104.0.0.0",xpyriment,,,,,,,,,,legacy,legacy,0,uniform,,,,,0,0,,0,,0,,6,,0,0,,6,0,0,,6,0,0,0,,6,0,0,0,0,50,50,50,50,50,0,50,50,,0,,,13-10-23,13-10-23,19:37:15,Mon Nov 13 2023 19:37:15 GMT+0100 (közép-európai téli idő),The main experiment item,yes,,,,0,0,C:\Users\zymotik\Documents\!research\GNET,0,0,0,no,mono,no,18,no,black,no,no,768,2293,3.5.8,legacy,xpyriment,d8bq7g,,osweb,1.4.0,2036,1,,,,,,,,,,,,,,,,,,,,,,,,,,,,,,,,,,,,,0,right,,enter,,right,space,964,,398,,964,6975,2,0,legacy,1040,1920,24,1080,24,0,0,1920,,1699900693890,1024,2,48000,-16,experiment,p4sarr3.png,0,even,Win32,,,93,,93,,77,,15825,93,,16239,,,,15825,93,93,251182,253232,254749,250203,16240,251183,250203,,16239,GNET_4stim_recallt_idinput_-_TEST,0,0,0,yes,,1366
undefined,undefined,,undefined,undefined,white,no,Mozilla,Netscape,"5.0 (Windows NT 10.0; Win64; x64) AppleWebKit/537.36 (KHTML, like Gecko) Chrome/118.0.0.0 Safari/537.36 OPR/104.0.0.0",xpyriment,,,,,,,,,,legacy,legacy,0,uniform,,,,,0,0,,0,,0,,6,,0,0,,6,0,0,,6,0,0,0,,6,0,0,0,0,51,51,51,51,51,0,51,51,,0,,,13-10-23,13-10-23,19:37:15,Mon Nov 13 2023 19:37:15 GMT+0100 (közép-európai téli idő),The main experiment item,yes,,,,0,0,C:\Users\zymotik\Documents\!research\GNET,0,0,0,no,mono,no,18,no,black,no,no,768,2293,3.5.8,legacy,xpyriment,d8bq7g,,osweb,1.4.0,450,1,,,,,,,,,,,,,,,,,,,,,,,,,,,,,,,,,,,,,0,right,,enter,,right,space,2550,,398,,2550,6975,2,0,legacy,1040,1920,24,1080,24,0,0,1920,,1699900693890,1024,2,48000,-16,experiment,p1sarrsha2.png,0,even,Win32,,,93,,93,,77,,15825,93,,16239,,,,15825,93,93,257316,257783,259299,254753,16240,257316,254753,,16239,GNET_4stim_recallt_idinput_-_TEST,0,0,0,yes,,1366
undefined,undefined,,undefined,undefined,white,no,Mozilla,Netscape,"5.0 (Windows NT 10.0; Win64; x64) AppleWebKit/537.36 (KHTML, like Gecko) Chrome/118.0.0.0 Safari/537.36 OPR/104.0.0.0",xpyriment,,,,,,,,,,legacy,legacy,0,uniform,,,,,0,0,,0,,0,,6,,0,0,,6,0,0,,6,0,0,0,,6,0,0,0,0,52,52,52,52,52,0,52,52,,0,,,13-10-23,13-10-23,19:37:15,Mon Nov 13 2023 19:37:15 GMT+0100 (közép-európai téli idő),The main experiment item,yes,,,,0,0,C:\Users\zymotik\Documents\!research\GNET,0,0,0,no,mono,no,18,no,black,no,no,768,2293,3.5.8,legacy,xpyriment,d8bq7g,,osweb,1.4.0,1192,1,,,,,,,,,,,,,,,,,,,,,,,,,,,,,,,,,,,,,0,right,,enter,,right,space,1808,,398,,1808,6975,2,0,legacy,1040,1920,24,1080,24,0,0,1920,,1699900693890,1024,2,48000,-16,experiment,p2sarrsha4.png,0,even,Win32,,,93,,93,,77,,15825,93,,16239,,,,15825,93,93,261116,262316,263833,259303,16240,261116,259303,,16239,GNET_4stim_recallt_idinput_-_TEST,0,0,0,yes,,1366
undefined,undefined,,undefined,undefined,white,no,Mozilla,Netscape,"5.0 (Windows NT 10.0; Win64; x64) AppleWebKit/537.36 (KHTML, like Gecko) Chrome/118.0.0.0 Safari/537.36 OPR/104.0.0.0",xpyriment,,,,,,,,,,legacy,legacy,0,uniform,,,,,0,0,,0,,0,,6,,0,0,,6,0,0,,6,0,0,0,,6,0,0,0,0,53,53,53,53,53,0,53,53,,0,,,13-10-23,13-10-23,19:37:15,Mon Nov 13 2023 19:37:15 GMT+0100 (közép-európai téli idő),The main experiment item,yes,,,,0,0,C:\Users\zymotik\Documents\!research\GNET,0,0,0,no,mono,no,18,no,black,no,no,768,2293,3.5.8,legacy,xpyriment,d8bq7g,,osweb,1.4.0,422,1,,,,,,,,,,,,,,,,,,,,,,,,,,,,,,,,,,,,,0,right,,enter,,right,space,2578,,398,,2578,6975,2,0,legacy,1040,1920,24,1080,24,0,0,1920,,1699900693890,1024,2,48000,-16,experiment,p3sarrcol1.png,0,even,Win32,,,93,,93,,77,,15825,93,,16239,,,,15825,93,93,266416,266850,268366,263837,16240,266417,263837,,16239,GNET_4stim_recallt_idinput_-_TEST,0,0,0,yes,,1366
undefined,undefined,,undefined,undefined,white,no,Mozilla,Netscape,"5.0 (Windows NT 10.0; Win64; x64) AppleWebKit/537.36 (KHTML, like Gecko) Chrome/118.0.0.0 Safari/537.36 OPR/104.0.0.0",xpyriment,,,,,,,,,,legacy,legacy,0,uniform,,,,,0,0,,0,,0,,6,,0,0,,6,0,0,,6,0,0,0,,6,0,0,0,0,54,54,54,54,54,0,54,54,,0,,,13-10-23,13-10-23,19:37:15,Mon Nov 13 2023 19:37:15 GMT+0100 (közép-európai téli idő),The main experiment item,yes,,,,0,0,C:\Users\zymotik\Documents\!research\GNET,0,0,0,no,mono,no,18,no,black,no,no,768,2293,3.5.8,legacy,xpyriment,d8bq7g,,osweb,1.4.0,587,1,,,,,,,,,,,,,,,,,,,,,,,,,,,,,,,,,,,,,0,right,,enter,,right,space,2413,,398,,2413,6975,2,0,legacy,1040,1920,24,1080,24,0,0,1920,,1699900693890,1024,2,48000,-16,experiment,p2sarrsha2.png,0,even,Win32,,,93,,93,,77,,15825,93,,16239,,,,15825,93,93,270784,271383,272900,268370,16240,270784,268370,,16239,GNET_4stim_recallt_idinput_-_TEST,0,0,0,yes,,1366
undefined,undefined,,undefined,undefined,white,no,Mozilla,Netscape,"5.0 (Windows NT 10.0; Win64; x64) AppleWebKit/537.36 (KHTML, like Gecko) Chrome/118.0.0.0 Safari/537.36 OPR/104.0.0.0",xpyriment,,,,,,,,,,legacy,legacy,0,uniform,,,,,0,0,,0,,0,,6,,0,0,,6,0,0,,6,0,0,0,,6,0,0,0,0,55,55,55,55,55,0,55,55,,0,,,13-10-23,13-10-23,19:37:15,Mon Nov 13 2023 19:37:15 GMT+0100 (közép-európai téli idő),The main experiment item,yes,,,,0,0,C:\Users\zymotik\Documents\!research\GNET,0,0,0,no,mono,no,18,no,black,no,no,768,2293,3.5.8,legacy,xpyriment,d8bq7g,,osweb,1.4.0,1121,1,,,,,,,,,,,,,,,,,,,,,,,,,,,,,,,,,,,,,0,right,,enter,,right,space,1879,,398,,1879,6975,2,0,legacy,1040,1920,24,1080,24,0,0,1920,,1699900693890,1024,2,48000,-16,experiment,p6sarr2.png,0,even,Win32,,,93,,93,,77,,15825,93,,16239,,,,15825,93,93,274783,275917,277433,272904,16240,274784,272904,,16239,GNET_4stim_recallt_idinput_-_TEST,0,0,0,yes,,1366
undefined,undefined,,undefined,undefined,white,no,Mozilla,Netscape,"5.0 (Windows NT 10.0; Win64; x64) AppleWebKit/537.36 (KHTML, like Gecko) Chrome/118.0.0.0 Safari/537.36 OPR/104.0.0.0",xpyriment,,,,,,,,,,legacy,legacy,0,uniform,,,,,0,0,,0,,0,,6,,0,0,,6,0,0,,6,0,0,0,,6,0,0,0,0,56,56,56,56,56,0,56,56,,0,,,13-10-23,13-10-23,19:37:15,Mon Nov 13 2023 19:37:15 GMT+0100 (közép-európai téli idő),The main experiment item,yes,,,,0,0,C:\Users\zymotik\Documents\!research\GNET,0,0,0,no,mono,no,18,no,black,no,no,768,2293,3.5.8,legacy,xpyriment,d8bq7g,,osweb,1.4.0,1742,1,,,,,,,,,,,,,,,,,,,,,,,,,,,,,,,,,,,,,0,left,,enter,,left,space,1258,,398,,1258,6975,2,0,legacy,1040,1920,24,1080,24,0,0,1920,,1699900693890,1024,2,48000,-16,experiment,p1sarrshacol2.png,0,even,Win32,,,93,,93,,77,,15825,93,,16239,,,,15825,93,93,278700,280450,281967,277437,16240,278701,277437,,16239,GNET_4stim_recallt_idinput_-_TEST,0,0,0,yes,,1366
undefined,undefined,,undefined,undefined,white,no,Mozilla,Netscape,"5.0 (Windows NT 10.0; Win64; x64) AppleWebKit/537.36 (KHTML, like Gecko) Chrome/118.0.0.0 Safari/537.36 OPR/104.0.0.0",xpyriment,,,,,,,,,,legacy,legacy,0,uniform,,,,,0,0,,0,,0,,6,,0,0,,6,0,0,,6,0,0,0,,6,0,0,0,0,57,57,57,57,57,0,57,57,,0,,,13-10-23,13-10-23,19:37:15,Mon Nov 13 2023 19:37:15 GMT+0100 (közép-európai téli idő),The main experiment item,yes,,,,0,0,C:\Users\zymotik\Documents\!research\GNET,0,0,0,no,mono,no,18,no,black,no,no,768,2293,3.5.8,legacy,xpyriment,d8bq7g,,osweb,1.4.0,1676,1,,,,,,,,,,,,,,,,,,,,,,,,,,,,,,,,,,,,,0,left,,enter,,left,space,1324,,398,,1324,6975,2,0,legacy,1040,1920,24,1080,24,0,0,1920,,1699900693890,1024,2,48000,-16,experiment,p4sarrsha2.png,0,even,Win32,,,93,,93,,77,,15825,93,,16239,,,,15825,93,93,283300,284984,286501,281971,16240,283301,281971,,16239,GNET_4stim_recallt_idinput_-_TEST,0,0,0,yes,,1366
undefined,undefined,,undefined,undefined,white,no,Mozilla,Netscape,"5.0 (Windows NT 10.0; Win64; x64) AppleWebKit/537.36 (KHTML, like Gecko) Chrome/118.0.0.0 Safari/537.36 OPR/104.0.0.0",xpyriment,,,,,,,,,,legacy,legacy,0,uniform,,,,,0,0,,0,,0,,6,,0,0,,6,0,0,,6,0,0,0,,6,0,0,0,0,58,58,58,58,58,0,58,58,,0,,,13-10-23,13-10-23,19:37:15,Mon Nov 13 2023 19:37:15 GMT+0100 (közép-európai téli idő),The main experiment item,yes,,,,0,0,C:\Users\zymotik\Documents\!research\GNET,0,0,0,no,mono,no,18,no,black,no,no,768,2293,3.5.8,legacy,xpyriment,d8bq7g,,osweb,1.4.0,161,1,,,,,,,,,,,,,,,,,,,,,,,,,,,,,,,,,,,,,0,right,,enter,,right,space,2839,,398,,2839,6975,2,0,legacy,1040,1920,24,1080,24,0,0,1920,,1699900693890,1024,2,48000,-16,experiment,p2sarrcol3.png,0,even,Win32,,,93,,93,,77,,15825,93,,16239,,,,15825,93,93,289351,289517,291034,286504,16240,289351,286504,,16239,GNET_4stim_recallt_idinput_-_TEST,0,0,0,yes,,1366
undefined,undefined,,undefined,undefined,white,no,Mozilla,Netscape,"5.0 (Windows NT 10.0; Win64; x64) AppleWebKit/537.36 (KHTML, like Gecko) Chrome/118.0.0.0 Safari/537.36 OPR/104.0.0.0",xpyriment,,,,,,,,,,legacy,legacy,0,uniform,,,,,0,0,,0,,0,,6,,0,0,,6,0,0,,6,0,0,0,,6,0,0,0,0,59,59,59,59,59,0,59,59,,0,,,13-10-23,13-10-23,19:37:15,Mon Nov 13 2023 19:37:15 GMT+0100 (közép-európai téli idő),The main experiment item,yes,,,,0,0,C:\Users\zymotik\Documents\!research\GNET,0,0,0,no,mono,no,18,no,black,no,no,768,2293,3.5.8,legacy,xpyriment,d8bq7g,,osweb,1.4.0,1687,1,,,,,,,,,,,,,,,,,,,,,,,,,,,,,,,,,,,,,0,right,,enter,,right,space,1313,,398,,1313,6975,2,0,legacy,1040,1920,24,1080,24,0,0,1920,,1699900693890,1024,2,48000,-16,experiment,p4sarrcol2.png,0,even,Win32,,,93,,93,,77,,15825,93,,16239,,,,15825,93,93,292367,294068,295584,291038,16240,292368,291038,,16239,GNET_4stim_recallt_idinput_-_TEST,0,0,0,yes,,1366
undefined,undefined,,undefined,undefined,white,no,Mozilla,Netscape,"5.0 (Windows NT 10.0; Win64; x64) AppleWebKit/537.36 (KHTML, like Gecko) Chrome/118.0.0.0 Safari/537.36 OPR/104.0.0.0",xpyriment,,,,,,,,,,legacy,legacy,0,uniform,,,,,0,0,,0,,0,,6,,0,0,,6,0,0,,6,0,0,0,,6,0,0,0,0,60,60,60,60,60,0,60,60,,0,,,13-10-23,13-10-23,19:37:15,Mon Nov 13 2023 19:37:15 GMT+0100 (közép-európai téli idő),The main experiment item,yes,,,,0,0,C:\Users\zymotik\Documents\!research\GNET,0,0,0,no,mono,no,18,no,black,no,no,768,2293,3.5.8,legacy,xpyriment,d8bq7g,,osweb,1.4.0,1110,1,,,,,,,,,,,,,,,,,,,,,,,,,,,,,,,,,,,,,0,down,,enter,,down,space,1890,,398,,1890,6975,2,0,legacy,1040,1920,24,1080,24,0,0,1920,,1699900693890,1024,2,48000,-16,experiment,p4sarrcol3.png,0,even,Win32,,,93,,93,,77,,15825,93,,16239,,,,15825,93,93,297484,298601,300118,295589,16240,297485,295589,,16239,GNET_4stim_recallt_idinput_-_TEST,0,0,0,yes,,1366
undefined,undefined,,undefined,undefined,white,no,Mozilla,Netscape,"5.0 (Windows NT 10.0; Win64; x64) AppleWebKit/537.36 (KHTML, like Gecko) Chrome/118.0.0.0 Safari/537.36 OPR/104.0.0.0",xpyriment,,,,,,,,,,legacy,legacy,0,uniform,,,,,0,0,,0,,0,,6,,0,0,,6,0,0,,6,0,0,0,,6,0,0,0,0,61,61,61,61,61,0,61,61,,0,,,13-10-23,13-10-23,19:37:15,Mon Nov 13 2023 19:37:15 GMT+0100 (közép-európai téli idő),The main experiment item,yes,,,,0,0,C:\Users\zymotik\Documents\!research\GNET,0,0,0,no,mono,no,18,no,black,no,no,768,2293,3.5.8,legacy,xpyriment,d8bq7g,,osweb,1.4.0,2101,1,,,,,,,,,,,,,,,,,,,,,,,,,,,,,,,,,,,,,0,right,,enter,,right,space,899,,398,,899,6975,2,0,legacy,1040,1920,24,1080,24,0,0,1920,,1699900693890,1024,2,48000,-16,experiment,p2sarr2.png,0,even,Win32,,,93,,93,,77,,15825,93,,16239,,,,15825,93,93,301034,303151,304668,300123,16240,301035,300123,,16239,GNET_4stim_recallt_idinput_-_TEST,0,0,0,yes,,1366
undefined,undefined,,undefined,undefined,white,no,Mozilla,Netscape,"5.0 (Windows NT 10.0; Win64; x64) AppleWebKit/537.36 (KHTML, like Gecko) Chrome/118.0.0.0 Safari/537.36 OPR/104.0.0.0",xpyriment,,,,,,,,,,legacy,legacy,0,uniform,,,,,0,0,,0,,0,,6,,0,0,,6,0,0,,6,0,0,0,,6,0,0,0,0,62,62,62,62,62,0,62,62,,0,,,13-10-23,13-10-23,19:37:15,Mon Nov 13 2023 19:37:15 GMT+0100 (közép-európai téli idő),The main experiment item,yes,,,,0,0,C:\Users\zymotik\Documents\!research\GNET,0,0,0,no,mono,no,18,no,black,no,no,768,2293,3.5.8,legacy,xpyriment,d8bq7g,,osweb,1.4.0,951,1,,,,,,,,,,,,,,,,,,,,,,,,,,,,,,,,,,,,,0,right,,enter,,right,space,2049,,398,,2049,6975,2,0,legacy,1040,1920,24,1080,24,0,0,1920,,1699900693890,1024,2,48000,-16,experiment,p7sarr3.png,0,even,Win32,,,93,,93,,77,,15825,93,,16239,,,,15825,93,93,306735,307701,309218,304677,16240,306735,304677,,16239,GNET_4stim_recallt_idinput_-_TEST,0,0,0,yes,,1366
undefined,undefined,,undefined,undefined,white,no,Mozilla,Netscape,"5.0 (Windows NT 10.0; Win64; x64) AppleWebKit/537.36 (KHTML, like Gecko) Chrome/118.0.0.0 Safari/537.36 OPR/104.0.0.0",xpyriment,,,,,,,,,,legacy,legacy,0,uniform,,,,,0,0,,0,,0,,6,,0,0,,6,0,0,,6,0,0,0,,6,0,0,0,0,63,63,63,63,63,0,63,63,,0,,,13-10-23,13-10-23,19:37:15,Mon Nov 13 2023 19:37:15 GMT+0100 (közép-európai téli idő),The main experiment item,yes,,,,0,0,C:\Users\zymotik\Documents\!research\GNET,0,0,0,no,mono,no,18,no,black,no,no,768,2293,3.5.8,legacy,xpyriment,d8bq7g,,osweb,1.4.0,1215,1,,,,,,,,,,,,,,,,,,,,,,,,,,,,,,,,,,,,,0,down,,enter,,down,space,1785,,398,,1785,6975,2,0,legacy,1040,1920,24,1080,24,0,0,1920,,1699900693890,1024,2,48000,-16,experiment,p9sarr1.png,0,even,Win32,,,93,,93,,77,,15825,93,,16239,,,,15825,93,93,311018,312235,313752,309222,16240,311019,309222,,16239,GNET_4stim_recallt_idinput_-_TEST,0,0,0,yes,,1366
undefined,undefined,,undefined,undefined,white,no,Mozilla,Netscape,"5.0 (Windows NT 10.0; Win64; x64) AppleWebKit/537.36 (KHTML, like Gecko) Chrome/118.0.0.0 Safari/537.36 OPR/104.0.0.0",xpyriment,,,,,,,,,,legacy,legacy,0,uniform,,,,,0,0,,0,,0,,6,,0,0,,6,0,0,,6,0,0,0,,6,0,0,0,0,64,64,64,64,64,0,64,64,,0,,,13-10-23,13-10-23,19:37:15,Mon Nov 13 2023 19:37:15 GMT+0100 (közép-európai téli idő),The main experiment item,yes,,,,0,0,C:\Users\zymotik\Documents\!research\GNET,0,0,0,no,mono,no,18,no,black,no,no,768,2293,3.5.8,legacy,xpyriment,d8bq7g,,osweb,1.4.0,1965,1,,,,,,,,,,,,,,,,,,,,,,,,,,,,,,,,,,,,,0,right,,enter,,right,space,1035,,398,,1035,6975,2,0,legacy,1040,1920,24,1080,24,0,0,1920,,1699900693890,1024,2,48000,-16,experiment,p1sarrcol3.png,0,even,Win32,,,93,,93,,77,,15825,93,,16239,,,,15825,93,93,314802,316769,318285,313755,16240,314802,313755,,16239,GNET_4stim_recallt_idinput_-_TEST,0,0,0,yes,,1366
undefined,undefined,,undefined,undefined,white,no,Mozilla,Netscape,"5.0 (Windows NT 10.0; Win64; x64) AppleWebKit/537.36 (KHTML, like Gecko) Chrome/118.0.0.0 Safari/537.36 OPR/104.0.0.0",xpyriment,,,,,,,,,,legacy,legacy,0,uniform,,,,,0,0,,0,,0,,6,,0,0,,6,0,0,,6,0,0,0,,6,0,0,0,0,65,65,65,65,65,0,65,65,,0,,,13-10-23,13-10-23,19:37:15,Mon Nov 13 2023 19:37:15 GMT+0100 (közép-európai téli idő),The main experiment item,yes,,,,0,0,C:\Users\zymotik\Documents\!research\GNET,0,0,0,no,mono,no,18,no,black,no,no,768,2293,3.5.8,legacy,xpyriment,d8bq7g,,osweb,1.4.0,1418,1,,,,,,,,,,,,,,,,,,,,,,,,,,,,,,,,,,,,,0,down,,enter,,down,space,1582,,398,,1582,6975,2,0,legacy,1040,1920,24,1080,24,0,0,1920,,1699900693890,1024,2,48000,-16,experiment,p4sarrsha4.png,0,even,Win32,,,93,,93,,77,,15825,93,,16239,,,,15825,93,93,319885,321319,322835,318289,16240,319886,318289,,16239,GNET_4stim_recallt_idinput_-_TEST,0,0,0,yes,,1366
undefined,undefined,,undefined,undefined,white,no,Mozilla,Netscape,"5.0 (Windows NT 10.0; Win64; x64) AppleWebKit/537.36 (KHTML, like Gecko) Chrome/118.0.0.0 Safari/537.36 OPR/104.0.0.0",xpyriment,,,,,,,,,,legacy,legacy,0,uniform,,,,,0,0,,0,,0,,6,,0,0,,6,0,0,,6,0,0,0,,6,0,0,0,0,66,66,66,66,66,0,66,66,,0,,,13-10-23,13-10-23,19:37:15,Mon Nov 13 2023 19:37:15 GMT+0100 (közép-európai téli idő),The main experiment item,yes,,,,0,0,C:\Users\zymotik\Documents\!research\GNET,0,0,0,no,mono,no,18,no,black,no,no,768,2293,3.5.8,legacy,xpyriment,d8bq7g,,osweb,1.4.0,1024,1,,,,,,,,,,,,,,,,,,,,,,,,,,,,,,,,,,,,,0,down,,enter,,down,space,1976,,398,,1976,6975,2,0,legacy,1040,1920,24,1080,24,0,0,1920,,1699900693890,1024,2,48000,-16,experiment,p4sarrshacol2.png,0,even,Win32,,,93,,93,,77,,15825,93,,16239,,,,15825,93,93,324819,325852,327369,322839,16240,324819,322839,,16239,GNET_4stim_recallt_idinput_-_TEST,0,0,0,yes,,1366
undefined,undefined,,undefined,undefined,white,no,Mozilla,Netscape,"5.0 (Windows NT 10.0; Win64; x64) AppleWebKit/537.36 (KHTML, like Gecko) Chrome/118.0.0.0 Safari/537.36 OPR/104.0.0.0",xpyriment,,,,,,,,,,legacy,legacy,0,uniform,,,,,0,0,,0,,0,,6,,0,0,,6,0,0,,6,0,0,0,,6,0,0,0,0,67,67,67,67,67,0,67,67,,0,,,13-10-23,13-10-23,19:37:15,Mon Nov 13 2023 19:37:15 GMT+0100 (közép-európai téli idő),The main experiment item,yes,,,,0,0,C:\Users\zymotik\Documents\!research\GNET,0,0,0,no,mono,no,18,no,black,no,no,768,2293,3.5.8,legacy,xpyriment,d8bq7g,,osweb,1.4.0,1758,1,,,,,,,,,,,,,,,,,,,,,,,,,,,,,,,,,,,,,0,right,,enter,,right,space,1242,,398,,1242,6975,2,0,legacy,1040,1920,24,1080,24,0,0,1920,,1699900693890,1024,2,48000,-16,experiment,p3sarr4.png,0,even,Win32,,,93,,93,,77,,15825,93,,16239,,,,15825,93,93,328619,330386,331902,327373,16240,328619,327373,,16239,GNET_4stim_recallt_idinput_-_TEST,0,0,0,yes,,1366
undefined,undefined,,undefined,undefined,white,no,Mozilla,Netscape,"5.0 (Windows NT 10.0; Win64; x64) AppleWebKit/537.36 (KHTML, like Gecko) Chrome/118.0.0.0 Safari/537.36 OPR/104.0.0.0",xpyriment,,,,,,,,,,legacy,legacy,0,uniform,,,,,0,0,,0,,0,,6,,0,0,,6,0,0,,6,0,0,0,,6,0,0,0,0,68,68,68,68,68,0,68,68,,0,,,13-10-23,13-10-23,19:37:15,Mon Nov 13 2023 19:37:15 GMT+0100 (közép-európai téli idő),The main experiment item,yes,,,,0,0,C:\Users\zymotik\Documents\!research\GNET,0,0,0,no,mono,no,18,no,black,no,no,768,2293,3.5.8,legacy,xpyriment,d8bq7g,,osweb,1.4.0,2067,1,,,,,,,,,,,,,,,,,,,,,,,,,,,,,,,,,,,,,0,right,,enter,,right,space,933,,398,,933,6975,2,0,legacy,1040,1920,24,1080,24,0,0,1920,,1699900693890,1024,2,48000,-16,experiment,p2sarr1.png,0,even,Win32,,,93,,93,,77,,15825,93,,16239,,,,15825,93,93,332852,334936,336453,331906,16240,332853,331906,,16239,GNET_4stim_recallt_idinput_-_TEST,0,0,0,yes,,1366
undefined,undefined,,undefined,undefined,white,no,Mozilla,Netscape,"5.0 (Windows NT 10.0; Win64; x64) AppleWebKit/537.36 (KHTML, like Gecko) Chrome/118.0.0.0 Safari/537.36 OPR/104.0.0.0",xpyriment,,,,,,,,,,legacy,legacy,0,uniform,,,,,0,0,,0,,0,,6,,0,0,,6,0,0,,6,0,0,0,,6,0,0,0,0,69,69,69,69,69,0,69,69,,0,,,13-10-23,13-10-23,19:37:15,Mon Nov 13 2023 19:37:15 GMT+0100 (közép-európai téli idő),The main experiment item,yes,,,,0,0,C:\Users\zymotik\Documents\!research\GNET,0,0,0,no,mono,no,18,no,black,no,no,768,2293,3.5.8,legacy,xpyriment,d8bq7g,,osweb,1.4.0,1825,1,,,,,,,,,,,,,,,,,,,,,,,,,,,,,,,,,,,,,0,left,,enter,,left,space,1175,,398,,1175,6975,2,0,legacy,1040,1920,24,1080,24,0,0,1920,,1699900693890,1024,2,48000,-16,experiment,p3sarrshacol1.png,0,even,Win32,,,93,,93,,77,,15825,93,,16239,,,,15825,93,93,337636,339470,340986,336456,16240,337636,336456,,16239,GNET_4stim_recallt_idinput_-_TEST,0,0,0,yes,,1366
undefined,undefined,,undefined,undefined,white,no,Mozilla,Netscape,"5.0 (Windows NT 10.0; Win64; x64) AppleWebKit/537.36 (KHTML, like Gecko) Chrome/118.0.0.0 Safari/537.36 OPR/104.0.0.0",xpyriment,,,,,,,,,,legacy,legacy,0,uniform,,,,,0,0,,0,,0,,6,,0,0,,6,0,0,,6,0,0,0,,6,0,0,0,0,70,70,70,70,70,0,70,70,,0,,,13-10-23,13-10-23,19:37:15,Mon Nov 13 2023 19:37:15 GMT+0100 (közép-európai téli idő),The main experiment item,yes,,,,0,0,C:\Users\zymotik\Documents\!research\GNET,0,0,0,no,mono,no,18,no,black,no,no,768,2293,3.5.8,legacy,xpyriment,d8bq7g,,osweb,1.4.0,0,1,,,,,,,,,,,,,,,,,,,,,,,,,,,,,,,,,,,,,0,None,,enter,,None,space,3013,,398,,3013,6975,2,0,legacy,1040,1920,24,1080,24,0,0,1920,,1699900693890,1024,2,48000,-16,experiment,p8sarr1.png,0,even,Win32,,,93,,93,,77,,15825,93,,16239,,,,15825,93,93,344003,344004,345520,340990,16240,344004,340990,,16239,GNET_4stim_recallt_idinput_-_TEST,0,0,0,yes,,1366
undefined,undefined,,undefined,undefined,white,no,Mozilla,Netscape,"5.0 (Windows NT 10.0; Win64; x64) AppleWebKit/537.36 (KHTML, like Gecko) Chrome/118.0.0.0 Safari/537.36 OPR/104.0.0.0",xpyriment,,,,,,,,,,legacy,legacy,0,uniform,,,,,0,0,,0,,0,,6,,0,0,,6,0,0,,6,0,0,0,,6,0,0,0,0,71,71,71,71,71,0,71,71,,0,,,13-10-23,13-10-23,19:37:15,Mon Nov 13 2023 19:37:15 GMT+0100 (közép-európai téli idő),The main experiment item,yes,,,,0,0,C:\Users\zymotik\Documents\!research\GNET,0,0,0,no,mono,no,18,no,black,no,no,768,2293,3.5.8,legacy,xpyriment,d8bq7g,,osweb,1.4.0,1700,1,,,,,,,,,,,,,,,,,,,,,,,,,,,,,,,,,,,,,0,right,,enter,,right,space,1300,,398,,1300,6975,2,0,legacy,1040,1920,24,1080,24,0,0,1920,,1699900693890,1024,2,48000,-16,experiment,p3sarrsha2.png,0,even,Win32,,,93,,93,,77,,15825,93,,16239,,,,15825,93,93,346837,348553,350070,345523,16240,346837,345523,,16239,GNET_4stim_recallt_idinput_-_TEST,0,0,0,yes,,1366
undefined,undefined,,undefined,undefined,white,no,Mozilla,Netscape,"5.0 (Windows NT 10.0; Win64; x64) AppleWebKit/537.36 (KHTML, like Gecko) Chrome/118.0.0.0 Safari/537.36 OPR/104.0.0.0",xpyriment,,,,,,,,,,legacy,legacy,0,uniform,,,,,0,0,,0,,0,,6,,0,0,,6,0,0,,6,0,0,0,,6,0,0,0,0,72,72,72,72,72,0,72,72,,0,,,13-10-23,13-10-23,19:37:15,Mon Nov 13 2023 19:37:15 GMT+0100 (közép-európai téli idő),The main experiment item,yes,,,,0,0,C:\Users\zymotik\Documents\!research\GNET,0,0,0,no,mono,no,18,no,black,no,no,768,2293,3.5.8,legacy,xpyriment,d8bq7g,,osweb,1.4.0,1907,1,,,,,,,,,,,,,,,,,,,,,,,,,,,,,,,,,,,,,0,right,,enter,,right,space,1093,,398,,1093,6975,2,0,legacy,1040,1920,24,1080,24,0,0,1920,,1699900693890,1024,2,48000,-16,experiment,p1sarrcol1.png,0,even,Win32,,,93,,93,,77,,15825,93,,16239,,,,15825,93,93,351170,353087,354603,350074,16240,351170,350074,,16239,GNET_4stim_recallt_idinput_-_TEST,0,0,0,yes,,1366
undefined,undefined,,undefined,undefined,white,no,Mozilla,Netscape,"5.0 (Windows NT 10.0; Win64; x64) AppleWebKit/537.36 (KHTML, like Gecko) Chrome/118.0.0.0 Safari/537.36 OPR/104.0.0.0",xpyriment,,,,,,,,,,legacy,legacy,0,uniform,,,,,0,0,,0,,0,,6,,0,0,,6,0,0,,6,0,0,0,,6,0,0,0,0,73,73,73,73,73,0,73,73,,0,,,13-10-23,13-10-23,19:37:15,Mon Nov 13 2023 19:37:15 GMT+0100 (közép-európai téli idő),The main experiment item,yes,,,,0,0,C:\Users\zymotik\Documents\!research\GNET,0,0,0,no,mono,no,18,no,black,no,no,768,2293,3.5.8,legacy,xpyriment,d8bq7g,,osweb,1.4.0,1560,1,,,,,,,,,,,,,,,,,,,,,,,,,,,,,,,,,,,,,0,down,,enter,,down,space,1440,,398,,1440,6975,2,0,legacy,1040,1920,24,1080,24,0,0,1920,,1699900693890,1024,2,48000,-16,experiment,p1sarrshacol4.png,0,even,Win32,,,93,,93,,77,,15825,93,,16239,,,,15825,93,93,356053,357620,359137,354607,16240,356054,354607,,16239,GNET_4stim_recallt_idinput_-_TEST,0,0,0,yes,,1366
undefined,undefined,,undefined,undefined,white,no,Mozilla,Netscape,"5.0 (Windows NT 10.0; Win64; x64) AppleWebKit/537.36 (KHTML, like Gecko) Chrome/118.0.0.0 Safari/537.36 OPR/104.0.0.0",xpyriment,,,,,,,,,,legacy,legacy,0,uniform,,,,,0,0,,0,,0,,6,,0,0,,6,0,0,,6,0,0,0,,6,0,0,0,0,74,74,74,74,74,0,74,74,,0,,,13-10-23,13-10-23,19:37:15,Mon Nov 13 2023 19:37:15 GMT+0100 (közép-európai téli idő),The main experiment item,yes,,,,0,0,C:\Users\zymotik\Documents\!research\GNET,0,0,0,no,mono,no,18,no,black,no,no,768,2293,3.5.8,legacy,xpyriment,d8bq7g,,osweb,1.4.0,0,1,,,,,,,,,,,,,,,,,,,,,,,,,,,,,,,,,,,,,0,None,,enter,,None,space,3014,,398,,3014,6975,2,0,legacy,1040,1920,24,1080,24,0,0,1920,,1699900693890,1024,2,48000,-16,experiment,p4sarrcol4.png,0,even,Win32,,,93,,93,,77,,15825,93,,16239,,,,15825,93,93,362154,362154,363670,359140,16240,362154,359140,,16239,GNET_4stim_recallt_idinput_-_TEST,0,0,0,yes,,1366
undefined,undefined,,undefined,undefined,white,no,Mozilla,Netscape,"5.0 (Windows NT 10.0; Win64; x64) AppleWebKit/537.36 (KHTML, like Gecko) Chrome/118.0.0.0 Safari/537.36 OPR/104.0.0.0",xpyriment,,,,,,,,,,legacy,legacy,0,uniform,,,,,0,0,,0,,0,,6,,0,0,,6,0,0,,6,0,0,0,,6,0,0,0,0,75,75,75,75,75,0,75,75,,0,,,13-10-23,13-10-23,19:37:15,Mon Nov 13 2023 19:37:15 GMT+0100 (közép-európai téli idő),The main experiment item,yes,,,,0,0,C:\Users\zymotik\Documents\!research\GNET,0,0,0,no,mono,no,18,no,black,no,no,768,2293,3.5.8,legacy,xpyriment,d8bq7g,,osweb,1.4.0,1517,1,,,,,,,,,,,,,,,,,,,,,,,,,,,,,,,,,,,,,0,right,,enter,,right,space,1483,,398,,1483,6975,2,0,legacy,1040,1920,24,1080,24,0,0,1920,,1699900693890,1024,2,48000,-16,experiment,p1sarr3.png,0,even,Win32,,,93,,93,,77,,15825,93,,16239,,,,15825,93,93,365170,366704,368221,363675,16240,365171,363675,,16239,GNET_4stim_recallt_idinput_-_TEST,0,0,0,yes,,1366
undefined,undefined,,undefined,undefined,white,no,Mozilla,Netscape,"5.0 (Windows NT 10.0; Win64; x64) AppleWebKit/537.36 (KHTML, like Gecko) Chrome/118.0.0.0 Safari/537.36 OPR/104.0.0.0",xpyriment,,,,,,,,,,legacy,legacy,0,uniform,,,,,0,0,,0,,0,,6,,0,0,,6,0,0,,6,0,0,0,,6,0,0,0,0,76,76,76,76,76,0,76,76,,0,,,13-10-23,13-10-23,19:37:15,Mon Nov 13 2023 19:37:15 GMT+0100 (közép-európai téli idő),The main experiment item,yes,,,,0,0,C:\Users\zymotik\Documents\!research\GNET,0,0,0,no,mono,no,18,no,black,no,no,768,2293,3.5.8,legacy,xpyriment,d8bq7g,,osweb,1.4.0,1850,1,,,,,,,,,,,,,,,,,,,,,,,,,,,,,,,,,,,,,0,down,,enter,,down,space,1150,,398,,1150,6975,2,0,legacy,1040,1920,24,1080,24,0,0,1920,,1699900693890,1024,2,48000,-16,experiment,p1sarr1.png,0,even,Win32,,,93,,93,,77,,15825,93,,16239,,,,15825,93,93,369387,371254,372771,368225,16240,369388,368225,,16239,GNET_4stim_recallt_idinput_-_TEST,0,0,0,yes,,1366
undefined,undefined,,undefined,undefined,white,no,Mozilla,Netscape,"5.0 (Windows NT 10.0; Win64; x64) AppleWebKit/537.36 (KHTML, like Gecko) Chrome/118.0.0.0 Safari/537.36 OPR/104.0.0.0",xpyriment,,,,,,,,,,legacy,legacy,0,uniform,,,,,0,0,,0,,0,,6,,0,0,,6,0,0,,6,0,0,0,,6,0,0,0,0,77,77,77,77,77,0,77,77,,0,,,13-10-23,13-10-23,19:37:15,Mon Nov 13 2023 19:37:15 GMT+0100 (közép-európai téli idő),The main experiment item,yes,,,,0,0,C:\Users\zymotik\Documents\!research\GNET,0,0,0,no,mono,no,18,no,black,no,no,768,2293,3.5.8,legacy,xpyriment,d8bq7g,,osweb,1.4.0,1429,1,,,,,,,,,,,,,,,,,,,,,,,,,,,,,,,,,,,,,0,right,,enter,,right,space,1571,,398,,1571,6975,2,0,legacy,1040,1920,24,1080,24,0,0,1920,,1699900693890,1024,2,48000,-16,experiment,p2sarr4.png,0,even,Win32,,,93,,93,,77,,15825,93,,16239,,,,15825,93,93,374354,375788,377304,372780,16240,374355,372780,,16239,GNET_4stim_recallt_idinput_-_TEST,0,0,0,yes,,1366
undefined,undefined,,undefined,undefined,white,no,Mozilla,Netscape,"5.0 (Windows NT 10.0; Win64; x64) AppleWebKit/537.36 (KHTML, like Gecko) Chrome/118.0.0.0 Safari/537.36 OPR/104.0.0.0",xpyriment,,,,,,,,,,legacy,legacy,0,uniform,,,,,0,0,,0,,0,,6,,0,0,,6,0,0,,6,0,0,0,,6,0,0,0,0,78,78,78,78,78,0,78,78,,0,,,13-10-23,13-10-23,19:37:15,Mon Nov 13 2023 19:37:15 GMT+0100 (közép-európai téli idő),The main experiment item,yes,,,,0,0,C:\Users\zymotik\Documents\!research\GNET,0,0,0,no,mono,no,18,no,black,no,no,768,2293,3.5.8,legacy,xpyriment,d8bq7g,,osweb,1.4.0,1933,1,,,,,,,,,,,,,,,,,,,,,,,,,,,,,,,,,,,,,0,right,,enter,,right,space,1067,,398,,1067,6975,2,0,legacy,1040,1920,24,1080,24,0,0,1920,,1699900693890,1024,2,48000,-16,experiment,p1sarrshacol1.png,0,even,Win32,,,93,,93,,77,,15825,93,,16239,,,,15825,93,93,378388,380338,381855,377308,16240,378388,377308,,16239,GNET_4stim_recallt_idinput_-_TEST,0,0,0,yes,,1366
undefined,undefined,,undefined,undefined,white,no,Mozilla,Netscape,"5.0 (Windows NT 10.0; Win64; x64) AppleWebKit/537.36 (KHTML, like Gecko) Chrome/118.0.0.0 Safari/537.36 OPR/104.0.0.0",xpyriment,,,,,,,,,,legacy,legacy,0,uniform,,,,,0,0,,0,,0,,6,,0,0,,6,0,0,,6,0,0,0,,6,0,0,0,0,79,79,79,79,79,0,79,79,,0,,,13-10-23,13-10-23,19:37:15,Mon Nov 13 2023 19:37:15 GMT+0100 (közép-európai téli idő),The main experiment item,yes,,,,0,0,C:\Users\zymotik\Documents\!research\GNET,0,0,0,no,mono,no,18,no,black,no,no,768,2293,3.5.8,legacy,xpyriment,d8bq7g,,osweb,1.4.0,620,1,,,,,,,,,,,,,,,,,,,,,,,,,,,,,,,,,,,,,0,left,,enter,,left,space,2380,,398,,2380,6975,2,0,legacy,1040,1920,24,1080,24,0,0,1920,,1699900693890,1024,2,48000,-16,experiment,p3sarrshacol4.png,0,even,Win32,,,93,,93,,77,,15825,93,,16239,,,,15825,93,93,384255,384888,386405,381858,16240,384255,381858,,16239,GNET_4stim_recallt_idinput_-_TEST,0,0,0,yes,,1366
0,0,1,782,782,white,no,Mozilla,Netscape,"5.0 (Windows NT 10.0; Win64; x64) AppleWebKit/537.36 (KHTML, like Gecko) Chrome/118.0.0.0 Safari/537.36 OPR/104.0.0.0",xpyriment,4,2,0,5,3,1,0,0,0,legacy,legacy,0,uniform,,,,,0,0,0,0,0,0,40,6,0,0,0,40,6,0,0,40,6,0,0,0,40,6,0,0,0,0,79,79,79,79,79,0,79,79,0,0,13.517708333333333,323.1895833333333,13-10-23,13-10-23,19:37:15,Mon Nov 13 2023 19:37:15 GMT+0100 (közép-európai téli idő),The main experiment item,yes,1,0,,0,0,C:\Users\zymotik\Documents\!research\GNET,0,0,0,no,mono,no,18,no,black,no,no,768,2293,3.5.8,legacy,xpyriment,d8bq7g,None,osweb,1.4.0,620,1,[],tri4.png,4,1,tri,120,0,cir3.png,3,1,cir,0,-120,cir4.png,4,1,cir,0,0,sqa1.png,1,1,sqa,-120,-120,sqa2.png,2,1,sqa,-120,0,,,,,,0,1,1,enter,space,left,space,2200,2200,398,1881,2380,6975,2,1,legacy,1040,1920,24,1080,24,0,0,1920,sqa0.png,1699900693890,1024,2,48000,-16,experiment,p3sarrshacol4.png,0,even,Win32,cir,3,93,388312,93,388291,77,418848,15825,93,421056,16239,388288,386406,418848,15825,93,93,384255,384888,386405,381858,16240,384255,381858,421056,16239,GNET_4stim_recallt_idinput_-_TEST,0,32045,41,yes,4,1366
0,0,1,698,698,white,no,Mozilla,Netscape,"5.0 (Windows NT 10.0; Win64; x64) AppleWebKit/537.36 (KHTML, like Gecko) Chrome/118.0.0.0 Safari/537.36 OPR/104.0.0.0",xpyriment,0,5,4,3,0,1,2,0,0,legacy,legacy,0,uniform,,,,,0,0,1,0,1,0,114,6,1,0,0,114,6,0,0,114,6,0,0,0,114,6,0,0,0,0,79,79,79,79,79,0,79,79,1,0,11.383333333333333,318.20937499999997,13-10-23,13-10-23,19:37:15,Mon Nov 13 2023 19:37:15 GMT+0100 (közép-európai téli idő),The main experiment item,yes,1,0,,0,0,C:\Users\zymotik\Documents\!research\GNET,0,0,0,no,mono,no,18,no,black,no,no,768,2293,3.5.8,legacy,xpyriment,d8bq7g,None,osweb,1.4.0,620,1,[],tri6.png,6,1,tri,120,0,tri4.png,4,1,tri,-120,120,cir5.png,5,1,cir,-120,0,sqa1.png,1,1,sqa,120,-120,sqa3.png,3,1,sqa,0,-120,,,,,,0,1,1,enter,space,left,space,3523,3523,398,1881,2380,6975,2,2,legacy,1040,1920,24,1080,24,0,0,1920,cir0.png,1699900693890,1024,2,48000,-16,experiment,p3sarrshacol4.png,0,even,Win32,cir,5,93,421065,93,421057,77,466932,15825,93,470458,16239,388288,386406,466932,15825,93,93,384255,384888,386405,381858,16240,384255,381858,470459,16239,GNET_4stim_recallt_idinput_-_TEST,0,80251,115,yes,3,1366
0,0,1,684,684,white,no,Mozilla,Netscape,"5.0 (Windows NT 10.0; Win64; x64) AppleWebKit/537.36 (KHTML, like Gecko) Chrome/118.0.0.0 Safari/537.36 OPR/104.0.0.0",xpyriment,3,2,0,4,1,5,0,0,0,legacy,legacy,0,uniform,,,,,0,0,2,0,2,0,160,6,2,0,0,160,6,0,0,160,6,0,0,0,160,6,0,0,0,0,79,79,79,79,79,0,79,79,2,0,6.403125,311.80625,13-10-23,13-10-23,19:37:15,Mon Nov 13 2023 19:37:15 GMT+0100 (közép-európai téli idő),The main experiment item,yes,1,0,,0,0,C:\Users\zymotik\Documents\!research\GNET,0,0,0,no,mono,no,18,no,black,no,no,768,2293,3.5.8,legacy,xpyriment,d8bq7g,None,osweb,1.4.0,620,1,[],tri5.png,5,1,tri,0,0,cir6.png,6,1,cir,0,-120,sqa3.png,3,1,sqa,-120,-120,cir2.png,2,1,cir,-120,0,tri5.png,5,1,tri,120,0,,,,,,0,1,1,enter,space,left,space,1701,1701,398,1881,2380,6975,2,3,legacy,1040,1920,24,1080,24,0,0,1920,sqa0.png,1699900693890,1024,2,48000,-16,experiment,p3sarrshacol4.png,0,even,Win32,cir,6,93,470470,93,470460,77,499418,15825,93,501126,16239,388288,386406,499418,15825,93,93,384255,384888,386405,381858,16240,384255,381858,501127,16239,GNET_4stim_recallt_idinput_-_TEST,0,110179,161,yes,3,1366
0,0,1,711,711,white,no,Mozilla,Netscape,"5.0 (Windows NT 10.0; Win64; x64) AppleWebKit/537.36 (KHTML, like Gecko) Chrome/118.0.0.0 Safari/537.36 OPR/104.0.0.0",xpyriment,3,2,0,1,5,4,0,0,0,legacy,legacy,0,uniform,,,,,0,0,3,0,3,0,186,6,3,0,0,186,6,0,0,186,6,0,0,0,186,6,0,0,0,0,79,79,79,79,79,0,79,79,3,0,24.901041666666664,318.9208333333333,13-10-23,13-10-23,19:37:15,Mon Nov 13 2023 19:37:15 GMT+0100 (közép-európai téli idő),The main experiment item,yes,1,0,,0,0,C:\Users\zymotik\Documents\!research\GNET,0,0,0,no,mono,no,18,no,black,no,no,768,2293,3.5.8,legacy,xpyriment,d8bq7g,None,osweb,1.4.0,620,1,[],tri3.png,3,1,tri,-120,0,sqa2.png,2,1,sqa,0,-120,cir1.png,1,1,cir,-120,-120,tri3.png,3,1,tri,120,0,sqa6.png,6,1,sqa,0,0,,,,,,0,1,1,enter,space,left,space,1854,1854,398,1881,2380,6975,2,4,legacy,1040,1920,24,1080,24,0,0,1920,tri0.png,1699900693890,1024,2,48000,-16,experiment,p3sarrshacol4.png,0,even,Win32,sqa,6,93,501137,93,501128,77,522585,15825,93,524444,16239,388288,386406,522585,15825,93,93,384255,384888,386405,381858,16240,384255,381858,524445,16239,GNET_4stim_recallt_idinput_-_TEST,0,133020,187,yes,4,1366
,,,,,,,Mozilla,Netscape,"5.0 (Windows NT 10.0; Win64; x64) AppleWebKit/537.36 (KHTML, like Gecko) Chrome/118.0.0.0 Safari/537.36 OPR/104.0.0.0",,,,,,,,,,,,,,,,,,,,,,,,,,,,,,,,,,,,,,,,,,,,,,,,,,,,,,,,,13-10-23,13-10-23,19:27:45,,,,,,,0,0,,0,0,0,,,,,,,,,,2292,3.5.8,,,d8bq7g,,,,,,,,,,,,,,,,,,,,,,,,,,,,,,,,,,,,,,,,,,,,,,,,,,,,,,,,,,1040,1920,24,1080,24,0,0,1920,,,,,,,,,,,Win32,,,,,,,,,,,,,,,,,,,,,,,,,,,,,,,,,,
undefined,undefined,,undefined,undefined,white,no,Mozilla,Netscape,"5.0 (Windows NT 10.0; Win64; x64) AppleWebKit/537.36 (KHTML, like Gecko) Chrome/118.0.0.0 Safari/537.36 OPR/104.0.0.0",xpyriment,,,,,,,,,,legacy,legacy,0,uniform,,,,,0,0,,0,,0,,7,,0,0,,7,0,0,,7,0,0,0,,7,0,0,0,0,0,0,0,0,0,0,0,0,,0,,,13-10-23,13-10-23,19:27:45,Mon Nov 13 2023 19:27:45 GMT+0100 (közép-európai téli idő),The main experiment item,yes,,,,0,0,C:\Users\zymotik\Documents\!research\GNET,0,0,0,no,mono,no,18,no,black,no,no,768,2292,3.5.8,legacy,xpyriment,d8bq7g,,osweb,1.4.0,1393,1,,,,,,,,,,,,,,,,,,,,,,,,,,,,,,,,,,,,,0,down,,enter,,down,space,1607,,4297,,1607,39646,2,0,legacy,1040,1920,24,1080,24,0,0,1920,,1699900073738,1024,2,48000,-16,experiment,p2sarrshacol1.png,1,odd,Win32,,,90,,90,,76,,28126,90,,32424,,,,28126,90,90,73709,75109,76626,72088,32425,73709,72088,,32424,GNET_4stim_recallt_idinput_-_TEST,0,0,0,yes,,1366
undefined,undefined,,undefined,undefined,white,no,Mozilla,Netscape,"5.0 (Windows NT 10.0; Win64; x64) AppleWebKit/537.36 (KHTML, like Gecko) Chrome/118.0.0.0 Safari/537.36 OPR/104.0.0.0",xpyriment,,,,,,,,,,legacy,legacy,0,uniform,,,,,0,0,,0,,0,,7,,0,0,,7,0,0,,7,0,0,0,,7,0,0,0,0,1,1,1,1,1,0,1,1,,0,,,13-10-23,13-10-23,19:27:45,Mon Nov 13 2023 19:27:45 GMT+0100 (közép-európai téli idő),The main experiment item,yes,,,,0,0,C:\Users\zymotik\Documents\!research\GNET,0,0,0,no,mono,no,18,no,black,no,no,768,2292,3.5.8,legacy,xpyriment,d8bq7g,,osweb,1.4.0,793,1,,,,,,,,,,,,,,,,,,,,,,,,,,,,,,,,,,,,,0,right,,enter,,right,space,2207,,4297,,2207,39646,2,0,legacy,1040,1920,24,1080,24,0,0,1920,,1699900073738,1024,2,48000,-16,experiment,p4sarr4.png,1,odd,Win32,,,90,,90,,76,,28126,90,,32424,,,,28126,90,90,78842,79642,81159,76632,32425,78843,76632,,32424,GNET_4stim_recallt_idinput_-_TEST,0,0,0,yes,,1366
undefined,undefined,,undefined,undefined,white,no,Mozilla,Netscape,"5.0 (Windows NT 10.0; Win64; x64) AppleWebKit/537.36 (KHTML, like Gecko) Chrome/118.0.0.0 Safari/537.36 OPR/104.0.0.0",xpyriment,,,,,,,,,,legacy,legacy,0,uniform,,,,,0,0,,0,,0,,7,,0,0,,7,0,0,,7,0,0,0,,7,0,0,0,0,2,2,2,2,2,0,2,2,,0,,,13-10-23,13-10-23,19:27:45,Mon Nov 13 2023 19:27:45 GMT+0100 (közép-európai téli idő),The main experiment item,yes,,,,0,0,C:\Users\zymotik\Documents\!research\GNET,0,0,0,no,mono,no,18,no,black,no,no,768,2292,3.5.8,legacy,xpyriment,d8bq7g,,osweb,1.4.0,1165,1,,,,,,,,,,,,,,,,,,,,,,,,,,,,,,,,,,,,,0,right,,enter,,right,space,1835,,4297,,1835,39646,2,0,legacy,1040,1920,24,1080,24,0,0,1920,,1699900073738,1024,2,48000,-16,experiment,p7sarr2.png,1,odd,Win32,,,90,,90,,76,,28126,90,,32424,,,,28126,90,90,83009,84176,85693,81164,32425,83010,81164,,32424,GNET_4stim_recallt_idinput_-_TEST,0,0,0,yes,,1366
undefined,undefined,,undefined,undefined,white,no,Mozilla,Netscape,"5.0 (Windows NT 10.0; Win64; x64) AppleWebKit/537.36 (KHTML, like Gecko) Chrome/118.0.0.0 Safari/537.36 OPR/104.0.0.0",xpyriment,,,,,,,,,,legacy,legacy,0,uniform,,,,,0,0,,0,,0,,7,,0,0,,7,0,0,,7,0,0,0,,7,0,0,0,0,3,3,3,3,3,0,3,3,,0,,,13-10-23,13-10-23,19:27:45,Mon Nov 13 2023 19:27:45 GMT+0100 (közép-európai téli idő),The main experiment item,yes,,,,0,0,C:\Users\zymotik\Documents\!research\GNET,0,0,0,no,mono,no,18,no,black,no,no,768,2292,3.5.8,legacy,xpyriment,d8bq7g,,osweb,1.4.0,1859,1,,,,,,,,,,,,,,,,,,,,,,,,,,,,,,,,,,,,,0,down,,enter,,down,space,1141,,4297,,1141,39646,2,0,legacy,1040,1920,24,1080,24,0,0,1920,,1699900073738,1024,2,48000,-16,experiment,p1sarrsha4.png,1,odd,Win32,,,90,,90,,76,,28126,90,,32424,,,,28126,90,90,86843,88709,90226,85698,32425,86843,85698,,32424,GNET_4stim_recallt_idinput_-_TEST,0,0,0,yes,,1366
undefined,undefined,,undefined,undefined,white,no,Mozilla,Netscape,"5.0 (Windows NT 10.0; Win64; x64) AppleWebKit/537.36 (KHTML, like Gecko) Chrome/118.0.0.0 Safari/537.36 OPR/104.0.0.0",xpyriment,,,,,,,,,,legacy,legacy,0,uniform,,,,,0,0,,0,,0,,7,,0,0,,7,0,0,,7,0,0,0,,7,0,0,0,0,4,4,4,4,4,0,4,4,,0,,,13-10-23,13-10-23,19:27:45,Mon Nov 13 2023 19:27:45 GMT+0100 (közép-európai téli idő),The main experiment item,yes,,,,0,0,C:\Users\zymotik\Documents\!research\GNET,0,0,0,no,mono,no,18,no,black,no,no,768,2292,3.5.8,legacy,xpyriment,d8bq7g,,osweb,1.4.0,1976,1,,,,,,,,,,,,,,,,,,,,,,,,,,,,,,,,,,,,,0,left,,enter,,left,space,1024,,4297,,1024,39646,2,0,legacy,1040,1920,24,1080,24,0,0,1920,,1699900073738,1024,2,48000,-16,experiment,p3sarrcol2.png,1,odd,Win32,,,90,,90,,76,,28126,90,,32424,,,,28126,90,90,91259,93243,94760,90231,32425,91260,90231,,32424,GNET_4stim_recallt_idinput_-_TEST,0,0,0,yes,,1366
undefined,undefined,,undefined,undefined,white,no,Mozilla,Netscape,"5.0 (Windows NT 10.0; Win64; x64) AppleWebKit/537.36 (KHTML, like Gecko) Chrome/118.0.0.0 Safari/537.36 OPR/104.0.0.0",xpyriment,,,,,,,,,,legacy,legacy,0,uniform,,,,,0,0,,0,,0,,7,,0,0,,7,0,0,,7,0,0,0,,7,0,0,0,0,5,5,5,5,5,0,5,5,,0,,,13-10-23,13-10-23,19:27:45,Mon Nov 13 2023 19:27:45 GMT+0100 (közép-európai téli idő),The main experiment item,yes,,,,0,0,C:\Users\zymotik\Documents\!research\GNET,0,0,0,no,mono,no,18,no,black,no,no,768,2292,3.5.8,legacy,xpyriment,d8bq7g,,osweb,1.4.0,1942,1,,,,,,,,,,,,,,,,,,,,,,,,,,,,,,,,,,,,,0,left,,enter,,left,space,1058,,4297,,1058,39646,2,0,legacy,1040,1920,24,1080,24,0,0,1920,,1699900073738,1024,2,48000,-16,experiment,p3sarrcol3.png,1,odd,Win32,,,90,,90,,76,,28126,90,,32424,,,,28126,90,90,95826,97777,99293,94764,32425,95827,94764,,32424,GNET_4stim_recallt_idinput_-_TEST,0,0,0,yes,,1366
undefined,undefined,,undefined,undefined,white,no,Mozilla,Netscape,"5.0 (Windows NT 10.0; Win64; x64) AppleWebKit/537.36 (KHTML, like Gecko) Chrome/118.0.0.0 Safari/537.36 OPR/104.0.0.0",xpyriment,,,,,,,,,,legacy,legacy,0,uniform,,,,,0,0,,0,,0,,7,,0,0,,7,0,0,,7,0,0,0,,7,0,0,0,0,6,6,6,6,6,0,6,6,,0,,,13-10-23,13-10-23,19:27:45,Mon Nov 13 2023 19:27:45 GMT+0100 (közép-európai téli idő),The main experiment item,yes,,,,0,0,C:\Users\zymotik\Documents\!research\GNET,0,0,0,no,mono,no,18,no,black,no,no,768,2292,3.5.8,legacy,xpyriment,d8bq7g,,osweb,1.4.0,1699,1,,,,,,,,,,,,,,,,,,,,,,,,,,,,,,,,,,,,,0,left,,enter,,left,space,1301,,4297,,1301,39646,2,0,legacy,1040,1920,24,1080,24,0,0,1920,,1699900073738,1024,2,48000,-16,experiment,p1sarrsha1.png,1,odd,Win32,,,90,,90,,76,,28126,90,,32424,,,,28126,90,90,100610,102310,103827,99297,32425,100610,99297,,32424,GNET_4stim_recallt_idinput_-_TEST,0,0,0,yes,,1366
undefined,undefined,,undefined,undefined,white,no,Mozilla,Netscape,"5.0 (Windows NT 10.0; Win64; x64) AppleWebKit/537.36 (KHTML, like Gecko) Chrome/118.0.0.0 Safari/537.36 OPR/104.0.0.0",xpyriment,,,,,,,,,,legacy,legacy,0,uniform,,,,,0,0,,0,,0,,7,,0,0,,7,0,0,,7,0,0,0,,7,0,0,0,0,7,7,7,7,7,0,7,7,,0,,,13-10-23,13-10-23,19:27:45,Mon Nov 13 2023 19:27:45 GMT+0100 (közép-európai téli idő),The main experiment item,yes,,,,0,0,C:\Users\zymotik\Documents\!research\GNET,0,0,0,no,mono,no,18,no,black,no,no,768,2292,3.5.8,legacy,xpyriment,d8bq7g,,osweb,1.4.0,1885,1,,,,,,,,,,,,,,,,,,,,,,,,,,,,,,,,,,,,,0,left,,enter,,left,space,1115,,4297,,1115,39646,2,0,legacy,1040,1920,24,1080,24,0,0,1920,,1699900073738,1024,2,48000,-16,experiment,p4sarr1.png,1,odd,Win32,,,90,,90,,76,,28126,90,,32424,,,,28126,90,90,104960,106860,108377,103836,32425,104961,103836,,32424,GNET_4stim_recallt_idinput_-_TEST,0,0,0,yes,,1366
undefined,undefined,,undefined,undefined,white,no,Mozilla,Netscape,"5.0 (Windows NT 10.0; Win64; x64) AppleWebKit/537.36 (KHTML, like Gecko) Chrome/118.0.0.0 Safari/537.36 OPR/104.0.0.0",xpyriment,,,,,,,,,,legacy,legacy,0,uniform,,,,,0,0,,0,,0,,7,,0,0,,7,0,0,,7,0,0,0,,7,0,0,0,0,8,8,8,8,8,0,8,8,,0,,,13-10-23,13-10-23,19:27:45,Mon Nov 13 2023 19:27:45 GMT+0100 (közép-európai téli idő),The main experiment item,yes,,,,0,0,C:\Users\zymotik\Documents\!research\GNET,0,0,0,no,mono,no,18,no,black,no,no,768,2292,3.5.8,legacy,xpyriment,d8bq7g,,osweb,1.4.0,1662,1,,,,,,,,,,,,,,,,,,,,,,,,,,,,,,,,,,,,,0,right,,enter,,right,space,1338,,4297,,1338,39646,2,0,legacy,1040,1920,24,1080,24,0,0,1920,,1699900073738,1024,2,48000,-16,experiment,p9sarr2.png,1,odd,Win32,,,90,,90,,76,,28126,90,,32424,,,,28126,90,90,109727,111394,112910,108381,32425,109727,108381,,32424,GNET_4stim_recallt_idinput_-_TEST,0,0,0,yes,,1366
undefined,undefined,,undefined,undefined,white,no,Mozilla,Netscape,"5.0 (Windows NT 10.0; Win64; x64) AppleWebKit/537.36 (KHTML, like Gecko) Chrome/118.0.0.0 Safari/537.36 OPR/104.0.0.0",xpyriment,,,,,,,,,,legacy,legacy,0,uniform,,,,,0,0,,0,,0,,7,,0,0,,7,0,0,,7,0,0,0,,7,0,0,0,0,9,9,9,9,9,0,9,9,,0,,,13-10-23,13-10-23,19:27:45,Mon Nov 13 2023 19:27:45 GMT+0100 (közép-európai téli idő),The main experiment item,yes,,,,0,0,C:\Users\zymotik\Documents\!research\GNET,0,0,0,no,mono,no,18,no,black,no,no,768,2292,3.5.8,legacy,xpyriment,d8bq7g,,osweb,1.4.0,1691,1,,,,,,,,,,,,,,,,,,,,,,,,,,,,,,,,,,,,,0,right,,enter,,right,space,1309,,4297,,1309,39646,2,0,legacy,1040,1920,24,1080,24,0,0,1920,,1699900073738,1024,2,48000,-16,experiment,p1sarr2.png,1,odd,Win32,,,90,,90,,76,,28126,90,,32424,,,,28126,90,90,114227,115927,117444,112914,32425,114228,112914,,32424,GNET_4stim_recallt_idinput_-_TEST,0,0,0,yes,,1366
undefined,undefined,,undefined,undefined,white,no,Mozilla,Netscape,"5.0 (Windows NT 10.0; Win64; x64) AppleWebKit/537.36 (KHTML, like Gecko) Chrome/118.0.0.0 Safari/537.36 OPR/104.0.0.0",xpyriment,,,,,,,,,,legacy,legacy,0,uniform,,,,,0,0,,0,,0,,7,,0,0,,7,0,0,,7,0,0,0,,7,0,0,0,0,10,10,10,10,10,0,10,10,,0,,,13-10-23,13-10-23,19:27:45,Mon Nov 13 2023 19:27:45 GMT+0100 (közép-európai téli idő),The main experiment item,yes,,,,0,0,C:\Users\zymotik\Documents\!research\GNET,0,0,0,no,mono,no,18,no,black,no,no,768,2292,3.5.8,legacy,xpyriment,d8bq7g,,osweb,1.4.0,1441,1,,,,,,,,,,,,,,,,,,,,,,,,,,,,,,,,,,,,,0,left,,enter,,left,space,1559,,4297,,1559,39646,2,0,legacy,1040,1920,24,1080,24,0,0,1920,,1699900073738,1024,2,48000,-16,experiment,p3sarrcol4.png,1,odd,Win32,,,90,,90,,76,,28126,90,,32424,,,,28126,90,90,119011,120461,121977,117448,32425,119011,117448,,32424,GNET_4stim_recallt_idinput_-_TEST,0,0,0,yes,,1366
undefined,undefined,,undefined,undefined,white,no,Mozilla,Netscape,"5.0 (Windows NT 10.0; Win64; x64) AppleWebKit/537.36 (KHTML, like Gecko) Chrome/118.0.0.0 Safari/537.36 OPR/104.0.0.0",xpyriment,,,,,,,,,,legacy,legacy,0,uniform,,,,,0,0,,0,,0,,7,,0,0,,7,0,0,,7,0,0,0,,7,0,0,0,0,11,11,11,11,11,0,11,11,,0,,,13-10-23,13-10-23,19:27:45,Mon Nov 13 2023 19:27:45 GMT+0100 (közép-európai téli idő),The main experiment item,yes,,,,0,0,C:\Users\zymotik\Documents\!research\GNET,0,0,0,no,mono,no,18,no,black,no,no,768,2292,3.5.8,legacy,xpyriment,d8bq7g,,osweb,1.4.0,87,1,,,,,,,,,,,,,,,,,,,,,,,,,,,,,,,,,,,,,0,down,,enter,,down,space,2913,,4297,,2913,39646,2,0,legacy,1040,1920,24,1080,24,0,0,1920,,1699900073738,1024,2,48000,-16,experiment,p2sarrshacol2.png,1,odd,Win32,,,90,,90,,76,,28126,90,,32424,,,,28126,90,90,124911,125011,126528,121981,32425,124911,121981,,32424,GNET_4stim_recallt_idinput_-_TEST,0,0,0,yes,,1366
undefined,undefined,,undefined,undefined,white,no,Mozilla,Netscape,"5.0 (Windows NT 10.0; Win64; x64) AppleWebKit/537.36 (KHTML, like Gecko) Chrome/118.0.0.0 Safari/537.36 OPR/104.0.0.0",xpyriment,,,,,,,,,,legacy,legacy,0,uniform,,,,,0,0,,0,,0,,7,,0,0,,7,0,0,,7,0,0,0,,7,0,0,0,0,12,12,12,12,12,0,12,12,,0,,,13-10-23,13-10-23,19:27:45,Mon Nov 13 2023 19:27:45 GMT+0100 (közép-európai téli idő),The main experiment item,yes,,,,0,0,C:\Users\zymotik\Documents\!research\GNET,0,0,0,no,mono,no,18,no,black,no,no,768,2292,3.5.8,legacy,xpyriment,d8bq7g,,osweb,1.4.0,1989,1,,,,,,,,,,,,,,,,,,,,,,,,,,,,,,,,,,,,,0,right,,enter,,right,space,1011,,4297,,1011,39646,2,0,legacy,1040,1920,24,1080,24,0,0,1920,,1699900073738,1024,2,48000,-16,experiment,p6sarr1.png,1,odd,Win32,,,90,,90,,76,,28126,90,,32424,,,,28126,90,90,127544,129545,131061,126532,32425,127545,126532,,32424,GNET_4stim_recallt_idinput_-_TEST,0,0,0,yes,,1366
undefined,undefined,,undefined,undefined,white,no,Mozilla,Netscape,"5.0 (Windows NT 10.0; Win64; x64) AppleWebKit/537.36 (KHTML, like Gecko) Chrome/118.0.0.0 Safari/537.36 OPR/104.0.0.0",xpyriment,,,,,,,,,,legacy,legacy,0,uniform,,,,,0,0,,0,,0,,7,,0,0,,7,0,0,,7,0,0,0,,7,0,0,0,0,13,13,13,13,13,0,13,13,,0,,,13-10-23,13-10-23,19:27:45,Mon Nov 13 2023 19:27:45 GMT+0100 (közép-európai téli idő),The main experiment item,yes,,,,0,0,C:\Users\zymotik\Documents\!research\GNET,0,0,0,no,mono,no,18,no,black,no,no,768,2292,3.5.8,legacy,xpyriment,d8bq7g,,osweb,1.4.0,1756,1,,,,,,,,,,,,,,,,,,,,,,,,,,,,,,,,,,,,,0,left,,enter,,left,space,1244,,4297,,1244,39646,2,0,legacy,1040,1920,24,1080,24,0,0,1920,,1699900073738,1024,2,48000,-16,experiment,p4sarrshacol3.png,1,odd,Win32,,,90,,90,,76,,28126,90,,32424,,,,28126,90,90,132311,134078,135595,131066,32425,132312,131066,,32424,GNET_4stim_recallt_idinput_-_TEST,0,0,0,yes,,1366
undefined,undefined,,undefined,undefined,white,no,Mozilla,Netscape,"5.0 (Windows NT 10.0; Win64; x64) AppleWebKit/537.36 (KHTML, like Gecko) Chrome/118.0.0.0 Safari/537.36 OPR/104.0.0.0",xpyriment,,,,,,,,,,legacy,legacy,0,uniform,,,,,0,0,,0,,0,,7,,0,0,,7,0,0,,7,0,0,0,,7,0,0,0,0,14,14,14,14,14,0,14,14,,0,,,13-10-23,13-10-23,19:27:45,Mon Nov 13 2023 19:27:45 GMT+0100 (közép-európai téli idő),The main experiment item,yes,,,,0,0,C:\Users\zymotik\Documents\!research\GNET,0,0,0,no,mono,no,18,no,black,no,no,768,2292,3.5.8,legacy,xpyriment,d8bq7g,,osweb,1.4.0,1721,1,,,,,,,,,,,,,,,,,,,,,,,,,,,,,,,,,,,,,0,left,,enter,,left,space,1279,,4297,,1279,39646,2,0,legacy,1040,1920,24,1080,24,0,0,1920,,1699900073738,1024,2,48000,-16,experiment,p4sarrshacol4.png,1,odd,Win32,,,90,,90,,76,,28126,90,,32424,,,,28126,90,90,136895,138628,140145,135599,32425,136895,135599,,32424,GNET_4stim_recallt_idinput_-_TEST,0,0,0,yes,,1366
undefined,undefined,,undefined,undefined,white,no,Mozilla,Netscape,"5.0 (Windows NT 10.0; Win64; x64) AppleWebKit/537.36 (KHTML, like Gecko) Chrome/118.0.0.0 Safari/537.36 OPR/104.0.0.0",xpyriment,,,,,,,,,,legacy,legacy,0,uniform,,,,,0,0,,0,,0,,7,,0,0,,7,0,0,,7,0,0,0,,7,0,0,0,0,15,15,15,15,15,0,15,15,,0,,,13-10-23,13-10-23,19:27:45,Mon Nov 13 2023 19:27:45 GMT+0100 (közép-európai téli idő),The main experiment item,yes,,,,0,0,C:\Users\zymotik\Documents\!research\GNET,0,0,0,no,mono,no,18,no,black,no,no,768,2292,3.5.8,legacy,xpyriment,d8bq7g,,osweb,1.4.0,1887,1,,,,,,,,,,,,,,,,,,,,,,,,,,,,,,,,,,,,,0,right,,enter,,right,space,1113,,4297,,1113,39646,2,0,legacy,1040,1920,24,1080,24,0,0,1920,,1699900073738,1024,2,48000,-16,experiment,p2sarrcol1.png,1,odd,Win32,,,90,,90,,76,,28126,90,,32424,,,,28126,90,90,141278,143180,144695,140149,32425,141279,140149,,32424,GNET_4stim_recallt_idinput_-_TEST,0,0,0,yes,,1366
undefined,undefined,,undefined,undefined,white,no,Mozilla,Netscape,"5.0 (Windows NT 10.0; Win64; x64) AppleWebKit/537.36 (KHTML, like Gecko) Chrome/118.0.0.0 Safari/537.36 OPR/104.0.0.0",xpyriment,,,,,,,,,,legacy,legacy,0,uniform,,,,,0,0,,0,,0,,7,,0,0,,7,0,0,,7,0,0,0,,7,0,0,0,0,16,16,16,16,16,0,16,16,,0,,,13-10-23,13-10-23,19:27:45,Mon Nov 13 2023 19:27:45 GMT+0100 (közép-európai téli idő),The main experiment item,yes,,,,0,0,C:\Users\zymotik\Documents\!research\GNET,0,0,0,no,mono,no,18,no,black,no,no,768,2292,3.5.8,legacy,xpyriment,d8bq7g,,osweb,1.4.0,2124,1,,,,,,,,,,,,,,,,,,,,,,,,,,,,,,,,,,,,,0,right,,enter,,right,space,876,,4297,,876,39646,2,0,legacy,1040,1920,24,1080,24,0,0,1920,,1699900073738,1024,2,48000,-16,experiment,p1sarr4.png,1,odd,Win32,,,90,,90,,76,,28126,90,,32424,,,,28126,90,90,145578,147712,149229,144699,32425,145579,144699,,32424,GNET_4stim_recallt_idinput_-_TEST,0,0,0,yes,,1366
undefined,undefined,,undefined,undefined,white,no,Mozilla,Netscape,"5.0 (Windows NT 10.0; Win64; x64) AppleWebKit/537.36 (KHTML, like Gecko) Chrome/118.0.0.0 Safari/537.36 OPR/104.0.0.0",xpyriment,,,,,,,,,,legacy,legacy,0,uniform,,,,,0,0,,0,,0,,7,,0,0,,7,0,0,,7,0,0,0,,7,0,0,0,0,17,17,17,17,17,0,17,17,,0,,,13-10-23,13-10-23,19:27:45,Mon Nov 13 2023 19:27:45 GMT+0100 (közép-európai téli idő),The main experiment item,yes,,,,0,0,C:\Users\zymotik\Documents\!research\GNET,0,0,0,no,mono,no,18,no,black,no,no,768,2292,3.5.8,legacy,xpyriment,d8bq7g,,osweb,1.4.0,2185,1,,,,,,,,,,,,,,,,,,,,,,,,,,,,,,,,,,,,,0,right,,enter,,right,space,815,,4297,,815,39646,2,0,legacy,1040,1920,24,1080,24,0,0,1920,,1699900073738,1024,2,48000,-16,experiment,p8sarr3.png,1,odd,Win32,,,90,,90,,76,,28126,90,,32424,,,,28126,90,90,150062,152262,153779,149232,32425,150062,149232,,32424,GNET_4stim_recallt_idinput_-_TEST,0,0,0,yes,,1366
undefined,undefined,,undefined,undefined,white,no,Mozilla,Netscape,"5.0 (Windows NT 10.0; Win64; x64) AppleWebKit/537.36 (KHTML, like Gecko) Chrome/118.0.0.0 Safari/537.36 OPR/104.0.0.0",xpyriment,,,,,,,,,,legacy,legacy,0,uniform,,,,,0,0,,0,,0,,7,,0,0,,7,0,0,,7,0,0,0,,7,0,0,0,0,18,18,18,18,18,0,18,18,,0,,,13-10-23,13-10-23,19:27:45,Mon Nov 13 2023 19:27:45 GMT+0100 (közép-európai téli idő),The main experiment item,yes,,,,0,0,C:\Users\zymotik\Documents\!research\GNET,0,0,0,no,mono,no,18,no,black,no,no,768,2292,3.5.8,legacy,xpyriment,d8bq7g,,osweb,1.4.0,1753,1,,,,,,,,,,,,,,,,,,,,,,,,,,,,,,,,,,,,,0,right,,enter,,right,space,1247,,4297,,1247,39646,2,0,legacy,1040,1920,24,1080,24,0,0,1920,,1699900073738,1024,2,48000,-16,experiment,p9sarr4.png,1,odd,Win32,,,90,,90,,76,,28126,90,,32424,,,,28126,90,90,155046,156812,158329,153783,32425,155046,153783,,32424,GNET_4stim_recallt_idinput_-_TEST,0,0,0,yes,,1366
undefined,undefined,,undefined,undefined,white,no,Mozilla,Netscape,"5.0 (Windows NT 10.0; Win64; x64) AppleWebKit/537.36 (KHTML, like Gecko) Chrome/118.0.0.0 Safari/537.36 OPR/104.0.0.0",xpyriment,,,,,,,,,,legacy,legacy,0,uniform,,,,,0,0,,0,,0,,7,,0,0,,7,0,0,,7,0,0,0,,7,0,0,0,0,19,19,19,19,19,0,19,19,,0,,,13-10-23,13-10-23,19:27:45,Mon Nov 13 2023 19:27:45 GMT+0100 (közép-európai téli idő),The main experiment item,yes,,,,0,0,C:\Users\zymotik\Documents\!research\GNET,0,0,0,no,mono,no,18,no,black,no,no,768,2292,3.5.8,legacy,xpyriment,d8bq7g,,osweb,1.4.0,1463,1,,,,,,,,,,,,,,,,,,,,,,,,,,,,,,,,,,,,,0,right,,enter,,right,space,1537,,4297,,1537,39646,2,0,legacy,1040,1920,24,1080,24,0,0,1920,,1699900073738,1024,2,48000,-16,experiment,p7sarr4.png,1,odd,Win32,,,90,,90,,76,,28126,90,,32424,,,,28126,90,90,159879,161346,162862,158333,32425,159879,158333,,32424,GNET_4stim_recallt_idinput_-_TEST,0,0,0,yes,,1366
undefined,undefined,,undefined,undefined,white,no,Mozilla,Netscape,"5.0 (Windows NT 10.0; Win64; x64) AppleWebKit/537.36 (KHTML, like Gecko) Chrome/118.0.0.0 Safari/537.36 OPR/104.0.0.0",xpyriment,,,,,,,,,,legacy,legacy,0,uniform,,,,,0,0,,0,,0,,7,,0,0,,7,0,0,,7,0,0,0,,7,0,0,0,0,20,20,20,20,20,0,20,20,,0,,,13-10-23,13-10-23,19:27:45,Mon Nov 13 2023 19:27:45 GMT+0100 (közép-európai téli idő),The main experiment item,yes,,,,0,0,C:\Users\zymotik\Documents\!research\GNET,0,0,0,no,mono,no,18,no,black,no,no,768,2292,3.5.8,legacy,xpyriment,d8bq7g,,osweb,1.4.0,2035,1,,,,,,,,,,,,,,,,,,,,,,,,,,,,,,,,,,,,,0,left,,enter,,left,space,965,,4297,,965,39646,2,0,legacy,1040,1920,24,1080,24,0,0,1920,,1699900073738,1024,2,48000,-16,experiment,p3sarrsha3.png,1,odd,Win32,,,90,,90,,76,,28126,90,,32424,,,,28126,90,90,163846,165896,167413,162866,32425,163846,162866,,32424,GNET_4stim_recallt_idinput_-_TEST,0,0,0,yes,,1366
