acc,accuracy,average_response_time,avg_rt,background,bidi,browser_codename,browser_name,browser_version,canvas_backend,clock_backend,color_backend,compensation,coordinates,correct,correct_number_input_1,correct_study_response,count_end,count_experiment,count_famrecall,count_get_input_loop_1,count_get_input_sequence_1,count_init_1,count_neptun_textinput,count_number_input_1,count_osweb,count_prestudy,count_prestudy_isi,count_prestudy_sequence,count_prestudy_stimpres,count_process_input_1,count_recall,count_recallcounter,count_recalltest_start,count_show_input_1,count_start,count_study,count_study_getresptime,count_study_isi,count_study_logger,count_study_response,count_study_sequence,count_study_start,count_study_stimp2,count_study_stimpres,count_test,count_test_start,count_textinp_1,date_startdate,date_startdateUTC,date_starttime,datetime,description,disable_garbage_collection,empty_column,experiment_debug,experiment_parameters,experiment_path,experiment_pilot,experiment_taskname,experiment_taskversion,fampict,font_bold,font_family,font_italic,font_size,font_underline,foreground,form_clicks,fullscreen,height,jatosStudyResultId,jatosVersion,keyboard_backend,mouse_backend,multichar_knowresp,opensesame_codename,opensesame_version,p2dur,penwidth,repeat_cycle,response,response_number_input_1,response_start,response_study_response,response_study_start,response_time,response_time_number_input_1,response_time_start,response_time_study_response,response_time_study_start,round_decimals,rtnr,sampler_backend,screen_availableHeight,screen_availableWidth,screen_colorDepth,screen_height,screen_pixelDepth,screen_screenX,screen_screenY,screen_width,sessionid,sound_buf_size,sound_channels,sound_freq,sound_sample_size,start,stim,subject_nr,subject_parity,system_os,time_famrecall,time_get_input_loop_1,time_init_1,time_number_input_1,time_prestudy,time_prestudy_isi,time_prestudy_stimpres,time_process_input_1,time_show_input_1,time_start,time_study,time_study_getresptime,time_study_isi,time_study_logger,time_study_response,time_study_start,time_study_stimp2,time_study_stimpres,time_test,time_textinp_1,title,total_correct,total_response_time,total_responses,uniform_coordinates,width
,,,,,,Mozilla,Netscape,"5.0 (Windows NT 10.0; Win64; x64) AppleWebKit/537.36 (KHTML, like Gecko) Chrome/118.0.0.0 Safari/537.36 OPR/104.0.0.0",,,,,,,,,,,,,,,,,,,,,,,,,,,,,,,,,,,,,,,,13-10-23,13-10-23,17:31:23,,,,,0,0,,0,0,0,,,,,,,,,,,2291,3.5.8,,,d8bq7g,,,,,,,,,,,,,,,,,,,1040,1920,24,1080,24,0,0,1920,,,,,,,,,,Win32,,,,,,,,,,,,,,,,,,,,,,,,,,
0,0,1180,1180,white,no,Mozilla,Netscape,"5.0 (Windows NT 10.0; Win64; x64) AppleWebKit/537.36 (KHTML, like Gecko) Chrome/118.0.0.0 Safari/537.36 OPR/104.0.0.0",xpyriment,legacy,legacy,0,uniform,,,,0,0,0,0,19,0,0,19,0,0,19,19,19,19,0,0,0,19,0,0,0,0,0,0,0,0,0,0,0,0,0,13-10-23,13-10-23,17:31:23,Mon Nov 13 2023 17:31:23 GMT+0100 (közép-európai téli idő),The main experiment item,yes,,0,0,C:\Users\zymotik\Documents\!research\GNET,0,0,0,prototype3.png,no,mono,no,18,no,black,no,no,768,2291,3.5.8,legacy,xpyriment,d8bq7g,osweb,1.4.0,785,1,0,right,enter,space,right,space,2215,5115,17871,2215,22142,2,0,legacy,1040,1920,24,1080,24,0,0,1920,1699893176773,1024,2,48000,-16,experiment,p3sarrsha1.png,0,even,Win32,98,98,71,17716,98,129869,126852,22831,17716,22832,98,155770,156570,158086,153544,131385,155770,153544,98,22831,GNET_4stim_recallt_idinput_-_STUDY,0,24770,21,yes,1366
0,0,1184,1184,white,no,Mozilla,Netscape,"5.0 (Windows NT 10.0; Win64; x64) AppleWebKit/537.36 (KHTML, like Gecko) Chrome/118.0.0.0 Safari/537.36 OPR/104.0.0.0",xpyriment,legacy,legacy,0,uniform,,,,0,0,0,0,19,0,0,19,0,0,19,19,19,19,0,0,0,19,0,0,1,1,1,1,1,0,1,1,0,0,0,13-10-23,13-10-23,17:31:23,Mon Nov 13 2023 17:31:23 GMT+0100 (közép-európai téli idő),The main experiment item,yes,,0,0,C:\Users\zymotik\Documents\!research\GNET,0,0,0,prototype3.png,no,mono,no,18,no,black,no,no,768,2291,3.5.8,legacy,xpyriment,d8bq7g,osweb,1.4.0,1723,1,0,left,enter,space,left,space,1277,5115,17871,1277,22142,2,0,legacy,1040,1920,24,1080,24,0,0,1920,1699893176773,1024,2,48000,-16,experiment,p3sarrcol2.png,0,even,Win32,98,98,71,17716,98,129869,126852,22831,17716,22832,98,159370,161103,162620,158090,131385,159370,158090,98,22831,GNET_4stim_recallt_idinput_-_STUDY,0,26047,22,yes,1366
0,0,1175,1175,white,no,Mozilla,Netscape,"5.0 (Windows NT 10.0; Win64; x64) AppleWebKit/537.36 (KHTML, like Gecko) Chrome/118.0.0.0 Safari/537.36 OPR/104.0.0.0",xpyriment,legacy,legacy,0,uniform,,,,0,0,0,0,19,0,0,19,0,0,19,19,19,19,0,0,0,19,0,0,2,2,2,2,2,0,2,2,0,0,0,13-10-23,13-10-23,17:31:23,Mon Nov 13 2023 17:31:23 GMT+0100 (közép-európai téli idő),The main experiment item,yes,,0,0,C:\Users\zymotik\Documents\!research\GNET,0,0,0,prototype3.png,no,mono,no,18,no,black,no,no,768,2291,3.5.8,legacy,xpyriment,d8bq7g,osweb,1.4.0,2033,1,0,right,enter,space,right,space,967,5115,17871,967,22142,2,0,legacy,1040,1920,24,1080,24,0,0,1920,1699893176773,1024,2,48000,-16,experiment,p9sarr2.png,0,even,Win32,98,98,71,17716,98,129869,126852,22831,17716,22832,98,163603,165653,167170,162624,131385,163604,162624,98,22831,GNET_4stim_recallt_idinput_-_STUDY,0,27014,23,yes,1366
0,0,1167,1167,white,no,Mozilla,Netscape,"5.0 (Windows NT 10.0; Win64; x64) AppleWebKit/537.36 (KHTML, like Gecko) Chrome/118.0.0.0 Safari/537.36 OPR/104.0.0.0",xpyriment,legacy,legacy,0,uniform,,,,0,0,0,0,19,0,0,19,0,0,19,19,19,19,0,0,0,19,0,0,3,3,3,3,3,0,3,3,0,0,0,13-10-23,13-10-23,17:31:23,Mon Nov 13 2023 17:31:23 GMT+0100 (közép-európai téli idő),The main experiment item,yes,,0,0,C:\Users\zymotik\Documents\!research\GNET,0,0,0,prototype3.png,no,mono,no,18,no,black,no,no,768,2291,3.5.8,legacy,xpyriment,d8bq7g,osweb,1.4.0,2014,1,0,right,enter,space,right,space,986,5115,17871,986,22142,2,0,legacy,1040,1920,24,1080,24,0,0,1920,1699893176773,1024,2,48000,-16,experiment,p8sarr1.png,0,even,Win32,98,98,71,17716,98,129869,126852,22831,17716,22832,98,168170,170187,171703,167173,131385,168170,167173,98,22831,GNET_4stim_recallt_idinput_-_STUDY,0,28000,24,yes,1366
0,0,1161,1161,white,no,Mozilla,Netscape,"5.0 (Windows NT 10.0; Win64; x64) AppleWebKit/537.36 (KHTML, like Gecko) Chrome/118.0.0.0 Safari/537.36 OPR/104.0.0.0",xpyriment,legacy,legacy,0,uniform,,,,0,0,0,0,19,0,0,19,0,0,19,19,19,19,0,0,0,19,0,0,4,4,4,4,4,0,4,4,0,0,0,13-10-23,13-10-23,17:31:23,Mon Nov 13 2023 17:31:23 GMT+0100 (közép-európai téli idő),The main experiment item,yes,,0,0,C:\Users\zymotik\Documents\!research\GNET,0,0,0,prototype3.png,no,mono,no,18,no,black,no,no,768,2291,3.5.8,legacy,xpyriment,d8bq7g,osweb,1.4.0,1980,1,0,left,enter,space,left,space,1020,5115,17871,1020,22142,2,0,legacy,1040,1920,24,1080,24,0,0,1920,1699893176773,1024,2,48000,-16,experiment,prototype4.png,0,even,Win32,98,98,71,17716,98,129869,126852,22831,17716,22832,98,172737,174720,176237,171707,131385,172737,171707,98,22831,GNET_4stim_recallt_idinput_-_STUDY,0,29020,25,yes,1366
0,0,1149,1149,white,no,Mozilla,Netscape,"5.0 (Windows NT 10.0; Win64; x64) AppleWebKit/537.36 (KHTML, like Gecko) Chrome/118.0.0.0 Safari/537.36 OPR/104.0.0.0",xpyriment,legacy,legacy,0,uniform,,,,0,0,0,0,19,0,0,19,0,0,19,19,19,19,0,0,0,19,0,0,5,5,5,5,5,0,5,5,0,0,0,13-10-23,13-10-23,17:31:23,Mon Nov 13 2023 17:31:23 GMT+0100 (közép-európai téli idő),The main experiment item,yes,,0,0,C:\Users\zymotik\Documents\!research\GNET,0,0,0,prototype3.png,no,mono,no,18,no,black,no,no,768,2291,3.5.8,legacy,xpyriment,d8bq7g,osweb,1.4.0,2137,1,0,right,enter,space,right,space,863,5115,17871,863,22142,2,0,legacy,1040,1920,24,1080,24,0,0,1920,1699893176773,1024,2,48000,-16,experiment,p6sarr2.png,0,even,Win32,98,98,71,17716,98,129869,126852,22831,17716,22832,98,177104,179254,180771,176240,131385,177104,176240,98,22831,GNET_4stim_recallt_idinput_-_STUDY,0,29883,26,yes,1366
0,0,1148,1148,white,no,Mozilla,Netscape,"5.0 (Windows NT 10.0; Win64; x64) AppleWebKit/537.36 (KHTML, like Gecko) Chrome/118.0.0.0 Safari/537.36 OPR/104.0.0.0",xpyriment,legacy,legacy,0,uniform,,,,0,0,0,0,19,0,0,19,0,0,19,19,19,19,0,0,0,19,0,0,6,6,6,6,6,0,6,6,0,0,0,13-10-23,13-10-23,17:31:23,Mon Nov 13 2023 17:31:23 GMT+0100 (közép-európai téli idő),The main experiment item,yes,,0,0,C:\Users\zymotik\Documents\!research\GNET,0,0,0,prototype3.png,no,mono,no,18,no,black,no,no,768,2291,3.5.8,legacy,xpyriment,d8bq7g,osweb,1.4.0,1887,1,0,left,enter,space,left,space,1113,5115,17871,1113,22142,2,0,legacy,1040,1920,24,1080,24,0,0,1920,1699893176773,1024,2,48000,-16,experiment,prototype3.png,0,even,Win32,98,98,71,17716,98,129869,126852,22831,17716,22832,98,181887,183787,185304,180774,131385,181888,180774,98,22831,GNET_4stim_recallt_idinput_-_STUDY,0,30996,27,yes,1366
0,0,1170,1170,white,no,Mozilla,Netscape,"5.0 (Windows NT 10.0; Win64; x64) AppleWebKit/537.36 (KHTML, like Gecko) Chrome/118.0.0.0 Safari/537.36 OPR/104.0.0.0",xpyriment,legacy,legacy,0,uniform,,,,0,0,0,0,19,0,0,19,0,0,19,19,19,19,0,0,0,19,0,0,7,7,7,7,7,0,7,7,0,0,0,13-10-23,13-10-23,17:31:23,Mon Nov 13 2023 17:31:23 GMT+0100 (közép-európai téli idő),The main experiment item,yes,,0,0,C:\Users\zymotik\Documents\!research\GNET,0,0,0,prototype3.png,no,mono,no,18,no,black,no,no,768,2291,3.5.8,legacy,xpyriment,d8bq7g,osweb,1.4.0,1237,1,0,right,enter,space,right,space,1763,5115,17871,1763,22142,2,0,legacy,1040,1920,24,1080,24,0,0,1920,1699893176773,1024,2,48000,-16,experiment,p4sarrcol2.png,0,even,Win32,98,98,71,17716,98,129869,126852,22831,17716,22832,98,187071,188321,189838,185308,131385,187071,185308,98,22831,GNET_4stim_recallt_idinput_-_STUDY,0,32759,28,yes,1366
0,0,1170,1170,white,no,Mozilla,Netscape,"5.0 (Windows NT 10.0; Win64; x64) AppleWebKit/537.36 (KHTML, like Gecko) Chrome/118.0.0.0 Safari/537.36 OPR/104.0.0.0",xpyriment,legacy,legacy,0,uniform,,,,0,0,0,0,19,0,0,19,0,0,19,19,19,19,0,0,0,19,0,0,8,8,8,8,8,0,8,8,0,0,0,13-10-23,13-10-23,17:31:23,Mon Nov 13 2023 17:31:23 GMT+0100 (közép-európai téli idő),The main experiment item,yes,,0,0,C:\Users\zymotik\Documents\!research\GNET,0,0,0,prototype3.png,no,mono,no,18,no,black,no,no,768,2291,3.5.8,legacy,xpyriment,d8bq7g,osweb,1.4.0,1818,1,0,right,enter,space,right,space,1182,5115,17871,1182,22142,2,0,legacy,1040,1920,24,1080,24,0,0,1920,1699893176773,1024,2,48000,-16,experiment,p4sarrcol1.png,0,even,Win32,98,98,71,17716,98,129869,126852,22831,17716,22832,98,191038,192871,194388,189841,131385,191038,189841,98,22831,GNET_4stim_recallt_idinput_-_STUDY,0,33941,29,yes,1366
0,0,1232,1232,white,no,Mozilla,Netscape,"5.0 (Windows NT 10.0; Win64; x64) AppleWebKit/537.36 (KHTML, like Gecko) Chrome/118.0.0.0 Safari/537.36 OPR/104.0.0.0",xpyriment,legacy,legacy,0,uniform,,,,0,0,0,0,19,0,0,19,0,0,19,19,19,19,0,0,0,19,0,0,9,9,9,9,9,0,9,9,0,0,0,13-10-23,13-10-23,17:31:23,Mon Nov 13 2023 17:31:23 GMT+0100 (közép-európai téli idő),The main experiment item,yes,,0,0,C:\Users\zymotik\Documents\!research\GNET,0,0,0,prototype3.png,no,mono,no,18,no,black,no,no,768,2291,3.5.8,legacy,xpyriment,d8bq7g,osweb,1.4.0,0,1,0,None,enter,space,None,space,3014,5115,17871,3014,22142,2,0,legacy,1040,1920,24,1080,24,0,0,1920,1699893176773,1024,2,48000,-16,experiment,p4sarr2.png,0,even,Win32,98,98,71,17716,98,129869,126852,22831,17716,22832,98,197405,197406,198921,194391,131385,197406,194391,98,22831,GNET_4stim_recallt_idinput_-_STUDY,0,36955,30,yes,1366
0,0,1245,1245,white,no,Mozilla,Netscape,"5.0 (Windows NT 10.0; Win64; x64) AppleWebKit/537.36 (KHTML, like Gecko) Chrome/118.0.0.0 Safari/537.36 OPR/104.0.0.0",xpyriment,legacy,legacy,0,uniform,,,,0,0,0,0,19,0,0,19,0,0,19,19,19,19,0,0,0,19,0,0,10,10,10,10,10,0,10,10,0,0,0,13-10-23,13-10-23,17:31:23,Mon Nov 13 2023 17:31:23 GMT+0100 (közép-európai téli idő),The main experiment item,yes,,0,0,C:\Users\zymotik\Documents\!research\GNET,0,0,0,prototype3.png,no,mono,no,18,no,black,no,no,768,2291,3.5.8,legacy,xpyriment,d8bq7g,osweb,1.4.0,1365,1,0,left,enter,space,left,space,1635,5115,17871,1635,22142,2,0,legacy,1040,1920,24,1080,24,0,0,1920,1699893176773,1024,2,48000,-16,experiment,prototype3.png,0,even,Win32,98,98,71,17716,98,129869,126852,22831,17716,22832,98,200571,201938,203455,198924,131385,200572,198924,98,22831,GNET_4stim_recallt_idinput_-_STUDY,0,38590,31,yes,1366
0,0,1234,1234,white,no,Mozilla,Netscape,"5.0 (Windows NT 10.0; Win64; x64) AppleWebKit/537.36 (KHTML, like Gecko) Chrome/118.0.0.0 Safari/537.36 OPR/104.0.0.0",xpyriment,legacy,legacy,0,uniform,,,,0,0,0,0,19,0,0,19,0,0,19,19,19,19,0,0,0,19,0,0,11,11,11,11,11,0,11,11,0,0,0,13-10-23,13-10-23,17:31:23,Mon Nov 13 2023 17:31:23 GMT+0100 (közép-európai téli idő),The main experiment item,yes,,0,0,C:\Users\zymotik\Documents\!research\GNET,0,0,0,prototype3.png,no,mono,no,18,no,black,no,no,768,2291,3.5.8,legacy,xpyriment,d8bq7g,osweb,1.4.0,2092,1,0,right,enter,space,right,space,908,5115,17871,908,22142,2,0,legacy,1040,1920,24,1080,24,0,0,1920,1699893176773,1024,2,48000,-16,experiment,p8sarr2.png,0,even,Win32,98,98,71,17716,98,129869,126852,22831,17716,22832,98,204372,206472,207988,203458,131385,204372,203458,98,22831,GNET_4stim_recallt_idinput_-_STUDY,0,39498,32,yes,1366
0,0,1252,1252,white,no,Mozilla,Netscape,"5.0 (Windows NT 10.0; Win64; x64) AppleWebKit/537.36 (KHTML, like Gecko) Chrome/118.0.0.0 Safari/537.36 OPR/104.0.0.0",xpyriment,legacy,legacy,0,uniform,,,,0,0,0,0,19,0,0,19,0,0,19,19,19,19,0,0,0,19,0,0,12,12,12,12,12,0,12,12,0,0,0,13-10-23,13-10-23,17:31:23,Mon Nov 13 2023 17:31:23 GMT+0100 (közép-európai téli idő),The main experiment item,yes,,0,0,C:\Users\zymotik\Documents\!research\GNET,0,0,0,prototype3.png,no,mono,no,18,no,black,no,no,768,2291,3.5.8,legacy,xpyriment,d8bq7g,osweb,1.4.0,1177,1,0,right,enter,space,right,space,1823,5115,17871,1823,22142,2,0,legacy,1040,1920,24,1080,24,0,0,1920,1699893176773,1024,2,48000,-16,experiment,p3sarrcol1.png,0,even,Win32,98,98,71,17716,98,129869,126852,22831,17716,22832,98,209822,211005,212522,207992,131385,209822,207992,98,22831,GNET_4stim_recallt_idinput_-_STUDY,0,41321,33,yes,1366
0,0,1255,1255,white,no,Mozilla,Netscape,"5.0 (Windows NT 10.0; Win64; x64) AppleWebKit/537.36 (KHTML, like Gecko) Chrome/118.0.0.0 Safari/537.36 OPR/104.0.0.0",xpyriment,legacy,legacy,0,uniform,,,,0,0,0,0,19,0,0,19,0,0,19,19,19,19,0,0,0,19,0,0,13,13,13,13,13,0,13,13,0,0,0,13-10-23,13-10-23,17:31:23,Mon Nov 13 2023 17:31:23 GMT+0100 (közép-európai téli idő),The main experiment item,yes,,0,0,C:\Users\zymotik\Documents\!research\GNET,0,0,0,prototype3.png,no,mono,no,18,no,black,no,no,768,2291,3.5.8,legacy,xpyriment,d8bq7g,osweb,1.4.0,1639,1,0,left,enter,space,left,space,1361,5115,17871,1361,22142,2,0,legacy,1040,1920,24,1080,24,0,0,1920,1699893176773,1024,2,48000,-16,experiment,prototype1.png,0,even,Win32,98,98,71,17716,98,129869,126852,22831,17716,22832,98,213889,215539,217055,212526,131385,213889,212526,98,22831,GNET_4stim_recallt_idinput_-_STUDY,0,42682,34,yes,1366
0,0,1261,1261,white,no,Mozilla,Netscape,"5.0 (Windows NT 10.0; Win64; x64) AppleWebKit/537.36 (KHTML, like Gecko) Chrome/118.0.0.0 Safari/537.36 OPR/104.0.0.0",xpyriment,legacy,legacy,0,uniform,,,,0,0,0,0,19,0,0,19,0,0,19,19,19,19,0,0,0,19,0,0,14,14,14,14,14,0,14,14,0,0,0,13-10-23,13-10-23,17:31:23,Mon Nov 13 2023 17:31:23 GMT+0100 (közép-európai téli idő),The main experiment item,yes,,0,0,C:\Users\zymotik\Documents\!research\GNET,0,0,0,prototype3.png,no,mono,no,18,no,black,no,no,768,2291,3.5.8,legacy,xpyriment,d8bq7g,osweb,1.4.0,1553,1,0,right,enter,space,right,space,1447,5115,17871,1447,22142,2,0,legacy,1040,1920,24,1080,24,0,0,1920,1699893176773,1024,2,48000,-16,experiment,p4sarr1.png,0,even,Win32,98,98,71,17716,98,129869,126852,22831,17716,22832,98,218522,220089,221606,217064,131385,218523,217064,98,22831,GNET_4stim_recallt_idinput_-_STUDY,0,44129,35,yes,1366
0,0,1310,1310,white,no,Mozilla,Netscape,"5.0 (Windows NT 10.0; Win64; x64) AppleWebKit/537.36 (KHTML, like Gecko) Chrome/118.0.0.0 Safari/537.36 OPR/104.0.0.0",xpyriment,legacy,legacy,0,uniform,,,,0,0,0,0,19,0,0,19,0,0,19,19,19,19,0,0,0,19,0,0,15,15,15,15,15,0,15,15,0,0,0,13-10-23,13-10-23,17:31:23,Mon Nov 13 2023 17:31:23 GMT+0100 (közép-európai téli idő),The main experiment item,yes,,0,0,C:\Users\zymotik\Documents\!research\GNET,0,0,0,prototype3.png,no,mono,no,18,no,black,no,no,768,2291,3.5.8,legacy,xpyriment,d8bq7g,osweb,1.4.0,0,1,0,None,enter,space,None,space,3013,5115,17871,3013,22142,2,0,legacy,1040,1920,24,1080,24,0,0,1920,1699893176773,1024,2,48000,-16,experiment,p1sarrshacol2.png,0,even,Win32,98,98,71,17716,98,129869,126852,22831,17716,22832,98,224622,224623,226139,221609,131385,224623,221609,98,22831,GNET_4stim_recallt_idinput_-_STUDY,0,47142,36,yes,1366
0,0,1322,1322,white,no,Mozilla,Netscape,"5.0 (Windows NT 10.0; Win64; x64) AppleWebKit/537.36 (KHTML, like Gecko) Chrome/118.0.0.0 Safari/537.36 OPR/104.0.0.0",xpyriment,legacy,legacy,0,uniform,,,,0,0,0,0,19,0,0,19,0,0,19,19,19,19,0,0,0,19,0,0,16,16,16,16,16,0,16,16,0,0,0,13-10-23,13-10-23,17:31:23,Mon Nov 13 2023 17:31:23 GMT+0100 (közép-európai téli idő),The main experiment item,yes,,0,0,C:\Users\zymotik\Documents\!research\GNET,0,0,0,prototype3.png,no,mono,no,18,no,black,no,no,768,2291,3.5.8,legacy,xpyriment,d8bq7g,osweb,1.4.0,1223,1,0,right,enter,space,right,space,1777,5115,17871,1777,22142,2,0,legacy,1040,1920,24,1080,24,0,0,1920,1699893176773,1024,2,48000,-16,experiment,p2sarrcol2.png,0,even,Win32,98,98,71,17716,98,129869,126852,22831,17716,22832,98,227923,229156,230673,226142,131385,227923,226142,98,22831,GNET_4stim_recallt_idinput_-_STUDY,0,48919,37,yes,1366
0,0,1311,1311,white,no,Mozilla,Netscape,"5.0 (Windows NT 10.0; Win64; x64) AppleWebKit/537.36 (KHTML, like Gecko) Chrome/118.0.0.0 Safari/537.36 OPR/104.0.0.0",xpyriment,legacy,legacy,0,uniform,,,,0,0,0,0,19,0,0,19,0,0,19,19,19,19,0,0,0,19,0,0,17,17,17,17,17,0,17,17,0,0,0,13-10-23,13-10-23,17:31:23,Mon Nov 13 2023 17:31:23 GMT+0100 (közép-európai téli idő),The main experiment item,yes,,0,0,C:\Users\zymotik\Documents\!research\GNET,0,0,0,prototype3.png,no,mono,no,18,no,black,no,no,768,2291,3.5.8,legacy,xpyriment,d8bq7g,osweb,1.4.0,2117,1,0,left,enter,space,left,space,883,5115,17871,883,22142,2,0,legacy,1040,1920,24,1080,24,0,0,1920,1699893176773,1024,2,48000,-16,experiment,prototype4.png,0,even,Win32,98,98,71,17716,98,129869,126852,22831,17716,22832,98,231573,233706,235223,230676,131385,231573,230676,98,22831,GNET_4stim_recallt_idinput_-_STUDY,0,49802,38,yes,1366
0,0,1319,1319,white,no,Mozilla,Netscape,"5.0 (Windows NT 10.0; Win64; x64) AppleWebKit/537.36 (KHTML, like Gecko) Chrome/118.0.0.0 Safari/537.36 OPR/104.0.0.0",xpyriment,legacy,legacy,0,uniform,,,,0,0,0,0,19,0,0,19,0,0,19,19,19,19,0,0,0,19,0,0,18,18,18,18,18,0,18,18,0,0,0,13-10-23,13-10-23,17:31:23,Mon Nov 13 2023 17:31:23 GMT+0100 (közép-európai téli idő),The main experiment item,yes,,0,0,C:\Users\zymotik\Documents\!research\GNET,0,0,0,prototype3.png,no,mono,no,18,no,black,no,no,768,2291,3.5.8,legacy,xpyriment,d8bq7g,osweb,1.4.0,1378,1,0,left,enter,space,left,space,1622,5115,17871,1622,22142,2,0,legacy,1040,1920,24,1080,24,0,0,1920,1699893176773,1024,2,48000,-16,experiment,prototype1.png,0,even,Win32,98,98,71,17716,98,129869,126852,22831,17716,22832,98,236856,238240,239756,235225,131385,236857,235225,98,22831,GNET_4stim_recallt_idinput_-_STUDY,0,51424,39,yes,1366
0,0,1313,1313,white,no,Mozilla,Netscape,"5.0 (Windows NT 10.0; Win64; x64) AppleWebKit/537.36 (KHTML, like Gecko) Chrome/118.0.0.0 Safari/537.36 OPR/104.0.0.0",xpyriment,legacy,legacy,0,uniform,,,,0,0,0,0,19,0,0,19,0,0,19,19,19,19,0,0,0,19,0,0,19,19,19,19,19,0,19,19,0,0,0,13-10-23,13-10-23,17:31:23,Mon Nov 13 2023 17:31:23 GMT+0100 (közép-európai téli idő),The main experiment item,yes,,0,0,C:\Users\zymotik\Documents\!research\GNET,0,0,0,prototype3.png,no,mono,no,18,no,black,no,no,768,2291,3.5.8,legacy,xpyriment,d8bq7g,osweb,1.4.0,1913,1,0,right,enter,space,right,space,1087,5115,17871,1087,22142,2,0,legacy,1040,1920,24,1080,24,0,0,1920,1699893176773,1024,2,48000,-16,experiment,p3sarrsha2.png,0,even,Win32,98,98,71,17716,98,129869,126852,22831,17716,22832,98,240857,242773,244290,239759,131385,240857,239759,98,22831,GNET_4stim_recallt_idinput_-_STUDY,0,52511,40,yes,1366
0,0,1306,1306,white,no,Mozilla,Netscape,"5.0 (Windows NT 10.0; Win64; x64) AppleWebKit/537.36 (KHTML, like Gecko) Chrome/118.0.0.0 Safari/537.36 OPR/104.0.0.0",xpyriment,legacy,legacy,0,uniform,,,,0,0,0,0,19,0,0,19,0,0,19,19,19,19,0,0,0,19,0,0,20,20,20,20,20,0,20,20,0,0,0,13-10-23,13-10-23,17:31:23,Mon Nov 13 2023 17:31:23 GMT+0100 (közép-európai téli idő),The main experiment item,yes,,0,0,C:\Users\zymotik\Documents\!research\GNET,0,0,0,prototype3.png,no,mono,no,18,no,black,no,no,768,2291,3.5.8,legacy,xpyriment,d8bq7g,osweb,1.4.0,1957,1,0,left,enter,space,left,space,1043,5115,17871,1043,22142,2,0,legacy,1040,1920,24,1080,24,0,0,1920,1699893176773,1024,2,48000,-16,experiment,prototype1.png,0,even,Win32,98,98,71,17716,98,129869,126852,22831,17716,22832,98,245340,247307,248823,244292,131385,245340,244292,98,22831,GNET_4stim_recallt_idinput_-_STUDY,0,53554,41,yes,1366
0,0,1300,1300,white,no,Mozilla,Netscape,"5.0 (Windows NT 10.0; Win64; x64) AppleWebKit/537.36 (KHTML, like Gecko) Chrome/118.0.0.0 Safari/537.36 OPR/104.0.0.0",xpyriment,legacy,legacy,0,uniform,,,,0,0,0,0,19,0,0,19,0,0,19,19,19,19,0,0,0,19,0,0,21,21,21,21,21,0,21,21,0,0,0,13-10-23,13-10-23,17:31:23,Mon Nov 13 2023 17:31:23 GMT+0100 (közép-európai téli idő),The main experiment item,yes,,0,0,C:\Users\zymotik\Documents\!research\GNET,0,0,0,prototype3.png,no,mono,no,18,no,black,no,no,768,2291,3.5.8,legacy,xpyriment,d8bq7g,osweb,1.4.0,1940,1,0,right,enter,space,right,space,1060,5115,17871,1060,22142,2,0,legacy,1040,1920,24,1080,24,0,0,1920,1699893176773,1024,2,48000,-16,experiment,p2sarrshacol2.png,0,even,Win32,98,98,71,17716,98,129869,126852,22831,17716,22832,98,249890,251840,253357,248827,131385,249891,248827,98,22831,GNET_4stim_recallt_idinput_-_STUDY,0,54614,42,yes,1366
0,0,1291,1291,white,no,Mozilla,Netscape,"5.0 (Windows NT 10.0; Win64; x64) AppleWebKit/537.36 (KHTML, like Gecko) Chrome/118.0.0.0 Safari/537.36 OPR/104.0.0.0",xpyriment,legacy,legacy,0,uniform,,,,0,0,0,0,19,0,0,19,0,0,19,19,19,19,0,0,0,19,0,0,22,22,22,22,22,0,22,22,0,0,0,13-10-23,13-10-23,17:31:23,Mon Nov 13 2023 17:31:23 GMT+0100 (közép-európai téli idő),The main experiment item,yes,,0,0,C:\Users\zymotik\Documents\!research\GNET,0,0,0,prototype3.png,no,mono,no,18,no,black,no,no,768,2291,3.5.8,legacy,xpyriment,d8bq7g,osweb,1.4.0,2081,1,0,right,enter,space,right,space,919,5115,17871,919,22142,2,0,legacy,1040,1920,24,1080,24,0,0,1920,1699893176773,1024,2,48000,-16,experiment,p7sarr2.png,0,even,Win32,98,98,71,17716,98,129869,126852,22831,17716,22832,98,254290,256374,257890,253360,131385,254291,253360,98,22831,GNET_4stim_recallt_idinput_-_STUDY,0,55533,43,yes,1366
0,0,1285,1285,white,no,Mozilla,Netscape,"5.0 (Windows NT 10.0; Win64; x64) AppleWebKit/537.36 (KHTML, like Gecko) Chrome/118.0.0.0 Safari/537.36 OPR/104.0.0.0",xpyriment,legacy,legacy,0,uniform,,,,0,0,0,0,19,0,0,19,0,0,19,19,19,19,0,0,0,19,0,0,23,23,23,23,23,0,23,23,0,0,0,13-10-23,13-10-23,17:31:23,Mon Nov 13 2023 17:31:23 GMT+0100 (közép-európai téli idő),The main experiment item,yes,,0,0,C:\Users\zymotik\Documents\!research\GNET,0,0,0,prototype3.png,no,mono,no,18,no,black,no,no,768,2291,3.5.8,legacy,xpyriment,d8bq7g,osweb,1.4.0,1991,1,0,right,enter,space,right,space,1009,5115,17871,1009,22142,2,0,legacy,1040,1920,24,1080,24,0,0,1920,1699893176773,1024,2,48000,-16,experiment,p1sarrsha2.png,0,even,Win32,98,98,71,17716,98,129869,126852,22831,17716,22832,98,258907,260907,262424,257894,131385,258907,257894,98,22831,GNET_4stim_recallt_idinput_-_STUDY,0,56542,44,yes,1366
0,0,1283,1283,white,no,Mozilla,Netscape,"5.0 (Windows NT 10.0; Win64; x64) AppleWebKit/537.36 (KHTML, like Gecko) Chrome/118.0.0.0 Safari/537.36 OPR/104.0.0.0",xpyriment,legacy,legacy,0,uniform,,,,0,0,0,0,19,0,0,19,0,0,19,19,19,19,0,0,0,19,0,0,24,24,24,24,24,0,24,24,0,0,0,13-10-23,13-10-23,17:31:23,Mon Nov 13 2023 17:31:23 GMT+0100 (közép-európai téli idő),The main experiment item,yes,,0,0,C:\Users\zymotik\Documents\!research\GNET,0,0,0,prototype3.png,no,mono,no,18,no,black,no,no,768,2291,3.5.8,legacy,xpyriment,d8bq7g,osweb,1.4.0,1821,1,0,right,enter,space,right,space,1179,5115,17871,1179,22142,2,0,legacy,1040,1920,24,1080,24,0,0,1920,1699893176773,1024,2,48000,-16,experiment,p2sarrsha1.png,0,even,Win32,98,98,71,17716,98,129869,126852,22831,17716,22832,98,263607,265441,266958,262427,131385,263608,262427,98,22831,GNET_4stim_recallt_idinput_-_STUDY,0,57721,45,yes,1366
0,0,1277,1277,white,no,Mozilla,Netscape,"5.0 (Windows NT 10.0; Win64; x64) AppleWebKit/537.36 (KHTML, like Gecko) Chrome/118.0.0.0 Safari/537.36 OPR/104.0.0.0",xpyriment,legacy,legacy,0,uniform,,,,0,0,0,0,19,0,0,19,0,0,19,19,19,19,0,0,0,19,0,0,25,25,25,25,25,0,25,25,0,0,0,13-10-23,13-10-23,17:31:23,Mon Nov 13 2023 17:31:23 GMT+0100 (közép-európai téli idő),The main experiment item,yes,,0,0,C:\Users\zymotik\Documents\!research\GNET,0,0,0,prototype3.png,no,mono,no,18,no,black,no,no,768,2291,3.5.8,legacy,xpyriment,d8bq7g,osweb,1.4.0,2002,1,0,right,enter,space,right,space,998,5115,17871,998,22142,2,0,legacy,1040,1920,24,1080,24,0,0,1920,1699893176773,1024,2,48000,-16,experiment,p3sarrshacol2.png,0,even,Win32,98,98,71,17716,98,129869,126852,22831,17716,22832,98,267974,269991,271508,266961,131385,267975,266961,98,22831,GNET_4stim_recallt_idinput_-_STUDY,0,58719,46,yes,1366
0,0,1266,1266,white,no,Mozilla,Netscape,"5.0 (Windows NT 10.0; Win64; x64) AppleWebKit/537.36 (KHTML, like Gecko) Chrome/118.0.0.0 Safari/537.36 OPR/104.0.0.0",xpyriment,legacy,legacy,0,uniform,,,,0,0,0,0,19,0,0,19,0,0,19,19,19,19,0,0,0,19,0,0,26,26,26,26,26,0,26,26,0,0,0,13-10-23,13-10-23,17:31:23,Mon Nov 13 2023 17:31:23 GMT+0100 (közép-európai téli idő),The main experiment item,yes,,0,0,C:\Users\zymotik\Documents\!research\GNET,0,0,0,prototype3.png,no,mono,no,18,no,black,no,no,768,2291,3.5.8,legacy,xpyriment,d8bq7g,osweb,1.4.0,2224,1,0,right,enter,space,right,space,776,5115,17871,776,22142,2,0,legacy,1040,1920,24,1080,24,0,0,1920,1699893176773,1024,2,48000,-16,experiment,p3sarr1.png,0,even,Win32,98,98,71,17716,98,129869,126852,22831,17716,22832,98,272291,274525,276041,271511,131385,272291,271511,98,22831,GNET_4stim_recallt_idinput_-_STUDY,0,59495,47,yes,1366
0,0,1260,1260,white,no,Mozilla,Netscape,"5.0 (Windows NT 10.0; Win64; x64) AppleWebKit/537.36 (KHTML, like Gecko) Chrome/118.0.0.0 Safari/537.36 OPR/104.0.0.0",xpyriment,legacy,legacy,0,uniform,,,,0,0,0,0,19,0,0,19,0,0,19,19,19,19,0,0,0,19,0,0,27,27,27,27,27,0,27,27,0,0,0,13-10-23,13-10-23,17:31:23,Mon Nov 13 2023 17:31:23 GMT+0100 (közép-európai téli idő),The main experiment item,yes,,0,0,C:\Users\zymotik\Documents\!research\GNET,0,0,0,prototype3.png,no,mono,no,18,no,black,no,no,768,2291,3.5.8,legacy,xpyriment,d8bq7g,osweb,1.4.0,1998,1,0,right,enter,space,right,space,1002,5115,17871,1002,22142,2,0,legacy,1040,1920,24,1080,24,0,0,1920,1699893176773,1024,2,48000,-16,experiment,p6sarr1.png,0,even,Win32,98,98,71,17716,98,129869,126852,22831,17716,22832,98,277058,279058,280575,276045,131385,277058,276045,98,22831,GNET_4stim_recallt_idinput_-_STUDY,0,60497,48,yes,1366
0,0,1256,1256,white,no,Mozilla,Netscape,"5.0 (Windows NT 10.0; Win64; x64) AppleWebKit/537.36 (KHTML, like Gecko) Chrome/118.0.0.0 Safari/537.36 OPR/104.0.0.0",xpyriment,legacy,legacy,0,uniform,,,,0,0,0,0,19,0,0,19,0,0,19,19,19,19,0,0,0,19,0,0,28,28,28,28,28,0,28,28,0,0,0,13-10-23,13-10-23,17:31:23,Mon Nov 13 2023 17:31:23 GMT+0100 (közép-európai téli idő),The main experiment item,yes,,0,0,C:\Users\zymotik\Documents\!research\GNET,0,0,0,prototype3.png,no,mono,no,18,no,black,no,no,768,2291,3.5.8,legacy,xpyriment,d8bq7g,osweb,1.4.0,1931,1,0,right,enter,space,right,space,1069,5115,17871,1069,22142,2,0,legacy,1040,1920,24,1080,24,0,0,1920,1699893176773,1024,2,48000,-16,experiment,p2sarr1.png,0,even,Win32,98,98,71,17716,98,129869,126852,22831,17716,22832,98,281658,283592,285108,280578,131385,281659,280578,98,22831,GNET_4stim_recallt_idinput_-_STUDY,0,61566,49,yes,1366
0,0,1275,1275,white,no,Mozilla,Netscape,"5.0 (Windows NT 10.0; Win64; x64) AppleWebKit/537.36 (KHTML, like Gecko) Chrome/118.0.0.0 Safari/537.36 OPR/104.0.0.0",xpyriment,legacy,legacy,0,uniform,,,,0,0,0,0,19,0,0,19,0,0,19,19,19,19,0,0,0,19,0,0,29,29,29,29,29,0,29,29,0,0,0,13-10-23,13-10-23,17:31:23,Mon Nov 13 2023 17:31:23 GMT+0100 (közép-európai téli idő),The main experiment item,yes,,0,0,C:\Users\zymotik\Documents\!research\GNET,0,0,0,prototype3.png,no,mono,no,18,no,black,no,no,768,2291,3.5.8,legacy,xpyriment,d8bq7g,osweb,1.4.0,803,1,0,left,enter,space,left,space,2197,5115,17871,2197,22142,2,0,legacy,1040,1920,24,1080,24,0,0,1920,1699893176773,1024,2,48000,-16,experiment,prototype3.png,0,even,Win32,98,98,71,17716,98,129869,126852,22831,17716,22832,98,287325,288142,289658,285114,131385,287326,285114,98,22831,GNET_4stim_recallt_idinput_-_STUDY,0,63763,50,yes,1366
0,0,1271,1271,white,no,Mozilla,Netscape,"5.0 (Windows NT 10.0; Win64; x64) AppleWebKit/537.36 (KHTML, like Gecko) Chrome/118.0.0.0 Safari/537.36 OPR/104.0.0.0",xpyriment,legacy,legacy,0,uniform,,,,0,0,0,0,19,0,0,19,0,0,19,19,19,19,0,0,0,19,0,0,30,30,30,30,30,0,30,30,0,0,0,13-10-23,13-10-23,17:31:23,Mon Nov 13 2023 17:31:23 GMT+0100 (közép-európai téli idő),The main experiment item,yes,,0,0,C:\Users\zymotik\Documents\!research\GNET,0,0,0,prototype3.png,no,mono,no,18,no,black,no,no,768,2291,3.5.8,legacy,xpyriment,d8bq7g,osweb,1.4.0,1964,1,0,right,enter,space,right,space,1036,5115,17871,1036,22142,2,0,legacy,1040,1920,24,1080,24,0,0,1920,1699893176773,1024,2,48000,-16,experiment,prototype2.png,0,even,Win32,98,98,71,17716,98,129869,126852,22831,17716,22832,98,290709,292675,294192,289667,131385,290709,289667,98,22831,GNET_4stim_recallt_idinput_-_STUDY,0,64799,51,yes,1366
0,0,1268,1268,white,no,Mozilla,Netscape,"5.0 (Windows NT 10.0; Win64; x64) AppleWebKit/537.36 (KHTML, like Gecko) Chrome/118.0.0.0 Safari/537.36 OPR/104.0.0.0",xpyriment,legacy,legacy,0,uniform,,,,0,0,0,0,19,0,0,19,0,0,19,19,19,19,0,0,0,19,0,0,31,31,31,31,31,0,31,31,0,0,0,13-10-23,13-10-23,17:31:23,Mon Nov 13 2023 17:31:23 GMT+0100 (közép-európai téli idő),The main experiment item,yes,,0,0,C:\Users\zymotik\Documents\!research\GNET,0,0,0,prototype3.png,no,mono,no,18,no,black,no,no,768,2291,3.5.8,legacy,xpyriment,d8bq7g,osweb,1.4.0,1860,1,0,right,enter,space,right,space,1140,5115,17871,1140,22142,2,0,legacy,1040,1920,24,1080,24,0,0,1920,1699893176773,1024,2,48000,-16,experiment,p3sarr2.png,0,even,Win32,98,98,71,17716,98,129869,126852,22831,17716,22832,98,295342,297209,298726,294195,131385,295342,294195,98,22831,GNET_4stim_recallt_idinput_-_STUDY,0,65939,52,yes,1366
0,0,1301,1301,white,no,Mozilla,Netscape,"5.0 (Windows NT 10.0; Win64; x64) AppleWebKit/537.36 (KHTML, like Gecko) Chrome/118.0.0.0 Safari/537.36 OPR/104.0.0.0",xpyriment,legacy,legacy,0,uniform,,,,0,0,0,0,19,0,0,19,0,0,19,19,19,19,0,0,0,19,0,0,32,32,32,32,32,0,32,32,0,0,0,13-10-23,13-10-23,17:31:23,Mon Nov 13 2023 17:31:23 GMT+0100 (közép-európai téli idő),The main experiment item,yes,,0,0,C:\Users\zymotik\Documents\!research\GNET,0,0,0,prototype3.png,no,mono,no,18,no,black,no,no,768,2291,3.5.8,legacy,xpyriment,d8bq7g,osweb,1.4.0,0,1,0,None,enter,space,None,space,3013,5115,17871,3013,22142,2,0,legacy,1040,1920,24,1080,24,0,0,1920,1699893176773,1024,2,48000,-16,experiment,prototype4.png,0,even,Win32,98,98,71,17716,98,129869,126852,22831,17716,22832,98,301742,301743,303259,298729,131385,301743,298729,98,22831,GNET_4stim_recallt_idinput_-_STUDY,0,68952,53,yes,1366
0,0,1301,1301,white,no,Mozilla,Netscape,"5.0 (Windows NT 10.0; Win64; x64) AppleWebKit/537.36 (KHTML, like Gecko) Chrome/118.0.0.0 Safari/537.36 OPR/104.0.0.0",xpyriment,legacy,legacy,0,uniform,,,,0,0,0,0,19,0,0,19,0,0,19,19,19,19,0,0,0,19,0,0,33,33,33,33,33,0,33,33,0,0,0,13-10-23,13-10-23,17:31:23,Mon Nov 13 2023 17:31:23 GMT+0100 (közép-európai téli idő),The main experiment item,yes,,0,0,C:\Users\zymotik\Documents\!research\GNET,0,0,0,prototype3.png,no,mono,no,18,no,black,no,no,768,2291,3.5.8,legacy,xpyriment,d8bq7g,osweb,1.4.0,1695,1,0,right,enter,space,right,space,1305,5115,17871,1305,22142,2,0,legacy,1040,1920,24,1080,24,0,0,1920,1699893176773,1024,2,48000,-16,experiment,prototype2.png,0,even,Win32,98,98,71,17716,98,129869,126852,22831,17716,22832,98,304576,306276,307793,303262,131385,304576,303262,98,22831,GNET_4stim_recallt_idinput_-_STUDY,0,70257,54,yes,1366
0,0,1297,1297,white,no,Mozilla,Netscape,"5.0 (Windows NT 10.0; Win64; x64) AppleWebKit/537.36 (KHTML, like Gecko) Chrome/118.0.0.0 Safari/537.36 OPR/104.0.0.0",xpyriment,legacy,legacy,0,uniform,,,,0,0,0,0,19,0,0,19,0,0,19,19,19,19,0,0,0,19,0,0,34,34,34,34,34,0,34,34,0,0,0,13-10-23,13-10-23,17:31:23,Mon Nov 13 2023 17:31:23 GMT+0100 (közép-európai téli idő),The main experiment item,yes,,0,0,C:\Users\zymotik\Documents\!research\GNET,0,0,0,prototype3.png,no,mono,no,18,no,black,no,no,768,2291,3.5.8,legacy,xpyriment,d8bq7g,osweb,1.4.0,1941,1,0,right,enter,space,right,space,1059,5115,17871,1059,22142,2,0,legacy,1040,1920,24,1080,24,0,0,1920,1699893176773,1024,2,48000,-16,experiment,p2sarrshacol1.png,0,even,Win32,98,98,71,17716,98,129869,126852,22831,17716,22832,98,308859,310809,312326,307796,131385,308860,307796,98,22831,GNET_4stim_recallt_idinput_-_STUDY,0,71316,55,yes,1366
0,0,1293,1293,white,no,Mozilla,Netscape,"5.0 (Windows NT 10.0; Win64; x64) AppleWebKit/537.36 (KHTML, like Gecko) Chrome/118.0.0.0 Safari/537.36 OPR/104.0.0.0",xpyriment,legacy,legacy,0,uniform,,,,0,0,0,0,19,0,0,19,0,0,19,19,19,19,0,0,0,19,0,0,35,35,35,35,35,0,35,35,0,0,0,13-10-23,13-10-23,17:31:23,Mon Nov 13 2023 17:31:23 GMT+0100 (közép-európai téli idő),The main experiment item,yes,,0,0,C:\Users\zymotik\Documents\!research\GNET,0,0,0,prototype3.png,no,mono,no,18,no,black,no,no,768,2291,3.5.8,legacy,xpyriment,d8bq7g,osweb,1.4.0,1905,1,0,right,enter,space,right,space,1095,5115,17871,1095,22142,2,0,legacy,1040,1920,24,1080,24,0,0,1920,1699893176773,1024,2,48000,-16,experiment,prototype2.png,0,even,Win32,98,98,71,17716,98,129869,126852,22831,17716,22832,98,313426,315343,316860,312328,131385,313427,312328,98,22831,GNET_4stim_recallt_idinput_-_STUDY,0,72411,56,yes,1366
0,0,1320,1320,white,no,Mozilla,Netscape,"5.0 (Windows NT 10.0; Win64; x64) AppleWebKit/537.36 (KHTML, like Gecko) Chrome/118.0.0.0 Safari/537.36 OPR/104.0.0.0",xpyriment,legacy,legacy,0,uniform,,,,0,0,0,0,19,0,0,19,0,0,19,19,19,19,0,0,0,19,0,0,36,36,36,36,36,0,36,36,0,0,0,13-10-23,13-10-23,17:31:23,Mon Nov 13 2023 17:31:23 GMT+0100 (közép-európai téli idő),The main experiment item,yes,,0,0,C:\Users\zymotik\Documents\!research\GNET,0,0,0,prototype3.png,no,mono,no,18,no,black,no,no,768,2291,3.5.8,legacy,xpyriment,d8bq7g,osweb,1.4.0,168,1,0,right,enter,space,right,space,2832,5115,17871,2832,22142,2,0,legacy,1040,1920,24,1080,24,0,0,1920,1699893176773,1024,2,48000,-16,experiment,p3sarrshacol1.png,0,even,Win32,98,98,71,17716,98,129869,126852,22831,17716,22832,98,319710,319893,321410,316863,131385,319710,316863,98,22831,GNET_4stim_recallt_idinput_-_STUDY,0,75243,57,yes,1366
0,0,1312,1312,white,no,Mozilla,Netscape,"5.0 (Windows NT 10.0; Win64; x64) AppleWebKit/537.36 (KHTML, like Gecko) Chrome/118.0.0.0 Safari/537.36 OPR/104.0.0.0",xpyriment,legacy,legacy,0,uniform,,,,0,0,0,0,19,0,0,19,0,0,19,19,19,19,0,0,0,19,0,0,37,37,37,37,37,0,37,37,0,0,0,13-10-23,13-10-23,17:31:23,Mon Nov 13 2023 17:31:23 GMT+0100 (közép-európai téli idő),The main experiment item,yes,,0,0,C:\Users\zymotik\Documents\!research\GNET,0,0,0,prototype3.png,no,mono,no,18,no,black,no,no,768,2291,3.5.8,legacy,xpyriment,d8bq7g,osweb,1.4.0,2167,1,0,left,enter,space,left,space,833,5115,17871,833,22142,2,0,legacy,1040,1920,24,1080,24,0,0,1920,1699893176773,1024,2,48000,-16,experiment,prototype4.png,0,even,Win32,98,98,71,17716,98,129869,126852,22831,17716,22832,98,322260,324444,325960,321413,131385,322260,321413,98,22831,GNET_4stim_recallt_idinput_-_STUDY,0,76076,58,yes,1366
0,0,1312,1312,white,no,Mozilla,Netscape,"5.0 (Windows NT 10.0; Win64; x64) AppleWebKit/537.36 (KHTML, like Gecko) Chrome/118.0.0.0 Safari/537.36 OPR/104.0.0.0",xpyriment,legacy,legacy,0,uniform,,,,0,0,0,0,19,0,0,19,0,0,19,19,19,19,0,0,0,19,0,0,38,38,38,38,38,0,38,38,0,0,0,13-10-23,13-10-23,17:31:23,Mon Nov 13 2023 17:31:23 GMT+0100 (közép-európai téli idő),The main experiment item,yes,,0,0,C:\Users\zymotik\Documents\!research\GNET,0,0,0,prototype3.png,no,mono,no,18,no,black,no,no,768,2291,3.5.8,legacy,xpyriment,d8bq7g,osweb,1.4.0,1697,1,0,right,enter,space,right,space,1303,5115,17871,1303,22142,2,0,legacy,1040,1920,24,1080,24,0,0,1920,1699893176773,1024,2,48000,-16,experiment,p2sarr2.png,0,even,Win32,98,98,71,17716,98,129869,126852,22831,17716,22832,98,327277,328977,330494,325968,131385,327277,325968,98,22831,GNET_4stim_recallt_idinput_-_STUDY,0,77379,59,yes,1366
0,0,1315,1315,white,no,Mozilla,Netscape,"5.0 (Windows NT 10.0; Win64; x64) AppleWebKit/537.36 (KHTML, like Gecko) Chrome/118.0.0.0 Safari/537.36 OPR/104.0.0.0",xpyriment,legacy,legacy,0,uniform,,,,0,0,0,0,19,0,0,19,0,0,19,19,19,19,0,0,0,19,0,0,39,39,39,39,39,0,39,39,0,0,0,13-10-23,13-10-23,17:31:23,Mon Nov 13 2023 17:31:23 GMT+0100 (közép-európai téli idő),The main experiment item,yes,,0,0,C:\Users\zymotik\Documents\!research\GNET,0,0,0,prototype3.png,no,mono,no,18,no,black,no,no,768,2291,3.5.8,legacy,xpyriment,d8bq7g,osweb,1.4.0,1490,1,0,right,enter,space,right,space,1510,5115,17871,1510,22142,2,0,legacy,1040,1920,24,1080,24,0,0,1920,1699893176773,1024,2,48000,-16,experiment,p1sarrsha1.png,0,even,Win32,98,98,71,17716,98,129869,126852,22831,17716,22832,98,332010,333510,335027,330497,131385,332011,330497,98,22831,GNET_4stim_recallt_idinput_-_STUDY,0,78889,60,yes,1366
0,0,1303,1303,white,no,Mozilla,Netscape,"5.0 (Windows NT 10.0; Win64; x64) AppleWebKit/537.36 (KHTML, like Gecko) Chrome/118.0.0.0 Safari/537.36 OPR/104.0.0.0",xpyriment,legacy,legacy,0,uniform,,,,0,0,0,0,19,0,0,19,0,0,19,19,19,19,0,0,0,19,0,0,40,40,40,40,40,0,40,40,0,0,0,13-10-23,13-10-23,17:31:23,Mon Nov 13 2023 17:31:23 GMT+0100 (közép-európai téli idő),The main experiment item,yes,,0,0,C:\Users\zymotik\Documents\!research\GNET,0,0,0,prototype3.png,no,mono,no,18,no,black,no,no,768,2291,3.5.8,legacy,xpyriment,d8bq7g,osweb,1.4.0,2391,1,0,left,enter,space,left,space,609,5115,17871,609,22142,2,0,legacy,1040,1920,24,1080,24,0,0,1920,1699893176773,1024,2,48000,-16,experiment,prototype4.png,0,even,Win32,98,98,71,17716,98,129869,126852,22831,17716,22832,98,335644,338044,339561,335029,131385,335644,335029,98,22831,GNET_4stim_recallt_idinput_-_STUDY,0,79498,61,yes,1366
0,0,1299,1299,white,no,Mozilla,Netscape,"5.0 (Windows NT 10.0; Win64; x64) AppleWebKit/537.36 (KHTML, like Gecko) Chrome/118.0.0.0 Safari/537.36 OPR/104.0.0.0",xpyriment,legacy,legacy,0,uniform,,,,0,0,0,0,19,0,0,19,0,0,19,19,19,19,0,0,0,19,0,0,41,41,41,41,41,0,41,41,0,0,0,13-10-23,13-10-23,17:31:23,Mon Nov 13 2023 17:31:23 GMT+0100 (közép-európai téli idő),The main experiment item,yes,,0,0,C:\Users\zymotik\Documents\!research\GNET,0,0,0,prototype3.png,no,mono,no,18,no,black,no,no,768,2291,3.5.8,legacy,xpyriment,d8bq7g,osweb,1.4.0,1989,1,0,right,enter,space,right,space,1011,5115,17871,1011,22142,2,0,legacy,1040,1920,24,1080,24,0,0,1920,1699893176773,1024,2,48000,-16,experiment,p1sarrshacol1.png,0,even,Win32,98,98,71,17716,98,129869,126852,22831,17716,22832,98,340577,342578,344094,339564,131385,340578,339564,98,22831,GNET_4stim_recallt_idinput_-_STUDY,0,80509,62,yes,1366
0,0,1299,1299,white,no,Mozilla,Netscape,"5.0 (Windows NT 10.0; Win64; x64) AppleWebKit/537.36 (KHTML, like Gecko) Chrome/118.0.0.0 Safari/537.36 OPR/104.0.0.0",xpyriment,legacy,legacy,0,uniform,,,,0,0,0,0,19,0,0,19,0,0,19,19,19,19,0,0,0,19,0,0,42,42,42,42,42,0,42,42,0,0,0,13-10-23,13-10-23,17:31:23,Mon Nov 13 2023 17:31:23 GMT+0100 (közép-európai téli idő),The main experiment item,yes,,0,0,C:\Users\zymotik\Documents\!research\GNET,0,0,0,prototype3.png,no,mono,no,18,no,black,no,no,768,2291,3.5.8,legacy,xpyriment,d8bq7g,osweb,1.4.0,1675,1,0,right,enter,space,right,space,1325,5115,17871,1325,22142,2,0,legacy,1040,1920,24,1080,24,0,0,1920,1699893176773,1024,2,48000,-16,experiment,p9sarr1.png,0,even,Win32,98,98,71,17716,98,129869,126852,22831,17716,22832,98,345428,347111,348628,344097,131385,345428,344097,98,22831,GNET_4stim_recallt_idinput_-_STUDY,0,81834,63,yes,1366
0,0,1295,1295,white,no,Mozilla,Netscape,"5.0 (Windows NT 10.0; Win64; x64) AppleWebKit/537.36 (KHTML, like Gecko) Chrome/118.0.0.0 Safari/537.36 OPR/104.0.0.0",xpyriment,legacy,legacy,0,uniform,,,,0,0,0,0,19,0,0,19,0,0,19,19,19,19,0,0,0,19,0,0,43,43,43,43,43,0,43,43,0,0,0,13-10-23,13-10-23,17:31:23,Mon Nov 13 2023 17:31:23 GMT+0100 (közép-európai téli idő),The main experiment item,yes,,0,0,C:\Users\zymotik\Documents\!research\GNET,0,0,0,prototype3.png,no,mono,no,18,no,black,no,no,768,2291,3.5.8,legacy,xpyriment,d8bq7g,osweb,1.4.0,1945,1,0,right,enter,space,right,space,1055,5115,17871,1055,22142,2,0,legacy,1040,1920,24,1080,24,0,0,1920,1699893176773,1024,2,48000,-16,experiment,p4sarrshacol2.png,0,even,Win32,98,98,71,17716,98,129869,126852,22831,17716,22832,98,349694,351645,353161,348631,131385,349695,348631,98,22831,GNET_4stim_recallt_idinput_-_STUDY,0,82889,64,yes,1366
0,0,1301,1301,white,no,Mozilla,Netscape,"5.0 (Windows NT 10.0; Win64; x64) AppleWebKit/537.36 (KHTML, like Gecko) Chrome/118.0.0.0 Safari/537.36 OPR/104.0.0.0",xpyriment,legacy,legacy,0,uniform,,,,0,0,0,0,19,0,0,19,0,0,19,19,19,19,0,0,0,19,0,0,44,44,44,44,44,0,44,44,0,0,0,13-10-23,13-10-23,17:31:23,Mon Nov 13 2023 17:31:23 GMT+0100 (közép-európai téli idő),The main experiment item,yes,,0,0,C:\Users\zymotik\Documents\!research\GNET,0,0,0,prototype3.png,no,mono,no,18,no,black,no,no,768,2291,3.5.8,legacy,xpyriment,d8bq7g,osweb,1.4.0,1342,1,0,right,enter,space,right,space,1658,5115,17871,1658,22142,2,0,legacy,1040,1920,24,1080,24,0,0,1920,1699893176773,1024,2,48000,-16,experiment,p2sarrsha2.png,0,even,Win32,98,98,71,17716,98,129869,126852,22831,17716,22832,98,354828,356178,357695,353165,131385,354828,353165,98,22831,GNET_4stim_recallt_idinput_-_STUDY,0,84547,65,yes,1366
0,0,1294,1294,white,no,Mozilla,Netscape,"5.0 (Windows NT 10.0; Win64; x64) AppleWebKit/537.36 (KHTML, like Gecko) Chrome/118.0.0.0 Safari/537.36 OPR/104.0.0.0",xpyriment,legacy,legacy,0,uniform,,,,0,0,0,0,19,0,0,19,0,0,19,19,19,19,0,0,0,19,0,0,45,45,45,45,45,0,45,45,0,0,0,13-10-23,13-10-23,17:31:23,Mon Nov 13 2023 17:31:23 GMT+0100 (közép-európai téli idő),The main experiment item,yes,,0,0,C:\Users\zymotik\Documents\!research\GNET,0,0,0,prototype3.png,no,mono,no,18,no,black,no,no,768,2291,3.5.8,legacy,xpyriment,d8bq7g,osweb,1.4.0,2133,1,0,right,enter,space,right,space,867,5115,17871,867,22142,2,0,legacy,1040,1920,24,1080,24,0,0,1920,1699893176773,1024,2,48000,-16,experiment,p1sarrcol2.png,0,even,Win32,98,98,71,17716,98,129869,126852,22831,17716,22832,98,358578,360728,362245,357699,131385,358579,357699,98,22831,GNET_4stim_recallt_idinput_-_STUDY,0,85414,66,yes,1366
0,0,1302,1302,white,no,Mozilla,Netscape,"5.0 (Windows NT 10.0; Win64; x64) AppleWebKit/537.36 (KHTML, like Gecko) Chrome/118.0.0.0 Safari/537.36 OPR/104.0.0.0",xpyriment,legacy,legacy,0,uniform,,,,0,0,0,0,19,0,0,19,0,0,19,19,19,19,0,0,0,19,0,0,46,46,46,46,46,0,46,46,0,0,0,13-10-23,13-10-23,17:31:23,Mon Nov 13 2023 17:31:23 GMT+0100 (közép-európai téli idő),The main experiment item,yes,,0,0,C:\Users\zymotik\Documents\!research\GNET,0,0,0,prototype3.png,no,mono,no,18,no,black,no,no,768,2291,3.5.8,legacy,xpyriment,d8bq7g,osweb,1.4.0,1207,1,0,right,enter,space,right,space,1793,5115,17871,1793,22142,2,0,legacy,1040,1920,24,1080,24,0,0,1920,1699893176773,1024,2,48000,-16,experiment,p4sarrsha2.png,0,even,Win32,98,98,71,17716,98,129869,126852,22831,17716,22832,98,364062,365278,366795,362253,131385,364062,362253,98,22831,GNET_4stim_recallt_idinput_-_STUDY,0,87207,67,yes,1366
0,0,1295,1295,white,no,Mozilla,Netscape,"5.0 (Windows NT 10.0; Win64; x64) AppleWebKit/537.36 (KHTML, like Gecko) Chrome/118.0.0.0 Safari/537.36 OPR/104.0.0.0",xpyriment,legacy,legacy,0,uniform,,,,0,0,0,0,19,0,0,19,0,0,19,19,19,19,0,0,0,19,0,0,47,47,47,47,47,0,47,47,0,0,0,13-10-23,13-10-23,17:31:23,Mon Nov 13 2023 17:31:23 GMT+0100 (közép-európai téli idő),The main experiment item,yes,,0,0,C:\Users\zymotik\Documents\!research\GNET,0,0,0,prototype3.png,no,mono,no,18,no,black,no,no,768,2291,3.5.8,legacy,xpyriment,d8bq7g,osweb,1.4.0,2120,1,0,right,enter,space,right,space,880,5115,17871,880,22142,2,0,legacy,1040,1920,24,1080,24,0,0,1920,1699893176773,1024,2,48000,-16,experiment,prototype2.png,0,even,Win32,98,98,71,17716,98,129869,126852,22831,17716,22832,98,367695,369829,371345,366798,131385,367696,366798,98,22831,GNET_4stim_recallt_idinput_-_STUDY,0,88087,68,yes,1366
0,0,1288,1288,white,no,Mozilla,Netscape,"5.0 (Windows NT 10.0; Win64; x64) AppleWebKit/537.36 (KHTML, like Gecko) Chrome/118.0.0.0 Safari/537.36 OPR/104.0.0.0",xpyriment,legacy,legacy,0,uniform,,,,0,0,0,0,19,0,0,19,0,0,19,19,19,19,0,0,0,19,0,0,48,48,48,48,48,0,48,48,0,0,0,13-10-23,13-10-23,17:31:23,Mon Nov 13 2023 17:31:23 GMT+0100 (közép-európai téli idő),The main experiment item,yes,,0,0,C:\Users\zymotik\Documents\!research\GNET,0,0,0,prototype3.png,no,mono,no,18,no,black,no,no,768,2291,3.5.8,legacy,xpyriment,d8bq7g,osweb,1.4.0,2222,1,0,right,enter,space,right,space,778,5115,17871,778,22142,2,0,legacy,1040,1920,24,1080,24,0,0,1920,1699893176773,1024,2,48000,-16,experiment,p2sarrcol1.png,0,even,Win32,98,98,71,17716,98,129869,126852,22831,17716,22832,98,372129,374362,375879,371349,131385,372129,371349,98,22831,GNET_4stim_recallt_idinput_-_STUDY,0,88865,69,yes,1366
0,0,1282,1282,white,no,Mozilla,Netscape,"5.0 (Windows NT 10.0; Win64; x64) AppleWebKit/537.36 (KHTML, like Gecko) Chrome/118.0.0.0 Safari/537.36 OPR/104.0.0.0",xpyriment,legacy,legacy,0,uniform,,,,0,0,0,0,19,0,0,19,0,0,19,19,19,19,0,0,0,19,0,0,49,49,49,49,49,0,49,49,0,0,0,13-10-23,13-10-23,17:31:23,Mon Nov 13 2023 17:31:23 GMT+0100 (közép-európai téli idő),The main experiment item,yes,,0,0,C:\Users\zymotik\Documents\!research\GNET,0,0,0,prototype3.png,no,mono,no,18,no,black,no,no,768,2291,3.5.8,legacy,xpyriment,d8bq7g,osweb,1.4.0,2139,1,0,right,enter,space,right,space,861,5115,17871,861,22142,2,0,legacy,1040,1920,24,1080,24,0,0,1920,1699893176773,1024,2,48000,-16,experiment,p4sarrsha1.png,0,even,Win32,98,98,71,17716,98,129869,126852,22831,17716,22832,98,376746,378896,380412,375882,131385,376746,375882,98,22831,GNET_4stim_recallt_idinput_-_STUDY,0,89726,70,yes,1366
0,0,1294,1294,white,no,Mozilla,Netscape,"5.0 (Windows NT 10.0; Win64; x64) AppleWebKit/537.36 (KHTML, like Gecko) Chrome/118.0.0.0 Safari/537.36 OPR/104.0.0.0",xpyriment,legacy,legacy,0,uniform,,,,0,0,0,0,19,0,0,19,0,0,19,19,19,19,0,0,0,19,0,0,50,50,50,50,50,0,50,50,0,0,0,13-10-23,13-10-23,17:31:23,Mon Nov 13 2023 17:31:23 GMT+0100 (közép-európai téli idő),The main experiment item,yes,,0,0,C:\Users\zymotik\Documents\!research\GNET,0,0,0,prototype3.png,no,mono,no,18,no,black,no,no,768,2291,3.5.8,legacy,xpyriment,d8bq7g,osweb,1.4.0,817,1,0,left,enter,space,left,space,2183,5115,17871,2183,22142,2,0,legacy,1040,1920,24,1080,24,0,0,1920,1699893176773,1024,2,48000,-16,experiment,prototype1.png,0,even,Win32,98,98,71,17716,98,129869,126852,22831,17716,22832,98,382612,383446,384962,380416,131385,382613,380416,98,22831,GNET_4stim_recallt_idinput_-_STUDY,0,91909,71,yes,1366
0,0,1294,1294,white,no,Mozilla,Netscape,"5.0 (Windows NT 10.0; Win64; x64) AppleWebKit/537.36 (KHTML, like Gecko) Chrome/118.0.0.0 Safari/537.36 OPR/104.0.0.0",xpyriment,legacy,legacy,0,uniform,,,,0,0,0,0,19,0,0,19,0,0,19,19,19,19,0,0,0,19,0,0,51,51,51,51,51,0,51,51,0,0,0,13-10-23,13-10-23,17:31:23,Mon Nov 13 2023 17:31:23 GMT+0100 (közép-európai téli idő),The main experiment item,yes,,0,0,C:\Users\zymotik\Documents\!research\GNET,0,0,0,prototype3.png,no,mono,no,18,no,black,no,no,768,2291,3.5.8,legacy,xpyriment,d8bq7g,osweb,1.4.0,1768,1,0,right,enter,space,right,space,1232,5115,17871,1232,22142,2,0,legacy,1040,1920,24,1080,24,0,0,1920,1699893176773,1024,2,48000,-16,experiment,p1sarr1.png,0,even,Win32,98,98,71,17716,98,129869,126852,22831,17716,22832,98,386213,387996,389513,384966,131385,386213,384966,98,22831,GNET_4stim_recallt_idinput_-_STUDY,0,93141,72,yes,1366
0,0,1299,1299,white,no,Mozilla,Netscape,"5.0 (Windows NT 10.0; Win64; x64) AppleWebKit/537.36 (KHTML, like Gecko) Chrome/118.0.0.0 Safari/537.36 OPR/104.0.0.0",xpyriment,legacy,legacy,0,uniform,,,,0,0,0,0,19,0,0,19,0,0,19,19,19,19,0,0,0,19,0,0,52,52,52,52,52,0,52,52,0,0,0,13-10-23,13-10-23,17:31:23,Mon Nov 13 2023 17:31:23 GMT+0100 (közép-európai téli idő),The main experiment item,yes,,0,0,C:\Users\zymotik\Documents\!research\GNET,0,0,0,prototype3.png,no,mono,no,18,no,black,no,no,768,2291,3.5.8,legacy,xpyriment,d8bq7g,osweb,1.4.0,1316,1,0,left,enter,space,left,space,1684,5115,17871,1684,22142,2,0,legacy,1040,1920,24,1080,24,0,0,1920,1699893176773,1024,2,48000,-16,experiment,prototype2.png,0,even,Win32,98,98,71,17716,98,129869,126852,22831,17716,22832,98,391213,392546,394063,389515,131385,391213,389515,98,22831,GNET_4stim_recallt_idinput_-_STUDY,0,94825,73,yes,1366
0,0,1295,1295,white,no,Mozilla,Netscape,"5.0 (Windows NT 10.0; Win64; x64) AppleWebKit/537.36 (KHTML, like Gecko) Chrome/118.0.0.0 Safari/537.36 OPR/104.0.0.0",xpyriment,legacy,legacy,0,uniform,,,,0,0,0,0,19,0,0,19,0,0,19,19,19,19,0,0,0,19,0,0,53,53,53,53,53,0,53,53,0,0,0,13-10-23,13-10-23,17:31:23,Mon Nov 13 2023 17:31:23 GMT+0100 (közép-európai téli idő),The main experiment item,yes,,0,0,C:\Users\zymotik\Documents\!research\GNET,0,0,0,prototype3.png,no,mono,no,18,no,black,no,no,768,2291,3.5.8,legacy,xpyriment,d8bq7g,osweb,1.4.0,1972,1,0,right,enter,space,right,space,1028,5115,17871,1028,22142,2,0,legacy,1040,1920,24,1080,24,0,0,1920,1699893176773,1024,2,48000,-16,experiment,p1sarrcol1.png,0,even,Win32,98,98,71,17716,98,129869,126852,22831,17716,22832,98,395096,397080,398596,394066,131385,395097,394066,98,22831,GNET_4stim_recallt_idinput_-_STUDY,0,95853,74,yes,1366
0,0,1297,1297,white,no,Mozilla,Netscape,"5.0 (Windows NT 10.0; Win64; x64) AppleWebKit/537.36 (KHTML, like Gecko) Chrome/118.0.0.0 Safari/537.36 OPR/104.0.0.0",xpyriment,legacy,legacy,0,uniform,,,,0,0,0,0,19,0,0,19,0,0,19,19,19,19,0,0,0,19,0,0,54,54,54,54,54,0,54,54,0,0,0,13-10-23,13-10-23,17:31:23,Mon Nov 13 2023 17:31:23 GMT+0100 (közép-európai téli idő),The main experiment item,yes,,0,0,C:\Users\zymotik\Documents\!research\GNET,0,0,0,prototype3.png,no,mono,no,18,no,black,no,no,768,2291,3.5.8,legacy,xpyriment,d8bq7g,osweb,1.4.0,1569,1,0,left,enter,space,left,space,1431,5115,17871,1431,22142,2,0,legacy,1040,1920,24,1080,24,0,0,1920,1699893176773,1024,2,48000,-16,experiment,prototype1.png,0,even,Win32,98,98,71,17716,98,129869,126852,22831,17716,22832,98,400046,401630,403147,398599,131385,400047,398599,98,22831,GNET_4stim_recallt_idinput_-_STUDY,0,97284,75,yes,1366
0,0,1296,1296,white,no,Mozilla,Netscape,"5.0 (Windows NT 10.0; Win64; x64) AppleWebKit/537.36 (KHTML, like Gecko) Chrome/118.0.0.0 Safari/537.36 OPR/104.0.0.0",xpyriment,legacy,legacy,0,uniform,,,,0,0,0,0,19,0,0,19,0,0,19,19,19,19,0,0,0,19,0,0,55,55,55,55,55,0,55,55,0,0,0,13-10-23,13-10-23,17:31:23,Mon Nov 13 2023 17:31:23 GMT+0100 (közép-európai téli idő),The main experiment item,yes,,0,0,C:\Users\zymotik\Documents\!research\GNET,0,0,0,prototype3.png,no,mono,no,18,no,black,no,no,768,2291,3.5.8,legacy,xpyriment,d8bq7g,osweb,1.4.0,1759,1,0,right,enter,space,right,space,1241,5115,17871,1241,22142,2,0,legacy,1040,1920,24,1080,24,0,0,1920,1699893176773,1024,2,48000,-16,experiment,p4sarrshacol1.png,0,even,Win32,98,98,71,17716,98,129869,126852,22831,17716,22832,98,404397,406164,407680,403150,131385,404397,403150,98,22831,GNET_4stim_recallt_idinput_-_STUDY,0,98525,76,yes,1366
0,0,1301,1301,white,no,Mozilla,Netscape,"5.0 (Windows NT 10.0; Win64; x64) AppleWebKit/537.36 (KHTML, like Gecko) Chrome/118.0.0.0 Safari/537.36 OPR/104.0.0.0",xpyriment,legacy,legacy,0,uniform,,,,0,0,0,0,19,0,0,19,0,0,19,19,19,19,0,0,0,19,0,0,56,56,56,56,56,0,56,56,0,0,0,13-10-23,13-10-23,17:31:23,Mon Nov 13 2023 17:31:23 GMT+0100 (közép-európai téli idő),The main experiment item,yes,,0,0,C:\Users\zymotik\Documents\!research\GNET,0,0,0,prototype3.png,no,mono,no,18,no,black,no,no,768,2291,3.5.8,legacy,xpyriment,d8bq7g,osweb,1.4.0,1381,1,0,left,enter,space,left,space,1619,5115,17871,1619,22142,2,0,legacy,1040,1920,24,1080,24,0,0,1920,1699893176773,1024,2,48000,-16,experiment,prototype3.png,0,even,Win32,98,98,71,17716,98,129869,126852,22831,17716,22832,98,409314,410697,412214,407683,131385,409314,407683,98,22831,GNET_4stim_recallt_idinput_-_STUDY,0,100144,77,yes,1366
0,0,1296,1296,white,no,Mozilla,Netscape,"5.0 (Windows NT 10.0; Win64; x64) AppleWebKit/537.36 (KHTML, like Gecko) Chrome/118.0.0.0 Safari/537.36 OPR/104.0.0.0",xpyriment,legacy,legacy,0,uniform,,,,0,0,0,0,19,0,0,19,0,0,19,19,19,19,0,0,0,19,0,0,57,57,57,57,57,0,57,57,0,0,0,13-10-23,13-10-23,17:31:23,Mon Nov 13 2023 17:31:23 GMT+0100 (közép-európai téli idő),The main experiment item,yes,,0,0,C:\Users\zymotik\Documents\!research\GNET,0,0,0,prototype3.png,no,mono,no,18,no,black,no,no,768,2291,3.5.8,legacy,xpyriment,d8bq7g,osweb,1.4.0,2075,1,0,right,enter,space,right,space,925,5115,17871,925,22142,2,0,legacy,1040,1920,24,1080,24,0,0,1920,1699893176773,1024,2,48000,-16,experiment,p7sarr1.png,0,even,Win32,98,98,71,17716,98,129869,126852,22831,17716,22832,98,413147,415231,416747,412217,131385,413147,412217,98,22831,GNET_4stim_recallt_idinput_-_STUDY,0,101069,78,yes,1366
0,0,1297,1297,white,no,Mozilla,Netscape,"5.0 (Windows NT 10.0; Win64; x64) AppleWebKit/537.36 (KHTML, like Gecko) Chrome/118.0.0.0 Safari/537.36 OPR/104.0.0.0",xpyriment,legacy,legacy,0,uniform,,,,0,0,0,0,19,0,0,19,0,0,19,19,19,19,0,0,0,19,0,0,58,58,58,58,58,0,58,58,0,0,0,13-10-23,13-10-23,17:31:23,Mon Nov 13 2023 17:31:23 GMT+0100 (közép-európai téli idő),The main experiment item,yes,,0,0,C:\Users\zymotik\Documents\!research\GNET,0,0,0,prototype3.png,no,mono,no,18,no,black,no,no,768,2291,3.5.8,legacy,xpyriment,d8bq7g,osweb,1.4.0,1600,1,0,left,enter,space,left,space,1400,5115,17871,1400,22142,2,0,legacy,1040,1920,24,1080,24,0,0,1920,1699893176773,1024,2,48000,-16,experiment,prototype3.png,0,even,Win32,98,98,71,17716,98,129869,126852,22831,17716,22832,98,418164,419781,421297,416750,131385,418164,416750,98,22831,GNET_4stim_recallt_idinput_-_STUDY,0,102469,79,yes,1366
0,0,1290,1290,white,no,Mozilla,Netscape,"5.0 (Windows NT 10.0; Win64; x64) AppleWebKit/537.36 (KHTML, like Gecko) Chrome/118.0.0.0 Safari/537.36 OPR/104.0.0.0",xpyriment,legacy,legacy,0,uniform,,,,0,0,0,0,19,0,0,19,0,0,19,19,19,19,0,0,0,19,0,0,59,59,59,59,59,0,59,59,0,0,0,13-10-23,13-10-23,17:31:23,Mon Nov 13 2023 17:31:23 GMT+0100 (közép-európai téli idő),The main experiment item,yes,,0,0,C:\Users\zymotik\Documents\!research\GNET,0,0,0,prototype3.png,no,mono,no,18,no,black,no,no,768,2291,3.5.8,legacy,xpyriment,d8bq7g,osweb,1.4.0,2271,1,0,right,enter,space,right,space,729,5115,17871,729,22142,2,0,legacy,1040,1920,24,1080,24,0,0,1920,1699893176773,1024,2,48000,-16,experiment,p1sarr2.png,0,even,Win32,98,98,71,17716,98,129869,126852,22831,17716,22832,98,422031,424314,425831,421301,131385,422031,421301,98,22831,GNET_4stim_recallt_idinput_-_STUDY,0,103198,80,yes,1366
,,,,,,Mozilla,Netscape,"5.0 (Macintosh; Intel Mac OS X 10_15_7) AppleWebKit/605.1.15 (KHTML, like Gecko) Version/15.6.1 Safari/605.1.15",,,,,,,,,,,,,,,,,,,,,,,,,,,,,,,,,,,,,,,,09-10-23,09-10-23,11:54:09,,,,,0,0,,0,0,0,,,,,,,,,,,2285,3.5.8,,,rscl84,,,,,,,,,,,,,,,,,,,713,1280,24,800,24,0,23,1280,,,,,,,,,,MacIntel,,,,,,,,,,,,,,,,,,,,,,,,,,
0,0,1083,1083,white,no,Mozilla,Netscape,"5.0 (Macintosh; Intel Mac OS X 10_15_7) AppleWebKit/605.1.15 (KHTML, like Gecko) Version/15.6.1 Safari/605.1.15",xpyriment,legacy,legacy,0,uniform,,,,0,0,0,0,9,0,0,9,0,0,19,19,19,9,0,0,0,9,0,0,0,0,0,0,0,0,0,0,0,0,0,09-10-23,09-10-23,11:54:09,Thu Nov 09 2023 11:54:09 GMT+0100 (CET),The main experiment item,yes,,0,0,C:\Users\zymotik\Documents\!research\GNET,0,0,0,prototype1.png,no,mono,no,18,no,black,no,no,768,2285,3.5.8,legacy,xpyriment,rscl84,osweb,1.4.0,1103,1,0,left,enter,right,left,space,1897,1193,20159,1897,20079,2,0,legacy,713,1280,24,800,24,0,23,1280,1699527282683,1024,2,48000,-16,experiment,prototype3.png,0,even,MacIntel,172,172,141,9244,172,119801,116799,10441,9244,10453,172,143344,144459,145972,141443,121328,143352,141443,172,10442,GNET_4stim_recallt_idinput_-_STUDY,0,11909,11,yes,1366
0,0,1102,1102,white,no,Mozilla,Netscape,"5.0 (Macintosh; Intel Mac OS X 10_15_7) AppleWebKit/605.1.15 (KHTML, like Gecko) Version/15.6.1 Safari/605.1.15",xpyriment,legacy,legacy,0,uniform,,,,0,0,0,0,9,0,0,9,0,0,19,19,19,9,0,0,0,9,0,0,1,1,1,1,1,0,1,1,0,0,0,09-10-23,09-10-23,11:54:09,Thu Nov 09 2023 11:54:09 GMT+0100 (CET),The main experiment item,yes,,0,0,C:\Users\zymotik\Documents\!research\GNET,0,0,0,prototype1.png,no,mono,no,18,no,black,no,no,768,2285,3.5.8,legacy,xpyriment,rscl84,osweb,1.4.0,1688,1,0,right,enter,right,right,space,1312,1193,20159,1312,20079,2,0,legacy,713,1280,24,800,24,0,23,1280,1699527282683,1024,2,48000,-16,experiment,p8sarr1.png,0,even,MacIntel,172,172,141,9244,172,119801,116799,10441,9244,10453,172,147318,149031,150544,145996,121328,147336,145996,172,10442,GNET_4stim_recallt_idinput_-_STUDY,0,13221,12,yes,1366
0,0,1103,1103,white,no,Mozilla,Netscape,"5.0 (Macintosh; Intel Mac OS X 10_15_7) AppleWebKit/605.1.15 (KHTML, like Gecko) Version/15.6.1 Safari/605.1.15",xpyriment,legacy,legacy,0,uniform,,,,0,0,0,0,9,0,0,9,0,0,19,19,19,9,0,0,0,9,0,0,2,2,2,2,2,0,2,2,0,0,0,09-10-23,09-10-23,11:54:09,Thu Nov 09 2023 11:54:09 GMT+0100 (CET),The main experiment item,yes,,0,0,C:\Users\zymotik\Documents\!research\GNET,0,0,0,prototype1.png,no,mono,no,18,no,black,no,no,768,2285,3.5.8,legacy,xpyriment,rscl84,osweb,1.4.0,1880,1,0,right,enter,right,right,space,1120,1193,20159,1120,20079,2,0,legacy,713,1280,24,800,24,0,23,1280,1699527282683,1024,2,48000,-16,experiment,prototype4.png,0,even,MacIntel,172,172,141,9244,172,119801,116799,10441,9244,10453,172,151691,153587,155100,150561,121328,151698,150561,172,10442,GNET_4stim_recallt_idinput_-_STUDY,0,14341,13,yes,1366
0,0,1095,1095,white,no,Mozilla,Netscape,"5.0 (Macintosh; Intel Mac OS X 10_15_7) AppleWebKit/605.1.15 (KHTML, like Gecko) Version/15.6.1 Safari/605.1.15",xpyriment,legacy,legacy,0,uniform,,,,0,0,0,0,9,0,0,9,0,0,19,19,19,9,0,0,0,9,0,0,3,3,3,3,3,0,3,3,0,0,0,09-10-23,09-10-23,11:54:09,Thu Nov 09 2023 11:54:09 GMT+0100 (CET),The main experiment item,yes,,0,0,C:\Users\zymotik\Documents\!research\GNET,0,0,0,prototype1.png,no,mono,no,18,no,black,no,no,768,2285,3.5.8,legacy,xpyriment,rscl84,osweb,1.4.0,2014,1,0,right,enter,right,right,space,986,1193,20159,986,20079,2,0,legacy,713,1280,24,800,24,0,23,1280,1699527282683,1024,2,48000,-16,experiment,prototype4.png,0,even,MacIntel,172,172,141,9244,172,119801,116799,10441,9244,10453,172,156114,158144,159656,155116,121328,156124,155116,172,10442,GNET_4stim_recallt_idinput_-_STUDY,0,15327,14,yes,1366
0,0,1107,1107,white,no,Mozilla,Netscape,"5.0 (Macintosh; Intel Mac OS X 10_15_7) AppleWebKit/605.1.15 (KHTML, like Gecko) Version/15.6.1 Safari/605.1.15",xpyriment,legacy,legacy,0,uniform,,,,0,0,0,0,9,0,0,9,0,0,19,19,19,9,0,0,0,9,0,0,4,4,4,4,4,0,4,4,0,0,0,09-10-23,09-10-23,11:54:09,Thu Nov 09 2023 11:54:09 GMT+0100 (CET),The main experiment item,yes,,0,0,C:\Users\zymotik\Documents\!research\GNET,0,0,0,prototype1.png,no,mono,no,18,no,black,no,no,768,2285,3.5.8,legacy,xpyriment,rscl84,osweb,1.4.0,1717,1,0,right,enter,right,right,space,1283,1193,20159,1283,20079,2,0,legacy,713,1280,24,800,24,0,23,1280,1699527282683,1024,2,48000,-16,experiment,p2sarrsha2.png,0,even,MacIntel,172,172,141,9244,172,119801,116799,10441,9244,10453,172,160969,162699,164212,159682,121328,160976,159682,172,10442,GNET_4stim_recallt_idinput_-_STUDY,0,16610,15,yes,1366
0,0,1105,1105,white,no,Mozilla,Netscape,"5.0 (Macintosh; Intel Mac OS X 10_15_7) AppleWebKit/605.1.15 (KHTML, like Gecko) Version/15.6.1 Safari/605.1.15",xpyriment,legacy,legacy,0,uniform,,,,0,0,0,0,9,0,0,9,0,0,19,19,19,9,0,0,0,9,0,0,5,5,5,5,5,0,5,5,0,0,0,09-10-23,09-10-23,11:54:09,Thu Nov 09 2023 11:54:09 GMT+0100 (CET),The main experiment item,yes,,0,0,C:\Users\zymotik\Documents\!research\GNET,0,0,0,prototype1.png,no,mono,no,18,no,black,no,no,768,2285,3.5.8,legacy,xpyriment,rscl84,osweb,1.4.0,1937,1,0,left,enter,right,left,space,1063,1193,20159,1063,20079,2,0,legacy,713,1280,24,800,24,0,23,1280,1699527282683,1024,2,48000,-16,experiment,p4sarr1.png,0,even,MacIntel,172,172,141,9244,172,119801,116799,10441,9244,10453,172,165309,167255,168767,164239,121328,165317,164238,172,10442,GNET_4stim_recallt_idinput_-_STUDY,0,17673,16,yes,1366
0,0,1115,1115,white,no,Mozilla,Netscape,"5.0 (Macintosh; Intel Mac OS X 10_15_7) AppleWebKit/605.1.15 (KHTML, like Gecko) Version/15.6.1 Safari/605.1.15",xpyriment,legacy,legacy,0,uniform,,,,0,0,0,0,9,0,0,9,0,0,19,19,19,9,0,0,0,9,0,0,6,6,6,6,6,0,6,6,0,0,0,09-10-23,09-10-23,11:54:09,Thu Nov 09 2023 11:54:09 GMT+0100 (CET),The main experiment item,yes,,0,0,C:\Users\zymotik\Documents\!research\GNET,0,0,0,prototype1.png,no,mono,no,18,no,black,no,no,768,2285,3.5.8,legacy,xpyriment,rscl84,osweb,1.4.0,1723,1,0,left,enter,right,left,space,1277,1193,20159,1277,20079,2,0,legacy,713,1280,24,800,24,0,23,1280,1699527282683,1024,2,48000,-16,experiment,p1sarrsha1.png,0,even,MacIntel,172,172,141,9244,172,119801,116799,10441,9244,10453,172,170098,171844,173357,168808,121328,170105,168808,172,10442,GNET_4stim_recallt_idinput_-_STUDY,0,18950,17,yes,1366
0,0,1108,1108,white,no,Mozilla,Netscape,"5.0 (Macintosh; Intel Mac OS X 10_15_7) AppleWebKit/605.1.15 (KHTML, like Gecko) Version/15.6.1 Safari/605.1.15",xpyriment,legacy,legacy,0,uniform,,,,0,0,0,0,9,0,0,9,0,0,19,19,19,9,0,0,0,9,0,0,7,7,7,7,7,0,7,7,0,0,0,09-10-23,09-10-23,11:54:09,Thu Nov 09 2023 11:54:09 GMT+0100 (CET),The main experiment item,yes,,0,0,C:\Users\zymotik\Documents\!research\GNET,0,0,0,prototype1.png,no,mono,no,18,no,black,no,no,768,2285,3.5.8,legacy,xpyriment,rscl84,osweb,1.4.0,2001,1,0,right,enter,right,right,space,999,1193,20159,999,20079,2,0,legacy,713,1280,24,800,24,0,23,1280,1699527282683,1024,2,48000,-16,experiment,p6sarr1.png,0,even,MacIntel,172,172,141,9244,172,119801,116799,10441,9244,10453,172,174388,176400,177913,173378,121328,174395,173377,172,10442,GNET_4stim_recallt_idinput_-_STUDY,0,19949,18,yes,1366
0,0,1154,1154,white,no,Mozilla,Netscape,"5.0 (Macintosh; Intel Mac OS X 10_15_7) AppleWebKit/605.1.15 (KHTML, like Gecko) Version/15.6.1 Safari/605.1.15",xpyriment,legacy,legacy,0,uniform,,,,0,0,0,0,9,0,0,9,0,0,19,19,19,9,0,0,0,9,0,0,8,8,8,8,8,0,8,8,0,0,0,09-10-23,09-10-23,11:54:09,Thu Nov 09 2023 11:54:09 GMT+0100 (CET),The main experiment item,yes,,0,0,C:\Users\zymotik\Documents\!research\GNET,0,0,0,prototype1.png,no,mono,no,18,no,black,no,no,768,2285,3.5.8,legacy,xpyriment,rscl84,osweb,1.4.0,1020,1,0,left,enter,right,left,space,1980,1193,20159,1980,20079,2,0,legacy,713,1280,24,800,24,0,23,1280,1699527282683,1024,2,48000,-16,experiment,prototype2.png,0,even,MacIntel,172,172,141,9244,172,119801,116799,10441,9244,10453,172,179925,180957,182469,177928,121328,179934,177928,172,10442,GNET_4stim_recallt_idinput_-_STUDY,0,21929,19,yes,1366
0,0,1152,1152,white,no,Mozilla,Netscape,"5.0 (Macintosh; Intel Mac OS X 10_15_7) AppleWebKit/605.1.15 (KHTML, like Gecko) Version/15.6.1 Safari/605.1.15",xpyriment,legacy,legacy,0,uniform,,,,0,0,0,0,9,0,0,9,0,0,19,19,19,9,0,0,0,9,0,0,9,9,9,9,9,0,9,9,0,0,0,09-10-23,09-10-23,11:54:09,Thu Nov 09 2023 11:54:09 GMT+0100 (CET),The main experiment item,yes,,0,0,C:\Users\zymotik\Documents\!research\GNET,0,0,0,prototype1.png,no,mono,no,18,no,black,no,no,768,2285,3.5.8,legacy,xpyriment,rscl84,osweb,1.4.0,1881,1,0,right,enter,right,right,space,1119,1193,20159,1119,20079,2,0,legacy,713,1280,24,800,24,0,23,1280,1699527282683,1024,2,48000,-16,experiment,p4sarr2.png,0,even,MacIntel,172,172,141,9244,172,119801,116799,10441,9244,10453,172,183616,185512,187025,182493,121328,183623,182493,172,10442,GNET_4stim_recallt_idinput_-_STUDY,0,23048,20,yes,1366
0,0,1143,1143,white,no,Mozilla,Netscape,"5.0 (Macintosh; Intel Mac OS X 10_15_7) AppleWebKit/605.1.15 (KHTML, like Gecko) Version/15.6.1 Safari/605.1.15",xpyriment,legacy,legacy,0,uniform,,,,0,0,0,0,9,0,0,9,0,0,19,19,19,9,0,0,0,9,0,0,10,10,10,10,10,0,10,10,0,0,0,09-10-23,09-10-23,11:54:09,Thu Nov 09 2023 11:54:09 GMT+0100 (CET),The main experiment item,yes,,0,0,C:\Users\zymotik\Documents\!research\GNET,0,0,0,prototype1.png,no,mono,no,18,no,black,no,no,768,2285,3.5.8,legacy,xpyriment,rscl84,osweb,1.4.0,2037,1,0,right,enter,right,right,space,963,1193,20159,963,20079,2,0,legacy,713,1280,24,800,24,0,23,1280,1699527282683,1024,2,48000,-16,experiment,p1sarr2.png,0,even,MacIntel,172,172,141,9244,172,119801,116799,10441,9244,10453,172,188022,190085,191597,187046,121328,188030,187046,172,10442,GNET_4stim_recallt_idinput_-_STUDY,0,24011,21,yes,1366
0,0,1160,1160,white,no,Mozilla,Netscape,"5.0 (Macintosh; Intel Mac OS X 10_15_7) AppleWebKit/605.1.15 (KHTML, like Gecko) Version/15.6.1 Safari/605.1.15",xpyriment,legacy,legacy,0,uniform,,,,0,0,0,0,9,0,0,9,0,0,19,19,19,9,0,0,0,9,0,0,11,11,11,11,11,0,11,11,0,0,0,09-10-23,09-10-23,11:54:09,Thu Nov 09 2023 11:54:09 GMT+0100 (CET),The main experiment item,yes,,0,0,C:\Users\zymotik\Documents\!research\GNET,0,0,0,prototype1.png,no,mono,no,18,no,black,no,no,768,2285,3.5.8,legacy,xpyriment,rscl84,osweb,1.4.0,1481,1,0,left,enter,right,left,space,1519,1193,20159,1519,20079,2,0,legacy,713,1280,24,800,24,0,23,1280,1699527282683,1024,2,48000,-16,experiment,p4sarrcol1.png,0,even,MacIntel,172,172,141,9244,172,119801,116799,10441,9244,10453,172,193143,194641,196153,191623,121328,193150,191623,172,10442,GNET_4stim_recallt_idinput_-_STUDY,0,25530,22,yes,1366
0,0,1174,1174,white,no,Mozilla,Netscape,"5.0 (Macintosh; Intel Mac OS X 10_15_7) AppleWebKit/605.1.15 (KHTML, like Gecko) Version/15.6.1 Safari/605.1.15",xpyriment,legacy,legacy,0,uniform,,,,0,0,0,0,9,0,0,9,0,0,19,19,19,9,0,0,0,9,0,0,12,12,12,12,12,0,12,12,0,0,0,09-10-23,09-10-23,11:54:09,Thu Nov 09 2023 11:54:09 GMT+0100 (CET),The main experiment item,yes,,0,0,C:\Users\zymotik\Documents\!research\GNET,0,0,0,prototype1.png,no,mono,no,18,no,black,no,no,768,2285,3.5.8,legacy,xpyriment,rscl84,osweb,1.4.0,1539,1,0,right,enter,right,right,space,1461,1193,20159,1461,20079,2,0,legacy,713,1280,24,800,24,0,23,1280,1699527282683,1024,2,48000,-16,experiment,p9sarr2.png,0,even,MacIntel,172,172,141,9244,172,119801,116799,10441,9244,10453,172,197650,199213,200726,196173,121328,197657,196173,172,10442,GNET_4stim_recallt_idinput_-_STUDY,0,26991,23,yes,1366
0,0,1166,1166,white,no,Mozilla,Netscape,"5.0 (Macintosh; Intel Mac OS X 10_15_7) AppleWebKit/605.1.15 (KHTML, like Gecko) Version/15.6.1 Safari/605.1.15",xpyriment,legacy,legacy,0,uniform,,,,0,0,0,0,9,0,0,9,0,0,19,19,19,9,0,0,0,9,0,0,13,13,13,13,13,0,13,13,0,0,0,09-10-23,09-10-23,11:54:09,Thu Nov 09 2023 11:54:09 GMT+0100 (CET),The main experiment item,yes,,0,0,C:\Users\zymotik\Documents\!research\GNET,0,0,0,prototype1.png,no,mono,no,18,no,black,no,no,768,2285,3.5.8,legacy,xpyriment,rscl84,osweb,1.4.0,2006,1,0,right,enter,right,right,space,994,1193,20159,994,20079,2,0,legacy,713,1280,24,800,24,0,23,1280,1699527282683,1024,2,48000,-16,experiment,p1sarrcol1.png,0,even,MacIntel,172,172,141,9244,172,119801,116799,10441,9244,10453,172,201757,203786,205298,200747,121328,201764,200747,172,10442,GNET_4stim_recallt_idinput_-_STUDY,0,27985,24,yes,1366
0,0,1177,1177,white,no,Mozilla,Netscape,"5.0 (Macintosh; Intel Mac OS X 10_15_7) AppleWebKit/605.1.15 (KHTML, like Gecko) Version/15.6.1 Safari/605.1.15",xpyriment,legacy,legacy,0,uniform,,,,0,0,0,0,9,0,0,9,0,0,19,19,19,9,0,0,0,9,0,0,14,14,14,14,14,0,14,14,0,0,0,09-10-23,09-10-23,11:54:09,Thu Nov 09 2023 11:54:09 GMT+0100 (CET),The main experiment item,yes,,0,0,C:\Users\zymotik\Documents\!research\GNET,0,0,0,prototype1.png,no,mono,no,18,no,black,no,no,768,2285,3.5.8,legacy,xpyriment,rscl84,osweb,1.4.0,1553,1,0,right,enter,right,right,space,1447,1193,20159,1447,20079,2,0,legacy,713,1280,24,800,24,0,23,1280,1699527282683,1024,2,48000,-16,experiment,p8sarr2.png,0,even,MacIntel,172,172,141,9244,172,119801,116799,10441,9244,10453,172,206778,208342,209854,205318,121328,206785,205318,172,10442,GNET_4stim_recallt_idinput_-_STUDY,0,29432,25,yes,1366
0,0,1161,1161,white,no,Mozilla,Netscape,"5.0 (Macintosh; Intel Mac OS X 10_15_7) AppleWebKit/605.1.15 (KHTML, like Gecko) Version/15.6.1 Safari/605.1.15",xpyriment,legacy,legacy,0,uniform,,,,0,0,0,0,9,0,0,9,0,0,19,19,19,9,0,0,0,9,0,0,15,15,15,15,15,0,15,15,0,0,0,09-10-23,09-10-23,11:54:09,Thu Nov 09 2023 11:54:09 GMT+0100 (CET),The main experiment item,yes,,0,0,C:\Users\zymotik\Documents\!research\GNET,0,0,0,prototype1.png,no,mono,no,18,no,black,no,no,768,2285,3.5.8,legacy,xpyriment,rscl84,osweb,1.4.0,2255,1,0,right,enter,right,right,space,745,1193,20159,745,20079,2,0,legacy,713,1280,24,800,24,0,23,1280,1699527282683,1024,2,48000,-16,experiment,p3sarr1.png,0,even,MacIntel,172,172,141,9244,172,119801,116799,10441,9244,10453,172,210636,212914,214427,209874,121328,210643,209874,172,10442,GNET_4stim_recallt_idinput_-_STUDY,0,30177,26,yes,1366
0,0,1155,1155,white,no,Mozilla,Netscape,"5.0 (Macintosh; Intel Mac OS X 10_15_7) AppleWebKit/605.1.15 (KHTML, like Gecko) Version/15.6.1 Safari/605.1.15",xpyriment,legacy,legacy,0,uniform,,,,0,0,0,0,9,0,0,9,0,0,19,19,19,9,0,0,0,9,0,0,16,16,16,16,16,0,16,16,0,0,0,09-10-23,09-10-23,11:54:09,Thu Nov 09 2023 11:54:09 GMT+0100 (CET),The main experiment item,yes,,0,0,C:\Users\zymotik\Documents\!research\GNET,0,0,0,prototype1.png,no,mono,no,18,no,black,no,no,768,2285,3.5.8,legacy,xpyriment,rscl84,osweb,1.4.0,2002,1,0,left,enter,right,left,space,998,1193,20159,998,20079,2,0,legacy,713,1280,24,800,24,0,23,1280,1699527282683,1024,2,48000,-16,experiment,p4sarrshacol1.png,0,even,MacIntel,172,172,141,9244,172,119801,116799,10441,9244,10453,172,215458,217470,218982,214446,121328,215465,214446,172,10442,GNET_4stim_recallt_idinput_-_STUDY,0,31175,27,yes,1366
0,0,1193,1193,white,no,Mozilla,Netscape,"5.0 (Macintosh; Intel Mac OS X 10_15_7) AppleWebKit/605.1.15 (KHTML, like Gecko) Version/15.6.1 Safari/605.1.15",xpyriment,legacy,legacy,0,uniform,,,,0,0,0,0,9,0,0,9,0,0,19,19,19,9,0,0,0,9,0,0,17,17,17,17,17,0,17,17,0,0,0,09-10-23,09-10-23,11:54:09,Thu Nov 09 2023 11:54:09 GMT+0100 (CET),The main experiment item,yes,,0,0,C:\Users\zymotik\Documents\!research\GNET,0,0,0,prototype1.png,no,mono,no,18,no,black,no,no,768,2285,3.5.8,legacy,xpyriment,rscl84,osweb,1.4.0,780,1,0,right,enter,right,right,space,2220,1193,20159,2220,20079,2,0,legacy,713,1280,24,800,24,0,23,1280,1699527282683,1024,2,48000,-16,experiment,p3sarrsha2.png,0,even,MacIntel,172,172,141,9244,172,119801,116799,10441,9244,10453,172,221227,222026,223539,219002,121328,221239,219002,172,10442,GNET_4stim_recallt_idinput_-_STUDY,0,33395,28,yes,1366
0,0,1197,1197,white,no,Mozilla,Netscape,"5.0 (Macintosh; Intel Mac OS X 10_15_7) AppleWebKit/605.1.15 (KHTML, like Gecko) Version/15.6.1 Safari/605.1.15",xpyriment,legacy,legacy,0,uniform,,,,0,0,0,0,9,0,0,9,0,0,19,19,19,9,0,0,0,9,0,0,18,18,18,18,18,0,18,18,0,0,0,09-10-23,09-10-23,11:54:09,Thu Nov 09 2023 11:54:09 GMT+0100 (CET),The main experiment item,yes,,0,0,C:\Users\zymotik\Documents\!research\GNET,0,0,0,prototype1.png,no,mono,no,18,no,black,no,no,768,2285,3.5.8,legacy,xpyriment,rscl84,osweb,1.4.0,1679,1,0,right,enter,right,right,space,1321,1193,20159,1321,20079,2,0,legacy,713,1280,24,800,24,0,23,1280,1699527282683,1024,2,48000,-16,experiment,p2sarrshacol1.png,0,even,MacIntel,172,172,141,9244,172,119801,116799,10441,9244,10453,172,224902,226599,228111,223564,121328,224910,223563,172,10442,GNET_4stim_recallt_idinput_-_STUDY,0,34716,29,yes,1366
0,0,1205,1205,white,no,Mozilla,Netscape,"5.0 (Macintosh; Intel Mac OS X 10_15_7) AppleWebKit/605.1.15 (KHTML, like Gecko) Version/15.6.1 Safari/605.1.15",xpyriment,legacy,legacy,0,uniform,,,,0,0,0,0,9,0,0,9,0,0,19,19,19,9,0,0,0,9,0,0,19,19,19,19,19,0,19,19,0,0,0,09-10-23,09-10-23,11:54:09,Thu Nov 09 2023 11:54:09 GMT+0100 (CET),The main experiment item,yes,,0,0,C:\Users\zymotik\Documents\!research\GNET,0,0,0,prototype1.png,no,mono,no,18,no,black,no,no,768,2285,3.5.8,legacy,xpyriment,rscl84,osweb,1.4.0,1561,1,0,left,enter,right,left,space,1439,1193,20159,1439,20079,2,0,legacy,713,1280,24,800,24,0,23,1280,1699527282683,1024,2,48000,-16,experiment,p3sarrcol1.png,0,even,MacIntel,172,172,141,9244,172,119801,116799,10441,9244,10453,172,229574,231155,232667,228132,121328,229581,228132,172,10442,GNET_4stim_recallt_idinput_-_STUDY,0,36155,30,yes,1366
0,0,1206,1206,white,no,Mozilla,Netscape,"5.0 (Macintosh; Intel Mac OS X 10_15_7) AppleWebKit/605.1.15 (KHTML, like Gecko) Version/15.6.1 Safari/605.1.15",xpyriment,legacy,legacy,0,uniform,,,,0,0,0,0,9,0,0,9,0,0,19,19,19,9,0,0,0,9,0,0,20,20,20,20,20,0,20,20,0,0,0,09-10-23,09-10-23,11:54:09,Thu Nov 09 2023 11:54:09 GMT+0100 (CET),The main experiment item,yes,,0,0,C:\Users\zymotik\Documents\!research\GNET,0,0,0,prototype1.png,no,mono,no,18,no,black,no,no,768,2285,3.5.8,legacy,xpyriment,rscl84,osweb,1.4.0,1773,1,0,right,enter,right,right,space,1227,1193,20159,1227,20079,2,0,legacy,713,1280,24,800,24,0,23,1280,1699527282683,1024,2,48000,-16,experiment,p9sarr1.png,0,even,MacIntel,172,172,141,9244,172,119801,116799,10441,9244,10453,172,233931,235727,237240,232688,121328,233938,232688,172,10442,GNET_4stim_recallt_idinput_-_STUDY,0,37382,31,yes,1366
0,0,1215,1215,white,no,Mozilla,Netscape,"5.0 (Macintosh; Intel Mac OS X 10_15_7) AppleWebKit/605.1.15 (KHTML, like Gecko) Version/15.6.1 Safari/605.1.15",xpyriment,legacy,legacy,0,uniform,,,,0,0,0,0,9,0,0,9,0,0,19,19,19,9,0,0,0,9,0,0,21,21,21,21,21,0,21,21,0,0,0,09-10-23,09-10-23,11:54:09,Thu Nov 09 2023 11:54:09 GMT+0100 (CET),The main experiment item,yes,,0,0,C:\Users\zymotik\Documents\!research\GNET,0,0,0,prototype1.png,no,mono,no,18,no,black,no,no,768,2285,3.5.8,legacy,xpyriment,rscl84,osweb,1.4.0,1512,1,0,right,enter,right,right,space,1488,1193,20159,1488,20079,2,0,legacy,713,1280,24,800,24,0,23,1280,1699527282683,1024,2,48000,-16,experiment,p2sarrcol2.png,0,even,MacIntel,172,172,141,9244,172,119801,116799,10441,9244,10453,172,238752,240283,241796,237260,121328,238759,237260,172,10442,GNET_4stim_recallt_idinput_-_STUDY,0,38870,32,yes,1366
0,0,1210,1210,white,no,Mozilla,Netscape,"5.0 (Macintosh; Intel Mac OS X 10_15_7) AppleWebKit/605.1.15 (KHTML, like Gecko) Version/15.6.1 Safari/605.1.15",xpyriment,legacy,legacy,0,uniform,,,,0,0,0,0,9,0,0,9,0,0,19,19,19,9,0,0,0,9,0,0,22,22,22,22,22,0,22,22,0,0,0,09-10-23,09-10-23,11:54:09,Thu Nov 09 2023 11:54:09 GMT+0100 (CET),The main experiment item,yes,,0,0,C:\Users\zymotik\Documents\!research\GNET,0,0,0,prototype1.png,no,mono,no,18,no,black,no,no,768,2285,3.5.8,legacy,xpyriment,rscl84,osweb,1.4.0,1937,1,0,left,enter,right,left,space,1063,1193,20159,1063,20079,2,0,legacy,713,1280,24,800,24,0,23,1280,1699527282683,1024,2,48000,-16,experiment,prototype2.png,0,even,MacIntel,172,172,141,9244,172,119801,116799,10441,9244,10453,172,242893,244839,246351,241815,121328,242900,241815,172,10442,GNET_4stim_recallt_idinput_-_STUDY,0,39933,33,yes,1366
0,0,1215,1215,white,no,Mozilla,Netscape,"5.0 (Macintosh; Intel Mac OS X 10_15_7) AppleWebKit/605.1.15 (KHTML, like Gecko) Version/15.6.1 Safari/605.1.15",xpyriment,legacy,legacy,0,uniform,,,,0,0,0,0,9,0,0,9,0,0,19,19,19,9,0,0,0,9,0,0,23,23,23,23,23,0,23,23,0,0,0,09-10-23,09-10-23,11:54:09,Thu Nov 09 2023 11:54:09 GMT+0100 (CET),The main experiment item,yes,,0,0,C:\Users\zymotik\Documents\!research\GNET,0,0,0,prototype1.png,no,mono,no,18,no,black,no,no,768,2285,3.5.8,legacy,xpyriment,rscl84,osweb,1.4.0,1615,1,0,right,enter,right,right,space,1385,1193,20159,1385,20079,2,0,legacy,713,1280,24,800,24,0,23,1280,1699527282683,1024,2,48000,-16,experiment,prototype4.png,0,even,MacIntel,172,172,141,9244,172,119801,116799,10441,9244,10453,172,247765,249397,250908,246366,121328,247774,246366,172,10442,GNET_4stim_recallt_idinput_-_STUDY,0,41318,34,yes,1366
0,0,1225,1225,white,no,Mozilla,Netscape,"5.0 (Macintosh; Intel Mac OS X 10_15_7) AppleWebKit/605.1.15 (KHTML, like Gecko) Version/15.6.1 Safari/605.1.15",xpyriment,legacy,legacy,0,uniform,,,,0,0,0,0,9,0,0,9,0,0,19,19,19,9,0,0,0,9,0,0,24,24,24,24,24,0,24,24,0,0,0,09-10-23,09-10-23,11:54:09,Thu Nov 09 2023 11:54:09 GMT+0100 (CET),The main experiment item,yes,,0,0,C:\Users\zymotik\Documents\!research\GNET,0,0,0,prototype1.png,no,mono,no,18,no,black,no,no,768,2285,3.5.8,legacy,xpyriment,rscl84,osweb,1.4.0,1441,1,0,left,enter,right,left,space,1559,1193,20159,1559,20079,2,0,legacy,713,1280,24,800,24,0,23,1280,1699527282683,1024,2,48000,-16,experiment,prototype3.png,0,even,MacIntel,172,172,141,9244,172,119801,116799,10441,9244,10453,172,252504,253968,255480,250927,121328,252511,250927,172,10442,GNET_4stim_recallt_idinput_-_STUDY,0,42877,35,yes,1366
0,0,1227,1227,white,no,Mozilla,Netscape,"5.0 (Macintosh; Intel Mac OS X 10_15_7) AppleWebKit/605.1.15 (KHTML, like Gecko) Version/15.6.1 Safari/605.1.15",xpyriment,legacy,legacy,0,uniform,,,,0,0,0,0,9,0,0,9,0,0,19,19,19,9,0,0,0,9,0,0,25,25,25,25,25,0,25,25,0,0,0,09-10-23,09-10-23,11:54:09,Thu Nov 09 2023 11:54:09 GMT+0100 (CET),The main experiment item,yes,,0,0,C:\Users\zymotik\Documents\!research\GNET,0,0,0,prototype1.png,no,mono,no,18,no,black,no,no,768,2285,3.5.8,legacy,xpyriment,rscl84,osweb,1.4.0,1717,1,0,left,enter,right,left,space,1283,1193,20159,1283,20079,2,0,legacy,713,1280,24,800,24,0,23,1280,1699527282683,1024,2,48000,-16,experiment,prototype2.png,0,even,MacIntel,172,172,141,9244,172,119801,116799,10441,9244,10453,172,256794,258523,260036,255497,121328,256801,255497,172,10442,GNET_4stim_recallt_idinput_-_STUDY,0,44160,36,yes,1366
0,0,1225,1225,white,no,Mozilla,Netscape,"5.0 (Macintosh; Intel Mac OS X 10_15_7) AppleWebKit/605.1.15 (KHTML, like Gecko) Version/15.6.1 Safari/605.1.15",xpyriment,legacy,legacy,0,uniform,,,,0,0,0,0,9,0,0,9,0,0,19,19,19,9,0,0,0,9,0,0,26,26,26,26,26,0,26,26,0,0,0,09-10-23,09-10-23,11:54:09,Thu Nov 09 2023 11:54:09 GMT+0100 (CET),The main experiment item,yes,,0,0,C:\Users\zymotik\Documents\!research\GNET,0,0,0,prototype1.png,no,mono,no,18,no,black,no,no,768,2285,3.5.8,legacy,xpyriment,rscl84,osweb,1.4.0,1835,1,0,left,enter,right,left,space,1165,1193,20159,1165,20079,2,0,legacy,713,1280,24,800,24,0,23,1280,1699527282683,1024,2,48000,-16,experiment,p1sarrsha2.png,0,even,MacIntel,172,172,141,9244,172,119801,116799,10441,9244,10453,172,261233,263079,264592,260058,121328,261240,260058,172,10442,GNET_4stim_recallt_idinput_-_STUDY,0,45325,37,yes,1366
0,0,1239,1239,white,no,Mozilla,Netscape,"5.0 (Macintosh; Intel Mac OS X 10_15_7) AppleWebKit/605.1.15 (KHTML, like Gecko) Version/15.6.1 Safari/605.1.15",xpyriment,legacy,legacy,0,uniform,,,,0,0,0,0,9,0,0,9,0,0,19,19,19,9,0,0,0,9,0,0,27,27,27,27,27,0,27,27,0,0,0,09-10-23,09-10-23,11:54:09,Thu Nov 09 2023 11:54:09 GMT+0100 (CET),The main experiment item,yes,,0,0,C:\Users\zymotik\Documents\!research\GNET,0,0,0,prototype1.png,no,mono,no,18,no,black,no,no,768,2285,3.5.8,legacy,xpyriment,rscl84,osweb,1.4.0,1230,1,0,left,enter,right,left,space,1770,1193,20159,1770,20079,2,0,legacy,713,1280,24,800,24,0,23,1280,1699527282683,1024,2,48000,-16,experiment,p3sarr2.png,0,even,MacIntel,172,172,141,9244,172,119801,116799,10441,9244,10453,172,266388,267635,269148,264612,121328,266395,264612,172,10442,GNET_4stim_recallt_idinput_-_STUDY,0,47095,38,yes,1366
0,0,1237,1237,white,no,Mozilla,Netscape,"5.0 (Macintosh; Intel Mac OS X 10_15_7) AppleWebKit/605.1.15 (KHTML, like Gecko) Version/15.6.1 Safari/605.1.15",xpyriment,legacy,legacy,0,uniform,,,,0,0,0,0,9,0,0,9,0,0,19,19,19,9,0,0,0,9,0,0,28,28,28,28,28,0,28,28,0,0,0,09-10-23,09-10-23,11:54:09,Thu Nov 09 2023 11:54:09 GMT+0100 (CET),The main experiment item,yes,,0,0,C:\Users\zymotik\Documents\!research\GNET,0,0,0,prototype1.png,no,mono,no,18,no,black,no,no,768,2285,3.5.8,legacy,xpyriment,rscl84,osweb,1.4.0,1849,1,0,right,enter,right,right,space,1151,1193,20159,1151,20079,2,0,legacy,713,1280,24,800,24,0,23,1280,1699527282683,1024,2,48000,-16,experiment,prototype4.png,0,even,MacIntel,172,172,141,9244,172,119801,116799,10441,9244,10453,172,270328,272191,273704,269165,121328,270335,269165,172,10442,GNET_4stim_recallt_idinput_-_STUDY,0,48246,39,yes,1366
0,0,1228,1228,white,no,Mozilla,Netscape,"5.0 (Macintosh; Intel Mac OS X 10_15_7) AppleWebKit/605.1.15 (KHTML, like Gecko) Version/15.6.1 Safari/605.1.15",xpyriment,legacy,legacy,0,uniform,,,,0,0,0,0,9,0,0,9,0,0,19,19,19,9,0,0,0,9,0,0,29,29,29,29,29,0,29,29,0,0,0,09-10-23,09-10-23,11:54:09,Thu Nov 09 2023 11:54:09 GMT+0100 (CET),The main experiment item,yes,,0,0,C:\Users\zymotik\Documents\!research\GNET,0,0,0,prototype1.png,no,mono,no,18,no,black,no,no,768,2285,3.5.8,legacy,xpyriment,rscl84,osweb,1.4.0,2115,1,0,right,enter,right,right,space,885,1193,20159,885,20079,2,0,legacy,713,1280,24,800,24,0,23,1280,1699527282683,1024,2,48000,-16,experiment,p4sarrsha1.png,0,even,MacIntel,172,172,141,9244,172,119801,116799,10441,9244,10453,172,274617,276748,278260,273732,121328,274624,273732,172,10442,GNET_4stim_recallt_idinput_-_STUDY,0,49131,40,yes,1366
0,0,1233,1233,white,no,Mozilla,Netscape,"5.0 (Macintosh; Intel Mac OS X 10_15_7) AppleWebKit/605.1.15 (KHTML, like Gecko) Version/15.6.1 Safari/605.1.15",xpyriment,legacy,legacy,0,uniform,,,,0,0,0,0,9,0,0,9,0,0,19,19,19,9,0,0,0,9,0,0,30,30,30,30,30,0,30,30,0,0,0,09-10-23,09-10-23,11:54:09,Thu Nov 09 2023 11:54:09 GMT+0100 (CET),The main experiment item,yes,,0,0,C:\Users\zymotik\Documents\!research\GNET,0,0,0,prototype1.png,no,mono,no,18,no,black,no,no,768,2285,3.5.8,legacy,xpyriment,rscl84,osweb,1.4.0,1566,1,0,right,enter,right,right,space,1434,1193,20159,1434,20079,2,0,legacy,713,1280,24,800,24,0,23,1280,1699527282683,1024,2,48000,-16,experiment,p1sarrshacol1.png,0,even,MacIntel,172,172,141,9244,172,119801,116799,10441,9244,10453,172,279723,281303,282816,278283,121328,279731,278282,172,10442,GNET_4stim_recallt_idinput_-_STUDY,0,50565,41,yes,1366
0,0,1231,1231,white,no,Mozilla,Netscape,"5.0 (Macintosh; Intel Mac OS X 10_15_7) AppleWebKit/605.1.15 (KHTML, like Gecko) Version/15.6.1 Safari/605.1.15",xpyriment,legacy,legacy,0,uniform,,,,0,0,0,0,9,0,0,9,0,0,19,19,19,9,0,0,0,9,0,0,31,31,31,31,31,0,31,31,0,0,0,09-10-23,09-10-23,11:54:09,Thu Nov 09 2023 11:54:09 GMT+0100 (CET),The main experiment item,yes,,0,0,C:\Users\zymotik\Documents\!research\GNET,0,0,0,prototype1.png,no,mono,no,18,no,black,no,no,768,2285,3.5.8,legacy,xpyriment,rscl84,osweb,1.4.0,1863,1,0,left,enter,right,left,space,1137,1193,20159,1137,20079,2,0,legacy,713,1280,24,800,24,0,23,1280,1699527282683,1024,2,48000,-16,experiment,prototype1.png,0,even,MacIntel,172,172,141,9244,172,119801,116799,10441,9244,10453,172,283978,285859,287371,282832,121328,283986,282832,172,10442,GNET_4stim_recallt_idinput_-_STUDY,0,51702,42,yes,1366
0,0,1223,1223,white,no,Mozilla,Netscape,"5.0 (Macintosh; Intel Mac OS X 10_15_7) AppleWebKit/605.1.15 (KHTML, like Gecko) Version/15.6.1 Safari/605.1.15",xpyriment,legacy,legacy,0,uniform,,,,0,0,0,0,9,0,0,9,0,0,19,19,19,9,0,0,0,9,0,0,32,32,32,32,32,0,32,32,0,0,0,09-10-23,09-10-23,11:54:09,Thu Nov 09 2023 11:54:09 GMT+0100 (CET),The main experiment item,yes,,0,0,C:\Users\zymotik\Documents\!research\GNET,0,0,0,prototype1.png,no,mono,no,18,no,black,no,no,768,2285,3.5.8,legacy,xpyriment,rscl84,osweb,1.4.0,2113,1,0,right,enter,right,right,space,887,1193,20159,887,20079,2,0,legacy,713,1280,24,800,24,0,23,1280,1699527282683,1024,2,48000,-16,experiment,p7sarr2.png,0,even,MacIntel,172,172,141,9244,172,119801,116799,10441,9244,10453,172,288285,290415,291928,287393,121328,288291,287393,172,10442,GNET_4stim_recallt_idinput_-_STUDY,0,52589,43,yes,1366
0,0,1232,1232,white,no,Mozilla,Netscape,"5.0 (Macintosh; Intel Mac OS X 10_15_7) AppleWebKit/605.1.15 (KHTML, like Gecko) Version/15.6.1 Safari/605.1.15",xpyriment,legacy,legacy,0,uniform,,,,0,0,0,0,9,0,0,9,0,0,19,19,19,9,0,0,0,9,0,0,33,33,33,33,33,0,33,33,0,0,0,09-10-23,09-10-23,11:54:09,Thu Nov 09 2023 11:54:09 GMT+0100 (CET),The main experiment item,yes,,0,0,C:\Users\zymotik\Documents\!research\GNET,0,0,0,prototype1.png,no,mono,no,18,no,black,no,no,768,2285,3.5.8,legacy,xpyriment,rscl84,osweb,1.4.0,1394,1,0,left,enter,right,left,space,1606,1193,20159,1606,20079,2,0,legacy,713,1280,24,800,24,0,23,1280,1699527282683,1024,2,48000,-16,experiment,p1sarrshacol2.png,0,even,MacIntel,172,172,141,9244,172,119801,116799,10441,9244,10453,172,293556,294970,296483,291949,121328,293563,291949,172,10442,GNET_4stim_recallt_idinput_-_STUDY,0,54195,44,yes,1366
0,0,1223,1223,white,no,Mozilla,Netscape,"5.0 (Macintosh; Intel Mac OS X 10_15_7) AppleWebKit/605.1.15 (KHTML, like Gecko) Version/15.6.1 Safari/605.1.15",xpyriment,legacy,legacy,0,uniform,,,,0,0,0,0,9,0,0,9,0,0,19,19,19,9,0,0,0,9,0,0,34,34,34,34,34,0,34,34,0,0,0,09-10-23,09-10-23,11:54:09,Thu Nov 09 2023 11:54:09 GMT+0100 (CET),The main experiment item,yes,,0,0,C:\Users\zymotik\Documents\!research\GNET,0,0,0,prototype1.png,no,mono,no,18,no,black,no,no,768,2285,3.5.8,legacy,xpyriment,rscl84,osweb,1.4.0,2140,1,0,right,enter,right,right,space,860,1193,20159,860,20079,2,0,legacy,713,1280,24,800,24,0,23,1280,1699527282683,1024,2,48000,-16,experiment,p4sarrshacol2.png,0,even,MacIntel,172,172,141,9244,172,119801,116799,10441,9244,10453,172,297380,299543,301056,296504,121328,297390,296504,172,10442,GNET_4stim_recallt_idinput_-_STUDY,0,55055,45,yes,1366
0,0,1231,1231,white,no,Mozilla,Netscape,"5.0 (Macintosh; Intel Mac OS X 10_15_7) AppleWebKit/605.1.15 (KHTML, like Gecko) Version/15.6.1 Safari/605.1.15",xpyriment,legacy,legacy,0,uniform,,,,0,0,0,0,9,0,0,9,0,0,19,19,19,9,0,0,0,9,0,0,35,35,35,35,35,0,35,35,0,0,0,09-10-23,09-10-23,11:54:09,Thu Nov 09 2023 11:54:09 GMT+0100 (CET),The main experiment item,yes,,0,0,C:\Users\zymotik\Documents\!research\GNET,0,0,0,prototype1.png,no,mono,no,18,no,black,no,no,768,2285,3.5.8,legacy,xpyriment,rscl84,osweb,1.4.0,1418,1,0,left,enter,right,left,space,1582,1193,20159,1582,20079,2,0,legacy,713,1280,24,800,24,0,23,1280,1699527282683,1024,2,48000,-16,experiment,p3sarrshacol1.png,0,even,MacIntel,172,172,141,9244,172,119801,116799,10441,9244,10453,172,302669,304100,305612,301076,121328,302678,301076,172,10442,GNET_4stim_recallt_idinput_-_STUDY,0,56637,46,yes,1366
0,0,1220,1220,white,no,Mozilla,Netscape,"5.0 (Macintosh; Intel Mac OS X 10_15_7) AppleWebKit/605.1.15 (KHTML, like Gecko) Version/15.6.1 Safari/605.1.15",xpyriment,legacy,legacy,0,uniform,,,,0,0,0,0,9,0,0,9,0,0,19,19,19,9,0,0,0,9,0,0,36,36,36,36,36,0,36,36,0,0,0,09-10-23,09-10-23,11:54:09,Thu Nov 09 2023 11:54:09 GMT+0100 (CET),The main experiment item,yes,,0,0,C:\Users\zymotik\Documents\!research\GNET,0,0,0,prototype1.png,no,mono,no,18,no,black,no,no,768,2285,3.5.8,legacy,xpyriment,rscl84,osweb,1.4.0,2305,1,0,right,enter,right,right,space,695,1193,20159,695,20079,2,0,legacy,713,1280,24,800,24,0,23,1280,1699527282683,1024,2,48000,-16,experiment,p2sarrsha1.png,0,even,MacIntel,172,172,141,9244,172,119801,116799,10441,9244,10453,172,306344,308672,310184,305634,121328,306351,305634,172,10442,GNET_4stim_recallt_idinput_-_STUDY,0,57332,47,yes,1366
0,0,1217,1217,white,no,Mozilla,Netscape,"5.0 (Macintosh; Intel Mac OS X 10_15_7) AppleWebKit/605.1.15 (KHTML, like Gecko) Version/15.6.1 Safari/605.1.15",xpyriment,legacy,legacy,0,uniform,,,,0,0,0,0,9,0,0,9,0,0,19,19,19,9,0,0,0,9,0,0,37,37,37,37,37,0,37,37,0,0,0,09-10-23,09-10-23,11:54:09,Thu Nov 09 2023 11:54:09 GMT+0100 (CET),The main experiment item,yes,,0,0,C:\Users\zymotik\Documents\!research\GNET,0,0,0,prototype1.png,no,mono,no,18,no,black,no,no,768,2285,3.5.8,legacy,xpyriment,rscl84,osweb,1.4.0,1913,1,0,right,enter,right,right,space,1087,1193,20159,1087,20079,2,0,legacy,713,1280,24,800,24,0,23,1280,1699527282683,1024,2,48000,-16,experiment,p2sarrcol1.png,0,even,MacIntel,172,172,141,9244,172,119801,116799,10441,9244,10453,172,311298,313228,314740,310205,121328,311305,310205,172,10442,GNET_4stim_recallt_idinput_-_STUDY,0,58419,48,yes,1366
0,0,1223,1223,white,no,Mozilla,Netscape,"5.0 (Macintosh; Intel Mac OS X 10_15_7) AppleWebKit/605.1.15 (KHTML, like Gecko) Version/15.6.1 Safari/605.1.15",xpyriment,legacy,legacy,0,uniform,,,,0,0,0,0,9,0,0,9,0,0,19,19,19,9,0,0,0,9,0,0,38,38,38,38,38,0,38,38,0,0,0,09-10-23,09-10-23,11:54:09,Thu Nov 09 2023 11:54:09 GMT+0100 (CET),The main experiment item,yes,,0,0,C:\Users\zymotik\Documents\!research\GNET,0,0,0,prototype1.png,no,mono,no,18,no,black,no,no,768,2285,3.5.8,legacy,xpyriment,rscl84,osweb,1.4.0,1498,1,0,right,enter,right,right,space,1502,1193,20159,1502,20079,2,0,legacy,713,1280,24,800,24,0,23,1280,1699527282683,1024,2,48000,-16,experiment,p2sarr1.png,0,even,MacIntel,172,172,141,9244,172,119801,116799,10441,9244,10453,172,316269,317784,319296,314762,121328,316276,314762,172,10442,GNET_4stim_recallt_idinput_-_STUDY,0,59921,49,yes,1366
0,0,1226,1226,white,no,Mozilla,Netscape,"5.0 (Macintosh; Intel Mac OS X 10_15_7) AppleWebKit/605.1.15 (KHTML, like Gecko) Version/15.6.1 Safari/605.1.15",xpyriment,legacy,legacy,0,uniform,,,,0,0,0,0,9,0,0,9,0,0,19,19,19,9,0,0,0,9,0,0,39,39,39,39,39,0,39,39,0,0,0,09-10-23,09-10-23,11:54:09,Thu Nov 09 2023 11:54:09 GMT+0100 (CET),The main experiment item,yes,,0,0,C:\Users\zymotik\Documents\!research\GNET,0,0,0,prototype1.png,no,mono,no,18,no,black,no,no,768,2285,3.5.8,legacy,xpyriment,rscl84,osweb,1.4.0,1622,1,0,left,enter,right,left,space,1378,1193,20159,1378,20079,2,0,legacy,713,1280,24,800,24,0,23,1280,1699527282683,1024,2,48000,-16,experiment,p1sarrcol2.png,0,even,MacIntel,172,172,141,9244,172,119801,116799,10441,9244,10453,172,320709,322356,323869,319317,121328,320716,319317,172,10442,GNET_4stim_recallt_idinput_-_STUDY,0,61299,50,yes,1366
0,0,1222,1222,white,no,Mozilla,Netscape,"5.0 (Macintosh; Intel Mac OS X 10_15_7) AppleWebKit/605.1.15 (KHTML, like Gecko) Version/15.6.1 Safari/605.1.15",xpyriment,legacy,legacy,0,uniform,,,,0,0,0,0,9,0,0,9,0,0,19,19,19,9,0,0,0,9,0,0,40,40,40,40,40,0,40,40,0,0,0,09-10-23,09-10-23,11:54:09,Thu Nov 09 2023 11:54:09 GMT+0100 (CET),The main experiment item,yes,,0,0,C:\Users\zymotik\Documents\!research\GNET,0,0,0,prototype1.png,no,mono,no,18,no,black,no,no,768,2285,3.5.8,legacy,xpyriment,rscl84,osweb,1.4.0,1974,1,0,left,enter,right,left,space,1026,1193,20159,1026,20079,2,0,legacy,713,1280,24,800,24,0,23,1280,1699527282683,1024,2,48000,-16,experiment,prototype3.png,0,even,MacIntel,172,172,141,9244,172,119801,116799,10441,9244,10453,172,324916,326912,328425,323885,121328,324923,323884,172,10442,GNET_4stim_recallt_idinput_-_STUDY,0,62325,51,yes,1366
0,0,1240,1240,white,no,Mozilla,Netscape,"5.0 (Macintosh; Intel Mac OS X 10_15_7) AppleWebKit/605.1.15 (KHTML, like Gecko) Version/15.6.1 Safari/605.1.15",xpyriment,legacy,legacy,0,uniform,,,,0,0,0,0,9,0,0,9,0,0,19,19,19,9,0,0,0,9,0,0,41,41,41,41,41,0,41,41,0,0,0,09-10-23,09-10-23,11:54:09,Thu Nov 09 2023 11:54:09 GMT+0100 (CET),The main experiment item,yes,,0,0,C:\Users\zymotik\Documents\!research\GNET,0,0,0,prototype1.png,no,mono,no,18,no,black,no,no,768,2285,3.5.8,legacy,xpyriment,rscl84,osweb,1.4.0,869,1,0,right,enter,right,right,space,2131,1193,20159,2131,20079,2,0,legacy,713,1280,24,800,24,0,23,1280,1699527282683,1024,2,48000,-16,experiment,p2sarr2.png,0,even,MacIntel,172,172,141,9244,172,119801,116799,10441,9244,10453,172,330586,331468,332981,328445,121328,330594,328445,172,10442,GNET_4stim_recallt_idinput_-_STUDY,0,64456,52,yes,1366
0,0,1247,1247,white,no,Mozilla,Netscape,"5.0 (Macintosh; Intel Mac OS X 10_15_7) AppleWebKit/605.1.15 (KHTML, like Gecko) Version/15.6.1 Safari/605.1.15",xpyriment,legacy,legacy,0,uniform,,,,0,0,0,0,9,0,0,9,0,0,19,19,19,9,0,0,0,9,0,0,42,42,42,42,42,0,42,42,0,0,0,09-10-23,09-10-23,11:54:09,Thu Nov 09 2023 11:54:09 GMT+0100 (CET),The main experiment item,yes,,0,0,C:\Users\zymotik\Documents\!research\GNET,0,0,0,prototype1.png,no,mono,no,18,no,black,no,no,768,2285,3.5.8,legacy,xpyriment,rscl84,osweb,1.4.0,1355,1,0,left,enter,right,left,space,1645,1193,20159,1645,20079,2,0,legacy,713,1280,24,800,24,0,23,1280,1699527282683,1024,2,48000,-16,experiment,prototype1.png,0,even,MacIntel,172,172,141,9244,172,119801,116799,10441,9244,10453,172,334643,336007,337519,332996,121328,334650,332996,172,10442,GNET_4stim_recallt_idinput_-_STUDY,0,66101,53,yes,1366
0,0,1239,1239,white,no,Mozilla,Netscape,"5.0 (Macintosh; Intel Mac OS X 10_15_7) AppleWebKit/605.1.15 (KHTML, like Gecko) Version/15.6.1 Safari/605.1.15",xpyriment,legacy,legacy,0,uniform,,,,0,0,0,0,9,0,0,9,0,0,19,19,19,9,0,0,0,9,0,0,43,43,43,43,43,0,43,43,0,0,0,09-10-23,09-10-23,11:54:09,Thu Nov 09 2023 11:54:09 GMT+0100 (CET),The main experiment item,yes,,0,0,C:\Users\zymotik\Documents\!research\GNET,0,0,0,prototype1.png,no,mono,no,18,no,black,no,no,768,2285,3.5.8,legacy,xpyriment,rscl84,osweb,1.4.0,2208,1,0,right,enter,right,right,space,792,1193,20159,792,20079,2,0,legacy,713,1280,24,800,24,0,23,1280,1699527282683,1024,2,48000,-16,experiment,p4sarrsha2.png,0,even,MacIntel,172,172,141,9244,172,119801,116799,10441,9244,10453,172,338335,340564,342076,337540,121328,338347,337540,172,10442,GNET_4stim_recallt_idinput_-_STUDY,0,66893,54,yes,1366
0,0,1238,1238,white,no,Mozilla,Netscape,"5.0 (Macintosh; Intel Mac OS X 10_15_7) AppleWebKit/605.1.15 (KHTML, like Gecko) Version/15.6.1 Safari/605.1.15",xpyriment,legacy,legacy,0,uniform,,,,0,0,0,0,9,0,0,9,0,0,19,19,19,9,0,0,0,9,0,0,44,44,44,44,44,0,44,44,0,0,0,09-10-23,09-10-23,11:54:09,Thu Nov 09 2023 11:54:09 GMT+0100 (CET),The main experiment item,yes,,0,0,C:\Users\zymotik\Documents\!research\GNET,0,0,0,prototype1.png,no,mono,no,18,no,black,no,no,768,2285,3.5.8,legacy,xpyriment,rscl84,osweb,1.4.0,1822,1,0,left,enter,right,left,space,1178,1193,20159,1178,20079,2,0,legacy,713,1280,24,800,24,0,23,1280,1699527282683,1024,2,48000,-16,experiment,prototype3.png,0,even,MacIntel,172,172,141,9244,172,119801,116799,10441,9244,10453,172,343290,345136,346648,342095,121328,343297,342095,172,10442,GNET_4stim_recallt_idinput_-_STUDY,0,68071,55,yes,1366
0,0,1233,1233,white,no,Mozilla,Netscape,"5.0 (Macintosh; Intel Mac OS X 10_15_7) AppleWebKit/605.1.15 (KHTML, like Gecko) Version/15.6.1 Safari/605.1.15",xpyriment,legacy,legacy,0,uniform,,,,0,0,0,0,9,0,0,9,0,0,19,19,19,9,0,0,0,9,0,0,45,45,45,45,45,0,45,45,0,0,0,09-10-23,09-10-23,11:54:09,Thu Nov 09 2023 11:54:09 GMT+0100 (CET),The main experiment item,yes,,0,0,C:\Users\zymotik\Documents\!research\GNET,0,0,0,prototype1.png,no,mono,no,18,no,black,no,no,768,2285,3.5.8,legacy,xpyriment,rscl84,osweb,1.4.0,1996,1,0,right,enter,right,right,space,1004,1193,20159,1004,20079,2,0,legacy,713,1280,24,800,24,0,23,1280,1699527282683,1024,2,48000,-16,experiment,p7sarr1.png,0,even,MacIntel,172,172,141,9244,172,119801,116799,10441,9244,10453,172,347679,349692,351204,346669,121328,347687,346669,172,10442,GNET_4stim_recallt_idinput_-_STUDY,0,69075,56,yes,1366
0,0,1228,1228,white,no,Mozilla,Netscape,"5.0 (Macintosh; Intel Mac OS X 10_15_7) AppleWebKit/605.1.15 (KHTML, like Gecko) Version/15.6.1 Safari/605.1.15",xpyriment,legacy,legacy,0,uniform,,,,0,0,0,0,9,0,0,9,0,0,19,19,19,9,0,0,0,9,0,0,46,46,46,46,46,0,46,46,0,0,0,09-10-23,09-10-23,11:54:09,Thu Nov 09 2023 11:54:09 GMT+0100 (CET),The main experiment item,yes,,0,0,C:\Users\zymotik\Documents\!research\GNET,0,0,0,prototype1.png,no,mono,no,18,no,black,no,no,768,2285,3.5.8,legacy,xpyriment,rscl84,osweb,1.4.0,2102,1,0,left,enter,right,left,space,898,1193,20159,898,20079,2,0,legacy,713,1280,24,800,24,0,23,1280,1699527282683,1024,2,48000,-16,experiment,prototype3.png,0,even,MacIntel,172,172,141,9244,172,119801,116799,10441,9244,10453,172,352135,354248,355760,351221,121328,352142,351221,172,10442,GNET_4stim_recallt_idinput_-_STUDY,0,69973,57,yes,1366
0,0,1229,1229,white,no,Mozilla,Netscape,"5.0 (Macintosh; Intel Mac OS X 10_15_7) AppleWebKit/605.1.15 (KHTML, like Gecko) Version/15.6.1 Safari/605.1.15",xpyriment,legacy,legacy,0,uniform,,,,0,0,0,0,9,0,0,9,0,0,19,19,19,9,0,0,0,9,0,0,47,47,47,47,47,0,47,47,0,0,0,09-10-23,09-10-23,11:54:09,Thu Nov 09 2023 11:54:09 GMT+0100 (CET),The main experiment item,yes,,0,0,C:\Users\zymotik\Documents\!research\GNET,0,0,0,prototype1.png,no,mono,no,18,no,black,no,no,768,2285,3.5.8,legacy,xpyriment,rscl84,osweb,1.4.0,1698,1,0,left,enter,right,left,space,1302,1193,20159,1302,20079,2,0,legacy,713,1280,24,800,24,0,23,1280,1699527282683,1024,2,48000,-16,experiment,prototype2.png,0,even,MacIntel,172,172,141,9244,172,119801,116799,10441,9244,10453,172,357089,358802,360316,355776,121328,357096,355776,172,10442,GNET_4stim_recallt_idinput_-_STUDY,0,71275,58,yes,1366
0,0,1218,1218,white,no,Mozilla,Netscape,"5.0 (Macintosh; Intel Mac OS X 10_15_7) AppleWebKit/605.1.15 (KHTML, like Gecko) Version/15.6.1 Safari/605.1.15",xpyriment,legacy,legacy,0,uniform,,,,0,0,0,0,9,0,0,9,0,0,19,19,19,9,0,0,0,9,0,0,48,48,48,48,48,0,48,48,0,0,0,09-10-23,09-10-23,11:54:09,Thu Nov 09 2023 11:54:09 GMT+0100 (CET),The main experiment item,yes,,0,0,C:\Users\zymotik\Documents\!research\GNET,0,0,0,prototype1.png,no,mono,no,18,no,black,no,no,768,2285,3.5.8,legacy,xpyriment,rscl84,osweb,1.4.0,2411,1,0,right,enter,right,right,space,589,1193,20159,589,20079,2,0,legacy,713,1280,24,800,24,0,23,1280,1699527282683,1024,2,48000,-16,experiment,p4sarrcol2.png,0,even,MacIntel,172,172,141,9244,172,119801,116799,10441,9244,10453,172,360931,363360,364872,360338,121328,360939,360338,172,10442,GNET_4stim_recallt_idinput_-_STUDY,0,71864,59,yes,1366
0,0,1213,1213,white,no,Mozilla,Netscape,"5.0 (Macintosh; Intel Mac OS X 10_15_7) AppleWebKit/605.1.15 (KHTML, like Gecko) Version/15.6.1 Safari/605.1.15",xpyriment,legacy,legacy,0,uniform,,,,0,0,0,0,9,0,0,9,0,0,19,19,19,9,0,0,0,9,0,0,49,49,49,49,49,0,49,49,0,0,0,09-10-23,09-10-23,11:54:09,Thu Nov 09 2023 11:54:09 GMT+0100 (CET),The main experiment item,yes,,0,0,C:\Users\zymotik\Documents\!research\GNET,0,0,0,prototype1.png,no,mono,no,18,no,black,no,no,768,2285,3.5.8,legacy,xpyriment,rscl84,osweb,1.4.0,2091,1,0,left,enter,right,left,space,909,1193,20159,909,20079,2,0,legacy,713,1280,24,800,24,0,23,1280,1699527282683,1024,2,48000,-16,experiment,p3sarrcol2.png,0,even,MacIntel,172,172,141,9244,172,119801,116799,10441,9244,10453,172,365802,367916,369429,364892,121328,365809,364892,172,10442,GNET_4stim_recallt_idinput_-_STUDY,0,72773,60,yes,1366
0,0,1211,1211,white,no,Mozilla,Netscape,"5.0 (Macintosh; Intel Mac OS X 10_15_7) AppleWebKit/605.1.15 (KHTML, like Gecko) Version/15.6.1 Safari/605.1.15",xpyriment,legacy,legacy,0,uniform,,,,0,0,0,0,9,0,0,9,0,0,19,19,19,9,0,0,0,9,0,0,50,50,50,50,50,0,50,50,0,0,0,09-10-23,09-10-23,11:54:09,Thu Nov 09 2023 11:54:09 GMT+0100 (CET),The main experiment item,yes,,0,0,C:\Users\zymotik\Documents\!research\GNET,0,0,0,prototype1.png,no,mono,no,18,no,black,no,no,768,2285,3.5.8,legacy,xpyriment,rscl84,osweb,1.4.0,1920,1,0,right,enter,right,right,space,1080,1193,20159,1080,20079,2,0,legacy,713,1280,24,800,24,0,23,1280,1699527282683,1024,2,48000,-16,experiment,prototype1.png,0,even,MacIntel,172,172,141,9244,172,119801,116799,10441,9244,10453,172,370542,372488,374001,369451,121328,370551,369446,172,10442,GNET_4stim_recallt_idinput_-_STUDY,0,73853,61,yes,1366
0,0,1206,1206,white,no,Mozilla,Netscape,"5.0 (Macintosh; Intel Mac OS X 10_15_7) AppleWebKit/605.1.15 (KHTML, like Gecko) Version/15.6.1 Safari/605.1.15",xpyriment,legacy,legacy,0,uniform,,,,0,0,0,0,9,0,0,9,0,0,19,19,19,9,0,0,0,9,0,0,51,51,51,51,51,0,51,51,0,0,0,09-10-23,09-10-23,11:54:09,Thu Nov 09 2023 11:54:09 GMT+0100 (CET),The main experiment item,yes,,0,0,C:\Users\zymotik\Documents\!research\GNET,0,0,0,prototype1.png,no,mono,no,18,no,black,no,no,768,2285,3.5.8,legacy,xpyriment,rscl84,osweb,1.4.0,2103,1,0,right,enter,right,right,space,897,1193,20159,897,20079,2,0,legacy,713,1280,24,800,24,0,23,1280,1699527282683,1024,2,48000,-16,experiment,p6sarr2.png,0,even,MacIntel,172,172,141,9244,172,119801,116799,10441,9244,10453,172,374932,377044,378556,374024,121328,374938,374024,172,10442,GNET_4stim_recallt_idinput_-_STUDY,0,74750,62,yes,1366
